timeTick, roll, pitch, yaw, gyroX, gyroY, gyroZ, accX, accY, accZ, stateX, stateY, stateZ, target_x, target_y, target_z, otX, otY, otZ, otRoll, otPitch, otYaw, kalX, kalY, kalZ
10726, -0.023587802425026894, 0.05836381018161774, -0.0639367625117302, 0, 0, 0, 0, 0, 0, 0, 0, 0, 0, 0, 0, 0, 0, 0, 0, 0, 0, 0, 0, 0
10736, -0.023073835298419, 0.05596976354718208, -0.0635501816868782, 0.03851922228932381, 0.30362948775291443, 0.1426931768655777, -0.0017337335739284754, -0.0028552254661917686, 0.9986845850944519, -0.6524932384490967, -0.7634329199790955, 0.024944474920630455, 0.0, 0.0, 0.0, 0, 0, 0, 0, 0, 0, -0.6543679237365723, -0.7653905749320984, 0.025043325498700142
10746, -0.02259037271142006, 0.05538042634725571, -0.06380733847618103, 0.16883084177970886, 0.07209929078817368, 0.044257938861846924, -0.0018932744860649109, -0.0016943453811109066, 0.9992576241493225, -0.6543679237365723, -0.7653905749320984, 0.025043325498700142, 0.0, 0.0, 0.0, 0, 0, 0, 0, 0, 0, -0.6562454700469971, -0.7673503756523132, 0.025141272693872452
10756, -0.021661290898919106, 0.05653480812907219, -0.06370797753334045, 0.07607004791498184, 0.08002109825611115, 0.04544126242399216, -0.0018841649871319532, -0.004234462510794401, 0.9993115663528442, -0.6562454700469971, -0.7673503756523132, 0.025141272693872452, 0.0, 0.0, 0.0, 0, 0, 0, 0, 0, 0, -0.6581256985664368, -0.7693123817443848, 0.02523835562169552
10766, -0.02187710627913475, 0.05710982903838158, -0.062061604112386703, 0.023706158623099327, -0.020716369152069092, 0.24420124292373657, -0.002123040147125721, -0.00340070528909564, 0.9989209771156311, -0.6581256985664368, -0.7693123817443848, 0.02523835562169552, 0.0, 0.0, 0.0, 0, 0, 0, 0, 0, 0, -0.6600087881088257, -0.7712776064872742, 0.025334786623716354
10776, -0.021916091442108154, 0.05610320344567299, -0.06237906590104103, -0.015557951293885708, 0.02380060963332653, -0.021805450320243835, -0.0020436516497284174, -0.003263104008510709, 0.9973957538604736, -0.6600087881088257, -0.7712776064872742, 0.025334786623716354, 0.0, 0.0, 0.0, 0, 0, 0, 0, 0, 0, -0.6618947982788086, -0.7732459902763367, 0.02542969025671482
10786, -0.021133026108145714, 0.056218329817056656, -0.06198756396770477, 0.055516667664051056, -0.02906007692217827, -0.0665944516658783, -0.0012841077987104654, -0.0033291643485426903, 0.9980231523513794, -0.6618947982788086, -0.7732459902763367, 0.02542969025671482, 0.0, 0.0, 0.0, 0, 0, 0, 0, 0, 0, -0.6637834906578064, -0.7752169966697693, 0.0255226232111454
10796, -0.021353449672460556, 0.054976802319288254, -0.06226909160614014, -0.1001819521188736, 0.1494368463754654, -0.19555705785751343, -0.0028218748047947884, -0.003310917876660824, 1.000938057899475, -0.6637834906578064, -0.7752169966697693, 0.0255226232111454, 0.0, 0.0, 0.0, 0, 0, 0, 0, 0, 0, -0.665675163269043, -0.7771907448768616, 0.025614701211452484
10806, -0.020263783633708954, 0.0530799925327301, -0.06192436069250107, 0.0950021967291832, 0.16226127743721008, -0.24293668568134308, -0.0032140957191586494, -0.0036102323792874813, 0.9995431900024414, -0.665675163269043, -0.7771907448768616, 0.025614701211452484, 0.0, 0.0, 0.0, 0, 0, 0, 0, 0, 0, -0.6677603721618652, -0.7793655395507812, 0.025716468691825867
10816, -0.020089974626898766, 0.05481656268239021, -0.06176063418388367, 0.10419651865959167, -0.3003990948200226, -0.015214527025818825, -0.0041447109542787075, -0.0018733948236331344, 0.9990256428718567, -0.6677603721618652, -0.7793655395507812, 0.025716468691825867, 0.0, 0.0, 0.0, 0, 0, 0, 0, 0, 0, -0.6696608066558838, -0.7813454270362854, 0.025808749720454216
10826, -0.01988007128238678, 0.05473827198147774, -0.06062843278050423, 0.007161132525652647, 0.13669267296791077, 0.11001003533601761, -0.0030008351895958185, -0.0018937942804768682, 1.0013314485549927, -0.6696608066558838, -0.7813454270362854, 0.025808749720454216, 0.0, 0.0, 0.0, 0, 0, 0, 0, 0, 0, -0.6715657711029053, -0.7833269238471985, 0.02590095065534115
10836, -0.020599467679858208, 0.05564696714282036, -0.06073657423257828, -0.14483611285686493, -0.17390485107898712, -0.010437984019517899, -0.001232576323673129, -0.002661076607182622, 1.000223994255066, -0.6715657711029053, -0.7833269238471985, 0.02590095065534115, 0.0, 0.0, 0.0, 0, 0, 0, 0, 0, 0, -0.6734740138053894, -0.7853102087974548, 0.02599380724132061
10846, -0.019774114713072777, 0.05658666789531708, -0.06123136729001999, 0.19964879751205444, -0.3684796988964081, -0.09773021936416626, -0.0005167296039871871, -0.003211022587493062, 1.0010203123092651, -0.6734740138053894, -0.7853102087974548, 0.02599380724132061, 0.0, 0.0, 0.0, 0, 0, 0, 0, 0, 0, -0.6753842830657959, -0.7872958779335022, 0.026087243109941483
10856, -0.020487533882260323, 0.05498548597097397, -0.06177005171775818, -0.04380111023783684, -0.011623460799455643, -0.12931987643241882, -0.002515960019081831, -0.002995637711137533, 0.9993042349815369, -0.6753842830657959, -0.7872958779335022, 0.026087243109941483, 0.0, 0.0, 0.0, 0, 0, 0, 0, 0, 0, -0.6753842830657959, -0.7872958779335022, 0.026087243109941483
10866, -0.020040759816765785, 0.05443112924695015, -0.06099080294370651, 0.032773446291685104, -0.010286536999046803, -0.04565441980957985, -0.0036792487371712923, -0.0020061444956809282, 0.9991136789321899, -0.6772969961166382, -0.7892842888832092, 0.026180854067206383, 0.0, 0.0, 0.0, 0, 0, 0, 0, 0, 0, -0.6772969961166382, -0.7892842888832092, 0.026180854067206383
10876, -0.019385922700166702, 0.054245878010988235, -0.06214676797389984, 0.1918412744998932, -0.12447220087051392, -0.21184249222278595, -0.003306902013719082, -0.002659993479028344, 1.0000971555709839, -0.6792135834693909, -0.7912748456001282, 0.02627379819750786, 0.0, 0.0, 0.0, 0, 0, 0, 0, 0, 0, -0.6792135834693909, -0.7912748456001282, 0.02627379819750786
10886, -0.018988925963640213, 0.05523107200860977, -0.06292150169610977, 0.06509914994239807, -0.19076991081237793, -0.08334852010011673, -0.0011477709049358964, -0.0033116417471319437, 1.0004528760910034, -0.6811344027519226, -0.7932674884796143, 0.026366187259554863, 0.0, 0.0, 0.0, 0, 0, 0, 0, 0, 0, -0.6811344027519226, -0.7932674884796143, 0.026366187259554863
10896, -0.01816989853978157, 0.055644601583480835, -0.06326572597026825, -0.0312570221722126, -0.0493028424680233, -0.10812639445066452, -0.005131744779646397, -0.004227756522595882, 1.0001055002212524, -0.6830583214759827, -0.7952628135681152, 0.02645881660282612, 0.0, 0.0, 0.0, 0, 0, 0, 0, 0, 0, -0.6830583214759827, -0.7952628135681152, 0.02645881660282612
10906, -0.017714455723762512, 0.05375861003994942, -0.0638747438788414, 0.09054754674434662, 0.18735283613204956, 0.0068835788406431675, -0.0032657792326062918, -0.003090151585638523, 0.9972851872444153, -0.6849862337112427, -0.7972614169120789, 0.026551641523838043, 0.0, 0.0, 0.0, 0, 0, 0, 0, 0, 0, -0.6849862337112427, -0.7972614169120789, 0.026551641523838043
10916, -0.017243655398488045, 0.05493209883570671, -0.06401079893112183, 0.05454721301794052, -0.19883914291858673, -0.029896585270762444, -0.002817869884893298, -0.0026790823321789503, 1.0011999607086182, -0.6869192719459534, -0.7992632985115051, 0.026643145829439163, 0.0, 0.0, 0.0, 0, 0, 0, 0, 0, 0, -0.6869192719459534, -0.7992632985115051, 0.026643145829439163
10926, -0.016873793676495552, 0.0519583597779274, -0.0643167495727539, -0.05136276036500931, 0.5924072265625, 0.05294943228363991, -0.002030289499089122, -0.0016783332685008645, 1.0015897750854492, -0.6888564229011536, -0.8012678027153015, 0.026733767241239548, 0.0, 0.0, 0.0, 0, 0, 0, 0, 0, 0, -0.6888564229011536, -0.8012678027153015, 0.026733767241239548
10936, -0.016842419281601906, 0.05003194883465767, -0.06409601867198944, -0.09497817605733871, 0.34425660967826843, 0.10137331485748291, -0.004526100121438503, -0.002677011303603649, 1.0026310682296753, -0.6907970309257507, -0.8032743334770203, 0.026825714856386185, 0.0, 0.0, 0.0, 0, 0, 0, 0, 0, 0, -0.6907970309257507, -0.8032743334770203, 0.026825714856386185
10946, -0.016678212210536003, 0.04933496564626694, -0.06470493227243423, -0.0785854384303093, 0.05841055139899254, -0.10440999269485474, -0.004006572533398867, -0.0021440964192152023, 0.9989328980445862, -0.6927416920661926, -0.8052827715873718, 0.026919899508357048, 0.0, 0.0, 0.0, 0, 0, 0, 0, 0, 0, -0.6927416920661926, -0.8052827715873718, 0.026919899508357048
10956, -0.01679416559636593, 0.04816306754946709, -0.06399618834257126, -0.046612448990345, 0.0578252337872982, 0.03139768913388252, -0.002296537160873413, -0.002269189106300473, 0.9983155131340027, -0.6946911811828613, -0.8072930574417114, 0.027015026658773422, 0.0, 0.0, 0.0, 0, 0, 0, 0, 0, 0, -0.6946911811828613, -0.8072930574417114, 0.027015026658773422
10966, -0.016199415549635887, 0.04714056849479675, -0.06270043551921844, 0.10225684195756912, 0.11791443824768066, 0.12243499606847763, -0.0018847137689590454, -0.0004221205017529428, 0.9994540214538574, -0.6966446042060852, -0.8093051910400391, 0.027109000831842422, 0.0, 0.0, 0.0, 0, 0, 0, 0, 0, 0, -0.6966446042060852, -0.8093051910400391, 0.027109000831842422
10976, -0.015747126191854477, 0.04640521854162216, -0.06208663806319237, 0.06982596963644028, 0.0586424358189106, 0.2608790397644043, -0.003507497487589717, -0.0011241865577176213, 1.0011447668075562, -0.6986010670661926, -0.811318576335907, 0.027201831340789795, 0.0, 0.0, 0.0, 0, 0, 0, 0, 0, 0, -0.6986010670661926, -0.811318576335907, 0.027201831340789795
10986, -0.015126177109777927, 0.047374509274959564, -0.06192097067832947, 0.1621110588312149, -0.17554481327533722, 0.054759688675403595, -0.002660053549334407, -0.002101222751662135, 1.001619577407837, -0.700560986995697, -0.8133325576782227, 0.027294810861349106, 0.0, 0.0, 0.0, 0, 0, 0, 0, 0, 0, -0.700560986995697, -0.8133325576782227, 0.027294810861349106
10996, -0.014879574999213219, 0.04689699038863182, -0.06099884957075119, 0.07817665487527847, 0.013810536824166775, 0.09456226974725723, -0.004026949871331453, -0.003906800411641598, 0.9994801878929138, -0.7025246024131775, -0.8153476715087891, 0.027389075607061386, 0.0, 0.0, 0.0, 0, 0, 0, 0, 0, 0, -0.7025246024131775, -0.8153476715087891, 0.027389075607061386
11006, -0.015917062759399414, 0.04731165990233421, -0.06082186475396156, 0.004469241946935654, 0.019432561472058296, -0.03184753283858299, 7.084426761139184e-05, -0.004117520060390234, 0.9996755719184875, -0.7044920921325684, -0.817365288734436, 0.027483953163027763, 0.0, 0.0, 0.0, 0, 0, 0, 0, 0, 0, -0.7044920921325684, -0.817365288734436, 0.027483953163027763
11016, -0.015708619728684425, 0.0479298010468483, -0.05988133326172829, 0.0509144626557827, 0.11452934145927429, 0.057643190026283264, -0.000889424467459321, -0.0046841539442539215, 1.0002814531326294, -0.7064623832702637, -0.8193865418434143, 0.02757837623357773, 0.0, 0.0, 0.0, 0, 0, 0, 0, 0, 0, -0.7064623832702637, -0.8193865418434143, 0.02757837623357773
11026, -0.016375914216041565, 0.04747723415493965, -0.05942152813076973, -0.10841717571020126, 0.007379832211881876, 0.2401597499847412, -0.002976124407723546, -0.0019394105765968561, 0.9993253946304321, -0.7084342837333679, -0.8214117884635925, 0.027672559022903442, 0.0, 0.0, 0.0, 0, 0, 0, 0, 0, 0, -0.7084342837333679, -0.8214117884635925, 0.027672559022903442
11036, -0.016270004212856293, 0.045123785734176636, -0.0595775842666626, 0.06620703637599945, 0.3016328513622284, 0.012708100490272045, -0.0020471964962780476, -0.00397663377225399, 0.9992455840110779, -0.7104088664054871, -0.8234402537345886, 0.027766434475779533, 0.0, 0.0, 0.0, 0, 0, 0, 0, 0, 0, -0.7104088664054871, -0.8234402537345886, 0.027766434475779533
11046, -0.015710270032286644, 0.04524253308773041, -0.05922690033912659, 0.03398137912154198, -0.017812537029385567, 0.0688616931438446, 0.0005382095696404576, -0.0024983780458569527, 0.9998857975006104, -0.7123864889144897, -0.8254716396331787, 0.027859706431627274, 0.0, 0.0, 0.0, 0, 0, 0, 0, 0, 0, -0.7123864889144897, -0.8254716396331787, 0.027859706431627274
11056, -0.016609961166977882, 0.04541020840406418, -0.061164021492004395, -0.2529734969139099, -0.011320164427161217, -0.2537738084793091, 0.0001265360479010269, -0.0027341460809111595, 1.0000499486923218, -0.7143656015396118, -0.8275060653686523, 0.027952536940574646, 0.0, 0.0, 0.0, 0, 0, 0, 0, 0, 0, -0.7143656015396118, -0.8275060653686523, 0.027952536940574646
11066, -0.016358260065317154, 0.04656645655632019, -0.06097806617617607, 0.12252108752727509, -0.11075501888990402, -0.03491978347301483, -0.003974482882767916, -0.002222249982878566, 1.0028127431869507, -0.7163453102111816, -0.829542875289917, 0.02804531715810299, 0.0, 0.0, 0.0, 0, 0, 0, 0, 0, 0, -0.7163453102111816, -0.829542875289917, 0.02804531715810299
11076, -0.016251593828201294, 0.04725708067417145, -0.06122181564569473, 0.03999277204275131, -0.04105543717741966, -0.06404900550842285, -0.0034500155597925186, -4.2966374167008325e-05, 1.0005793571472168, -0.7183274030685425, -0.8315819501876831, 0.028139416128396988, 0.0, 0.0, 0.0, 0, 0, 0, 0, 0, 0, -0.7183274030685425, -0.8315819501876831, 0.028139416128396988
11086, -0.015451384708285332, 0.047292668372392654, -0.06094096601009369, 0.13595633208751678, -0.14905986189842224, 0.13341744244098663, -0.001891969470307231, -0.0020929821766912937, 0.9991632699966431, -0.720313549041748, -0.8336222171783447, 0.02823505736887455, 0.0, 0.0, 0.0, 0, 0, 0, 0, 0, 0, -0.720313549041748, -0.8336222171783447, 0.02823505736887455
11096, -0.01493154838681221, 0.048115842044353485, -0.06141887232661247, 0.0024399631656706333, -0.36551639437675476, -0.08041739463806152, -0.00017830000433605164, -0.0033875862136483192, 1.0019326210021973, -0.7223032712936401, -0.8356633186340332, 0.02833079732954502, 0.0, 0.0, 0.0, 0, 0, 0, 0, 0, 0, -0.7223032712936401, -0.8356633186340332, 0.02833079732954502
11106, -0.01528511755168438, 0.047264304012060165, -0.061092764139175415, -0.02788034826517105, -0.011894656345248222, 0.0849652886390686, -0.0005866507417522371, -0.0030501894652843475, 1.0014482736587524, -0.7242950797080994, -0.8377066254615784, 0.02842715010046959, 0.0, 0.0, 0.0, 0, 0, 0, 0, 0, 0, -0.7242950797080994, -0.8377066254615784, 0.02842715010046959
11116, -0.01546874362975359, 0.04923323169350624, -0.061261557042598724, 0.03313007950782776, -0.29127076268196106, 0.0012630269629880786, -0.0014807707630097866, -0.0006048354553058743, 1.0011096000671387, -0.7262881994247437, -0.8397527933120728, 0.02852514013648033, 0.0, 0.0, 0.0, 0, 0, 0, 0, 0, 0, -0.7262881994247437, -0.8397527933120728, 0.02852514013648033
11126, -0.015633845701813698, 0.04985468462109566, -0.062073156237602234, -0.0574348047375679, -0.07250034809112549, -0.10185335576534271, -0.0009065623744390905, -0.0019167287973687053, 1.0004849433898926, -0.7282832264900208, -0.8418007493019104, 0.028624599799513817, 0.0, 0.0, 0.0, 0, 0, 0, 0, 0, 0, -0.7282832264900208, -0.8418007493019104, 0.028624599799513817
11136, -0.014931843616068363, 0.049902208149433136, -0.06329395622015, 0.052681438624858856, -0.21426922082901, -0.42197030782699585, -0.0007762516615912318, -0.001069313264451921, 1.002307415008545, -0.7302802801132202, -0.8438498973846436, 0.0287249144166708, 0.0, 0.0, 0.0, 0, 0, 0, 0, 0, 0, -0.7302802801132202, -0.8438498973846436, 0.0287249144166708
11146, -0.01647610403597355, 0.050932738929986954, -0.063115194439888, -0.21163153648376465, -0.1778162121772766, -0.16626590490341187, -0.00428364472463727, -0.0010538066271692514, 1.0039002895355225, -0.7322791814804077, -0.8459000587463379, 0.02882649563252926, 0.0, 0.0, 0.0, 0, 0, 0, 0, 0, 0, -0.7322791814804077, -0.8459000587463379, 0.02882649563252926
11156, -0.016288038343191147, 0.051116615533828735, -0.0636809766292572, 0.08759990334510803, -0.03130314126610756, -0.020157136023044586, -0.0026030607987195253, -0.0038761026225984097, 0.9996009469032288, -0.7342814207077026, -0.8479509949684143, 0.028930796310305595, 0.0, 0.0, 0.0, 0, 0, 0, 0, 0, 0, -0.7342814207077026, -0.8479509949684143, 0.028930796310305595
11166, -0.015939420089125633, 0.05106937140226364, -0.06383117288351059, -0.025692641735076904, 0.11128648370504379, -0.0915529653429985, -0.0018126890063285828, -0.004339197650551796, 1.0008593797683716, -0.7362878918647766, -0.8500040769577026, 0.02903677336871624, 0.0, 0.0, 0.0, 0, 0, 0, 0, 0, 0, -0.7362878918647766, -0.8500040769577026, 0.02903677336871624
11176, -0.014704891480505466, 0.051712919026613235, -0.06448312103748322, 0.11847828328609467, -0.009814199060201645, -0.24815620481967926, -0.002950814086943865, -0.003462058724835515, 1.000569462776184, -0.7382975816726685, -0.852060854434967, 0.029143134132027626, 0.0, 0.0, 0.0, 0, 0, 0, 0, 0, 0, -0.7382975816726685, -0.852060854434967, 0.029143134132027626
11186, -0.013750874437391758, 0.05098111554980278, -0.06358050554990768, 0.08737484365701675, 0.07593941688537598, 0.13433359563350677, -0.003194156801328063, -0.0038846321403980255, 0.9987357258796692, -0.7403103709220886, -0.8541213274002075, 0.029250143095850945, 0.0, 0.0, 0.0, 0, 0, 0, 0, 0, 0, -0.7403103709220886, -0.8541213274002075, 0.029250143095850945
11196, -0.013321627862751484, 0.04957249015569687, -0.06288577616214752, -0.0022834273986518383, 0.18697413802146912, 0.16210949420928955, -0.0024593935813754797, -0.003286847611889243, 1.0013747215270996, -0.7423268556594849, -0.8561851978302002, 0.029356982558965683, 0.0, 0.0, 0.0, 0, 0, 0, 0, 0, 0, -0.7423268556594849, -0.8561851978302002, 0.029356982558965683
11206, -0.012947949580848217, 0.05074213072657585, -0.06309034675359726, -0.0022911587730050087, -0.19261585175991058, -0.1022101640701294, -0.004094994626939297, -0.001823302125558257, 1.0007883310317993, -0.7443470358848572, -0.8582523465156555, 0.0294639952480793, 0.0, 0.0, 0.0, 0, 0, 0, 0, 0, 0, -0.7443470358848572, -0.8582523465156555, 0.0294639952480793
11216, -0.013951762579381466, 0.04930533841252327, -0.06397058814764023, -0.2551685869693756, 0.0858311578631401, -0.2581474184989929, -0.0029555202927440405, -0.0017426430713385344, 1.0011260509490967, -0.7463710904121399, -0.8603218197822571, 0.02957218326628208, 0.0, 0.0, 0.0, 0, 0, 0, 0, 0, 0, -0.7463710904121399, -0.8603218197822571, 0.02957218326628208
11226, -0.013502479530870914, 0.05022694543004036, -0.06394308805465698, 0.056566640734672546, -0.23499295115470886, -0.1943942755460739, -0.0008882435504347086, -0.00010647114686435089, 1.0006077289581299, -0.7483991384506226, -0.8623927235603333, 0.029681507498025894, 0.0, 0.0, 0.0, 0, 0, 0, 0, 0, 0, -0.7483991384506226, -0.8623927235603333, 0.029681507498025894
11236, -0.014305348508059978, 0.049188870936632156, -0.06332416087388992, -0.24974067509174347, -0.03593628108501434, -0.06273888796567917, -0.002214054809883237, -0.0005464352434501052, 0.9997317790985107, -0.7504298686981201, -0.8644644021987915, 0.029791735112667084, 0.0, 0.0, 0.0, 0, 0, 0, 0, 0, 0, -0.7504298686981201, -0.8644644021987915, 0.029791735112667084
11246, -0.0134787792339921, 0.047897785902023315, -0.0626324862241745, 0.046852290630340576, 0.2183832824230194, 0.25716081261634827, -0.005052322056144476, -0.0032696372363716364, 0.9990977644920349, -0.7524632215499878, -0.8665363788604736, 0.02990221418440342, 0.0, 0.0, 0.0, 0, 0, 0, 0, 0, 0, -0.7524632215499878, -0.8665363788604736, 0.02990221418440342
11256, -0.013495095074176788, 0.047009844332933426, -0.06292393058538437, -0.00753646669909358, 0.20269668102264404, 0.025520682334899902, -0.002398543292656541, -0.004626710899174213, 0.9980494379997253, -0.7545011043548584, -0.8686097860336304, 0.030012132599949837, 0.0, 0.0, 0.0, 0, 0, 0, 0, 0, 0, -0.7545011043548584, -0.8686097860336304, 0.030012132599949837
11266, -0.01287025585770607, 0.048474039882421494, -0.061752770096063614, 0.05927871912717819, -0.21256068348884583, 0.041007865220308304, -0.0020786330569535494, -0.0031728101894259453, 1.0013576745986938, -0.7565435767173767, -0.8706865906715393, 0.030120737850666046, 0.0, 0.0, 0.0, 0, 0, 0, 0, 0, 0, -0.7565435767173767, -0.8706865906715393, 0.030120737850666046
11276, -0.013232785277068615, 0.04995950311422348, -0.06174967437982559, -0.05501125007867813, -0.1571008861064911, -0.043303001672029495, -0.0035912469029426575, -0.0019422791665419936, 0.9999330639839172, -0.7585891485214233, -0.8727670311927795, 0.030228938907384872, 0.0, 0.0, 0.0, 0, 0, 0, 0, 0, 0, -0.7585891485214233, -0.8727670311927795, 0.030228938907384872
11286, -0.013270856812596321, 0.04926323518157005, -0.06115429475903511, -0.1032831147313118, 0.08014325797557831, 0.008237683214247227, -0.0013554171891883016, -0.001866075093857944, 0.9987248778343201, -0.7606379389762878, -0.8748499751091003, 0.03033767268061638, 0.0, 0.0, 0.0, 0, 0, 0, 0, 0, 0, -0.7606379389762878, -0.8748499751091003, 0.03033767268061638
11296, -0.013501394540071487, 0.04996304586529732, -0.06197379156947136, -0.12350139021873474, -0.11216988414525986, -0.29681721329689026, -0.0022576868068426847, -0.001185247441753745, 1.0010632276535034, -0.7626899480819702, -0.8769347667694092, 0.0304461307823658, 0.0, 0.0, 0.0, 0, 0, 0, 0, 0, 0, -0.7626899480819702, -0.8769347667694092, 0.0304461307823658
11306, -0.01281705778092146, 0.049861639738082886, -0.06205778196454048, 0.11018537729978561, 0.1582692563533783, -0.11568449437618256, -0.002498207613825798, -0.001835977891460061, 1.000441312789917, -0.764744758605957, -0.8790209293365479, 0.03055466152727604, 0.0, 0.0, 0.0, 0, 0, 0, 0, 0, 0, -0.764744758605957, -0.8790209293365479, 0.03055466152727604
11316, -0.013286180794239044, 0.05085594952106476, -0.06264178454875946, -0.1201457530260086, -0.11356284469366074, -0.028927184641361237, -0.0016829839441925287, -0.003725458402186632, 0.9998356699943542, -0.7668026685714722, -0.8811085224151611, 0.030663978308439255, 0.0, 0.0, 0.0, 0, 0, 0, 0, 0, 0, -0.7668026685714722, -0.8811085224151611, 0.030663978308439255
11326, -0.014048077166080475, 0.05089922621846199, -0.06368356198072433, -0.06173957884311676, -0.05292532593011856, -0.18399710953235626, 0.0008834954351186752, -0.0012423505540937185, 1.0006083250045776, -0.7688634395599365, -0.883198618888855, 0.030773619189858437, 0.0, 0.0, 0.0, 0, 0, 0, 0, 0, 0, -0.7688634395599365, -0.883198618888855, 0.030773619189858437
11336, -0.014606185257434845, 0.04926767945289612, -0.06332217156887054, 0.026376698166131973, 0.18861158192157745, -0.08358180522918701, -0.00017237175779882818, -0.003815755248069763, 1.00187349319458, -0.7709255218505859, -0.8852910995483398, 0.030883576720952988, 0.0, 0.0, 0.0, 0, 0, 0, 0, 0, 0, -0.7709255218505859, -0.8852910995483398, 0.030883576720952988
11346, -0.015072040259838104, 0.05032883957028389, -0.06182297319173813, 0.09012037515640259, -0.0656152069568634, 0.14617325365543365, -0.0013244894798845053, -0.0028396269772201777, 1.0000473260879517, -0.7729882597923279, -0.8873858451843262, 0.030994664877653122, 0.0, 0.0, 0.0, 0, 0, 0, 0, 0, 0, -0.7729882597923279, -0.8873858451843262, 0.030994664877653122
11356, -0.014956322498619556, 0.051048170775175095, -0.062072914093732834, 0.13525649905204773, -0.02600967511534691, -0.08651400357484818, -0.0012004837626591325, -0.0027055039536207914, 1.0015068054199219, -0.7750524282455444, -0.889483630657196, 0.031106775626540184, 0.0, 0.0, 0.0, 0, 0, 0, 0, 0, 0, -0.7750524282455444, -0.889483630657196, 0.031106775626540184
11366, -0.01526749785989523, 0.04823078215122223, -0.06136121600866318, 0.09949128329753876, 0.4272601306438446, 0.06732477992773056, -0.0029870737344026566, -0.0024828892201185226, 1.0009980201721191, -0.7771185636520386, -0.8915839791297913, 0.031219836324453354, 0.0, 0.0, 0.0, 0, 0, 0, 0, 0, 0, -0.7771185636520386, -0.8915839791297913, 0.031219836324453354
11376, -0.015231369063258171, 0.04726444557309151, -0.06130479276180267, -0.007401520851999521, 0.10360632836818695, -0.08424758911132812, -0.0027087845373898745, -0.0024445101153105497, 0.999702513217926, -0.7791875004768372, -0.8936866521835327, 0.03133399412035942, 0.0, 0.0, 0.0, 0, 0, 0, 0, 0, 0, -0.7791875004768372, -0.8936866521835327, 0.03133399412035942
11386, -0.014417306520044804, 0.044240355491638184, -0.061506375670433044, 0.0741855725646019, 0.2714216411113739, -0.005525965243577957, -0.0032473576720803976, -0.0010782908648252487, 0.9999988675117493, -0.781260073184967, -0.8957915902137756, 0.03144828602671623, 0.0, 0.0, 0.0, 0, 0, 0, 0, 0, 0, -0.781260073184967, -0.8957915902137756, 0.03144828602671623
11396, -0.013833052478730679, 0.043953243643045425, -0.061361461877822876, 0.10131467878818512, -0.09272240102291107, 0.03830932453274727, -0.00370083749294281, -0.0017586093163117766, 1.0015649795532227, -0.7833364009857178, -0.8978981971740723, 0.03156253322958946, 0.0, 0.0, 0.0, 0, 0, 0, 0, 0, 0, -0.7833364009857178, -0.8978981971740723, 0.03156253322958946
11406, -0.014201990328729153, 0.04361332580447197, -0.06200062483549118, -0.04969879984855652, -0.04501859471201897, -0.08157502114772797, -0.0021904045715928078, -0.0033535442780703306, 0.998357892036438, -0.785416841506958, -0.9000060558319092, 0.03167753294110298, 0.0, 0.0, 0.0, 0, 0, 0, 0, 0, 0, -0.785416841506958, -0.9000060558319092, 0.03167753294110298
11416, -0.013771690428256989, 0.04103150963783264, -0.06206659972667694, 0.007715961430221796, 0.4265497624874115, -0.1007736474275589, -0.005284056067466736, -0.00120839336887002, 0.9988048076629639, -0.7875010371208191, -0.902116060256958, 0.03179243206977844, 0.0, 0.0, 0.0, 0, 0, 0, 0, 0, 0, -0.7875010371208191, -0.902116060256958, 0.03179243206977844
11426, -0.013459885492920876, 0.04520149156451225, -0.061227358877658844, -0.020030992105603218, -0.666766345500946, 0.02465222217142582, -0.003129513468593359, -0.0007549363654106855, 0.9979478120803833, -0.7895896434783936, -0.9042280912399292, 0.03190607577562332, 0.0, 0.0, 0.0, 0, 0, 0, 0, 0, 0, -0.7895896434783936, -0.9042280912399292, 0.03190607577562332
11436, -0.012615024112164974, 0.04470020532608032, -0.06094490736722946, 0.1984986513853073, -0.044540900737047195, -0.012302668765187263, -0.001801328849978745, -0.0021760202944278717, 0.9992326498031616, -0.7916830778121948, -0.9063410758972168, 0.032018162310123444, 0.0, 0.0, 0.0, 0, 0, 0, 0, 0, 0, -0.7916830778121948, -0.9063410758972168, 0.032018162310123444
11446, -0.012791736982762814, 0.04584106430411339, -0.06036743149161339, -0.04489291459321976, -0.26234108209609985, 0.09076282382011414, -0.0028098556213080883, -0.003337171161547303, 1.0000407695770264, -0.7937797904014587, -0.9084553122520447, 0.03212888166308403, 0.0, 0.0, 0.0, 0, 0, 0, 0, 0, 0, -0.7937797904014587, -0.9084553122520447, 0.03212888166308403
11456, -0.012649067677557468, 0.04499034583568573, -0.05945054441690445, 0.036575816571712494, 0.08699428290128708, 0.0353824608027935, -0.004662191029638052, -0.002566916635259986, 0.9985498785972595, -0.7958795428276062, -0.9105719327926636, 0.03223908320069313, 0.0, 0.0, 0.0, 0, 0, 0, 0, 0, 0, -0.7958795428276062, -0.9105719327926636, 0.03223908320069313
11466, -0.011966818012297153, 0.046112701296806335, -0.058633703738451004, 0.0829336941242218, -0.16864748299121857, 0.15825945138931274, -0.0028816587291657925, -0.001421283814124763, 0.9978281855583191, -0.7979835271835327, -0.9126912355422974, 0.032348595559597015, 0.0, 0.0, 0.0, 0, 0, 0, 0, 0, 0, -0.7979835271835327, -0.9126912355422974, 0.032348595559597015
11476, -0.011509649455547333, 0.04640650376677513, -0.05917869135737419, -0.012584538199007511, 0.03717316314578056, -0.0953567773103714, -0.0014382097870111465, -0.0007468356052413583, 1.002527117729187, -0.8000919222831726, -0.9148123264312744, 0.032456714659929276, 0.0, 0.0, 0.0, 0, 0, 0, 0, 0, 0, -0.8000919222831726, -0.9148123264312744, 0.032456714659929276
11486, -0.010820765979588032, 0.04753350466489792, -0.05839953571557999, 0.08196885883808136, -0.18459650874137878, 0.20010121166706085, -0.0012718394864350557, -0.0008740940247662365, 1.0015242099761963, -0.8022032976150513, -0.9169342517852783, 0.0325649119913578, 0.0, 0.0, 0.0, 0, 0, 0, 0, 0, 0, -0.8022032976150513, -0.9169342517852783, 0.0325649119913578
11496, -0.011181170120835304, 0.048273518681526184, -0.0591442734003067, 0.0013807795476168394, -0.20126977562904358, -0.05919097736477852, -0.002195612993091345, -0.0026686524506658316, 1.0014324188232422, -0.8043169975280762, -0.9190566539764404, 0.032674774527549744, 0.0, 0.0, 0.0, 0, 0, 0, 0, 0, 0, -0.8043169975280762, -0.9190566539764404, 0.032674774527549744
11506, -0.009600597433745861, 0.04731902852654457, -0.059056755155324936, 0.2339327186346054, 0.1293598711490631, -0.14325200021266937, -0.0016051589045673609, -0.0033868588507175446, 1.001213550567627, -0.8064331412315369, -0.9211805462837219, 0.03278590738773346, 0.0, 0.0, 0.0, 0, 0, 0, 0, 0, 0, -0.8064331412315369, -0.9211805462837219, 0.03278590738773346
11516, -0.00951362494379282, 0.04757921025156975, -0.05825386568903923, -0.0999685525894165, 0.03627127408981323, -0.08269926905632019, -0.0014452923787757754, -0.0018842341378331184, 1.001651406288147, -0.8085519075393677, -0.9233070015907288, 0.03289822116494179, 0.0, 0.0, 0.0, 0, 0, 0, 0, 0, 0, -0.8085519075393677, -0.9233070015907288, 0.03289822116494179
11526, -0.010202300734817982, 0.047902289777994156, -0.05762593075633049, -0.10236679017543793, -0.2152307629585266, 0.040495991706848145, -0.0014336766907945275, -0.0007771310047246516, 0.9991713762283325, -0.8106731176376343, -0.9254357218742371, 0.033012039959430695, 0.0, 0.0, 0.0, 0, 0, 0, 0, 0, 0, -0.8106731176376343, -0.9254357218742371, 0.033012039959430695
11536, -0.009742970578372478, 0.048068705946207047, -0.05720708519220352, 0.07598373293876648, 0.0852665901184082, 0.15998326241970062, -0.0014143130974844098, -0.003118897555395961, 1.0016201734542847, -0.8127967715263367, -0.9275657534599304, 0.0331263430416584, 0.0, 0.0, 0.0, 0, 0, 0, 0, 0, 0, -0.8127967715263367, -0.9275657534599304, 0.0331263430416584
11546, -0.01040827576071024, 0.047064900398254395, -0.059177931398153305, -0.08991549164056778, 0.22860777378082275, -0.3074393570423126, -0.004916150122880936, -0.0016974636819213629, 1.0001658201217651, -0.8149228692054749, -0.9296976327896118, 0.033240921795368195, 0.0, 0.0, 0.0, 0, 0, 0, 0, 0, 0, -0.8149228692054749, -0.9296976327896118, 0.033240921795368195
11556, -0.009467069990932941, 0.045773088932037354, -0.05876621603965759, 0.1930261105298996, 0.14405080676078796, 0.017185937613248825, -0.0006518149166367948, 0.0007181408000178635, 1.0009828805923462, -0.8170527815818787, -0.9318317174911499, 0.03335626423358917, 0.0, 0.0, 0.0, 0, 0, 0, 0, 0, 0, -0.8170527815818787, -0.9318317174911499, 0.03335626423358917
11566, -0.010041703470051289, 0.0481860525906086, -0.05907117575407028, -0.07708077877759933, -0.46998730301856995, -0.25529932975769043, -0.0008421065285801888, -0.001049122423864901, 0.9998185634613037, -0.8191861510276794, -0.9339663982391357, 0.03347216919064522, 0.0, 0.0, 0.0, 0, 0, 0, 0, 0, 0, -0.8213211297988892, -0.9361011981964111, 0.03358875587582588
11576, -0.009896069765090942, 0.05002303421497345, -0.059150662273168564, -0.002991253510117531, -0.3013109266757965, 0.03709213435649872, -0.0027134690899401903, -0.002299071289598942, 0.9997294545173645, -0.8213211297988892, -0.9361011981964111, 0.03358875587582588, 0.0, 0.0, 0.0, 0, 0, 0, 0, 0, 0, -0.8234583735466003, -0.9382374286651611, 0.03370548039674759
11586, -0.008020809851586819, 0.04935844615101814, -0.058218229562044144, 0.20917730033397675, 0.021912956610322, 0.09050845354795456, -0.0030106124468147755, -0.004902730695903301, 1.0000931024551392, -0.8234583735466003, -0.9382374286651611, 0.03370548039674759, 0.0, 0.0, 0.0, 0, 0, 0, 0, 0, 0, -0.8255993723869324, -0.9403766393661499, 0.03382207080721855
11596, -0.007813787087798119, 0.050722572952508926, -0.058736421167850494, 0.004628149792551994, -0.155029296875, -0.20636415481567383, -0.004065189976245165, -0.0019984995014965534, 1.0013525485992432, -0.8255993723869324, -0.9403766393661499, 0.03382207080721855, 0.0, 0.0, 0.0, 0, 0, 0, 0, 0, 0, -0.8277449011802673, -0.9425191283226013, 0.033939097076654434
11606, -0.008180671371519566, 0.049842339009046555, -0.0580131821334362, 0.009963786229491234, 0.11247480660676956, 0.10914083570241928, -0.0034251867327839136, -0.0012373290956020355, 1.0012239217758179, -0.8277449011802673, -0.9425191283226013, 0.033939097076654434, 0.0, 0.0, 0.0, 0, 0, 0, 0, 0, 0, -0.82989501953125, -0.944663405418396, 0.03405735269188881
11616, -0.00762488879263401, 0.05134883150458336, -0.057782456278800964, 0.20351186394691467, -0.11954562366008759, 0.1259860098361969, -0.001429619500413537, -0.003358386689797044, 1.0012727975845337, -0.82989501953125, -0.944663405418396, 0.03405735269188881, 0.0, 0.0, 0.0, 0, 0, 0, 0, 0, 0, -0.8320486545562744, -0.9468096494674683, 0.03417700529098511
11626, -0.0077526443637907505, 0.04967475309967995, -0.05745629593729973, 0.0003535588039085269, 0.38486671447753906, 0.06314367800951004, -0.0028896869625896215, -0.005103606730699539, 0.9999097585678101, -0.8320486545562744, -0.9468096494674683, 0.03417700529098511, 0.0, 0.0, 0.0, 0, 0, 0, 0, 0, 0, -0.8342052102088928, -0.9489598274230957, 0.034297313541173935
11636, -0.008836762048304081, 0.04981743544340134, -0.05811374634504318, -0.1836274415254593, 0.11127737164497375, -0.15983237326145172, -0.0016870825784280896, -0.0029350656550377607, 1.0008856058120728, -0.8342052102088928, -0.9489598274230957, 0.034297313541173935, 0.0, 0.0, 0.0, 0, 0, 0, 0, 0, 0, -0.83636474609375, -0.9511141777038574, 0.034418024122714996
11646, -0.009885652922093868, 0.04945868253707886, -0.05795072391629219, -0.06665527820587158, 0.06399518251419067, -0.032617781311273575, -0.0032412358559668064, -0.002373018069192767, 1.0010260343551636, -0.83636474609375, -0.9511141777038574, 0.034418024122714996, 0.0, 0.0, 0.0, 0, 0, 0, 0, 0, 0, -0.8385273814201355, -0.9532713294029236, 0.034539639949798584
11656, -0.010291073471307755, 0.050347600132226944, -0.058386173099279404, 0.030046287924051285, -0.1922825574874878, -0.24574416875839233, -0.0033885561861097813, -0.0025830308441072702, 1.0003292560577393, -0.8385273814201355, -0.9532713294029236, 0.034539639949798584, 0.0, 0.0, 0.0, 0, 0, 0, 0, 0, 0, -0.8406939506530762, -0.9554306268692017, 0.034661829471588135
11666, -0.00958604458719492, 0.05142901837825775, -0.05860409513115883, 0.08837587386369705, -0.13267244398593903, -0.05724864825606346, -0.0025334449019283056, -0.0026607285253703594, 0.9995110630989075, -0.8406939506530762, -0.9554306268692017, 0.034661829471588135, 0.0, 0.0, 0.0, 0, 0, 0, 0, 0, 0, -0.8406939506530762, -0.9554306268692017, 0.034661829471588135
11676, -0.009924260899424553, 0.052051618695259094, -0.057286154478788376, -0.08056274056434631, -0.19161070883274078, 0.1323184221982956, -0.001312767039053142, -0.0025294232182204723, 0.9991589784622192, -0.8430814743041992, -0.9578086733818054, 0.03479596599936485, 0.0, 0.0, 0.0, 0, 0, 0, 0, 0, 0, -0.8430814743041992, -0.9578086733818054, 0.03479596599936485
11686, -0.009083732031285763, 0.0530281588435173, -0.059048209339380264, 0.040772926062345505, 0.026231378316879272, -0.2737007737159729, -0.0033942258451133966, -0.003757983911782503, 1.0010613203048706, -0.8452548980712891, -0.9599732756614685, 0.03491731360554695, 0.0, 0.0, 0.0, 0, 0, 0, 0, 0, 0, -0.8452548980712891, -0.9599732756614685, 0.03491731360554695
11696, -0.00951495673507452, 0.053966011852025986, -0.06016456335783005, -0.031293969601392746, -0.035972967743873596, -0.09466022253036499, -0.003469540737569332, -0.002143055899068713, 1.0017836093902588, -0.8474316596984863, -0.962140679359436, 0.0350390262901783, 0.0, 0.0, 0.0, 0, 0, 0, 0, 0, 0, -0.8474316596984863, -0.962140679359436, 0.0350390262901783
11706, -0.009746710769832134, 0.0518776960670948, -0.061612632125616074, -0.05653136223554611, 0.4064967930316925, -0.21009625494480133, -0.000855585909448564, -0.002052449155598879, 0.9999481439590454, -0.8496127128601074, -0.9643106460571289, 0.03516221418976784, 0.0, 0.0, 0.0, 0, 0, 0, 0, 0, 0, -0.8496127128601074, -0.9643106460571289, 0.03516221418976784
11716, -0.010145491920411587, 0.049432624131441116, -0.061728183180093765, -0.0577080212533474, 0.21695831418037415, -0.04280039668083191, 0.0008062724955379963, -0.0017572649521753192, 0.9983203411102295, -0.8517968058586121, -0.9664825201034546, 0.035286132246255875, 0.0, 0.0, 0.0, 0, 0, 0, 0, 0, 0, -0.8517968058586121, -0.9664825201034546, 0.035286132246255875
11726, -0.010642927139997482, 0.05064258724451065, -0.0626678392291069, -0.05106021463871002, -0.173959419131279, -0.030455956235527992, -0.0013178656809031963, -0.004331496544182301, 0.9984872937202454, -0.8539820313453674, -0.9686561226844788, 0.03540913388133049, 0.0, 0.0, 0.0, 0, 0, 0, 0, 0, 0, -0.8539820313453674, -0.9686561226844788, 0.03540913388133049
11736, -0.009711848571896553, 0.05009210482239723, -0.06275272369384766, 0.11253118515014648, 0.02785848267376423, 0.0312805101275444, -0.002720485208556056, -0.0048401798121631145, 1.001226544380188, -0.8561685085296631, -0.9708326458930969, 0.0355307012796402, 0.0, 0.0, 0.0, 0, 0, 0, 0, 0, 0, -0.8561685085296631, -0.9708326458930969, 0.0355307012796402
11746, -0.0096988994628191, 0.051568299531936646, -0.06450722366571426, -0.009571889415383339, -0.1706312745809555, -0.29034411907196045, -0.003815689589828253, -0.0030008673202246428, 1.0013171434402466, -0.8583577871322632, -0.9730134606361389, 0.035652123391628265, 0.0, 0.0, 0.0, 0, 0, 0, 0, 0, 0, -0.8583577871322632, -0.9730134606361389, 0.035652123391628265
11756, -0.01030660793185234, 0.05102110281586647, -0.06480282545089722, -0.001698773936368525, 0.1598668396472931, -0.04272846505045891, -0.0019372656242921948, -0.0038762271869927645, 1.0014137029647827, -0.8605508804321289, -0.9751982092857361, 0.03577469289302826, 0.0, 0.0, 0.0, 0, 0, 0, 0, 0, 0, -0.8605508804321289, -0.9751982092857361, 0.03577469289302826
11766, -0.010269705206155777, 0.05127624422311783, -0.065196692943573, 0.13606402277946472, -0.07913167774677277, -0.07652455568313599, -0.0020274303387850523, -0.0024829956237226725, 1.0011178255081177, -0.8627474904060364, -0.9773863554000854, 0.035898782312870026, 0.0, 0.0, 0.0, 0, 0, 0, 0, 0, 0, -0.8627474904060364, -0.9773863554000854, 0.035898782312870026
11776, -0.011746247299015522, 0.05144190415740013, -0.0650358721613884, -0.056109778583049774, -0.17430542409420013, 0.06479169428348541, -0.0006160976481623948, -0.002291248179972172, 1.0001693964004517, -0.864946722984314, -0.9795777201652527, 0.036024220287799835, 0.0, 0.0, 0.0, 0, 0, 0, 0, 0, 0, -0.864946722984314, -0.9795777201652527, 0.036024220287799835
11786, -0.011262915097177029, 0.05134885385632515, -0.0640132948756218, 0.09571728110313416, -0.048387836664915085, 0.1738545447587967, -0.001425298280082643, -0.0019696694798767567, 1.0006345510482788, -0.8671479225158691, -0.9817716479301453, 0.036150313913822174, 0.0, 0.0, 0.0, 0, 0, 0, 0, 0, 0, -0.8671479225158691, -0.9817716479301453, 0.036150313913822174
11796, -0.011272926814854145, 0.05162561312317848, -0.06394722312688828, -0.07651183009147644, 0.03397443890571594, -0.1202114149928093, -0.00448875455185771, -0.0021854827646166086, 1.0011515617370605, -0.8693512082099915, -0.9839677214622498, 0.03627678379416466, 0.0, 0.0, 0.0, 0, 0, 0, 0, 0, 0, -0.8693512082099915, -0.9839677214622498, 0.03627678379416466
11806, -0.011732880026102066, 0.05133650824427605, -0.06378962099552155, -0.06997622549533844, 0.12104302644729614, -0.01159040816128254, -0.004267610143870115, -0.003751609241589904, 0.9990871548652649, -0.8715583086013794, -0.9861658811569214, 0.03640388697385788, 0.0, 0.0, 0.0, 0, 0, 0, 0, 0, 0, -0.8715583086013794, -0.9861658811569214, 0.03640388697385788
11816, -0.011301903985440731, 0.05242083594202995, -0.0629098191857338, 0.018897783011198044, -0.0763532742857933, 0.08784760534763336, -0.0034820628352463245, -0.0024324916303157806, 1.0001567602157593, -0.8737704753875732, -0.9883667826652527, 0.03653109073638916, 0.0, 0.0, 0.0, 0, 0, 0, 0, 0, 0, -0.8737704753875732, -0.9883667826652527, 0.03653109073638916
11826, -0.010884584859013557, 0.053156089037656784, -0.06257397681474686, 0.038027942180633545, -0.2302534431219101, -0.10104469209909439, -0.002094947500154376, -0.003631595056504011, 1.000327467918396, -0.87598717212677, -0.9905704259872437, 0.03665810450911522, 0.0, 0.0, 0.0, 0, 0, 0, 0, 0, 0, -0.87598717212677, -0.9905704259872437, 0.03665810450911522
11836, -0.011529100127518177, 0.051707200706005096, -0.06181829050183296, -0.087733194231987, 0.15314501523971558, 0.06447875499725342, -0.003699377179145813, -0.0016763504827395082, 0.9982701539993286, -0.8782076239585876, -0.9927768111228943, 0.03678526729345322, 0.0, 0.0, 0.0, 0, 0, 0, 0, 0, 0, -0.8782076239585876, -0.9927768111228943, 0.03678526729345322
11846, -0.011756991036236286, 0.05206126347184181, -0.06329917162656784, -0.10358034819364548, 0.0020391992293298244, -0.2933397591114044, -0.0026734836865216494, -0.0012861222494393587, 0.9997047185897827, -0.88043212890625, -0.9949855208396912, 0.03691177815198898, 0.0, 0.0, 0.0, 0, 0, 0, 0, 0, 0, -0.88043212890625, -0.9949855208396912, 0.03691177815198898
11856, -0.012504911981523037, 0.05132008716464043, -0.06255517899990082, -0.17991749942302704, 0.14484715461730957, 0.0956215038895607, -0.0026202674489468336, -0.002558543346822262, 0.9986671805381775, -0.8826608061790466, -0.9971957206726074, 0.037037238478660583, 0.0, 0.0, 0.0, 0, 0, 0, 0, 0, 0, -0.8826608061790466, -0.9971957206726074, 0.037037238478660583
11866, -0.01217022817581892, 0.04988088831305504, -0.0619015209376812, 0.02538478747010231, 0.11268462985754013, -0.009749050252139568, -0.0031893239356577396, -0.0019062614301219583, 0.9999369978904724, -0.8848929405212402, -0.9994078278541565, 0.037161748856306076, 0.0, 0.0, 0.0, 0, 0, 0, 0, 0, 0, -0.8848929405212402, -0.9994078278541565, 0.037161748856306076
11876, -0.012467089109122753, 0.05144866555929184, -0.06183444708585739, 0.013165690004825592, -0.14582334458827972, 0.013774463906884193, -0.0030604409985244274, -0.0017912032781168818, 1.0027997493743896, -0.8871286511421204, -1.0016220808029175, 0.03728568181395531, 0.0, 0.0, 0.0, 0, 0, 0, 0, 0, 0, -0.8871286511421204, -1.0016220808029175, 0.03728568181395531
11886, -0.011814692057669163, 0.0525042787194252, -0.06181643530726433, 0.005625822115689516, -0.03647495061159134, 0.009952589869499207, -0.0011796725448220968, -0.004424431826919317, 1.0000072717666626, -0.8893681764602661, -1.0038381814956665, 0.03741084039211273, 0.0, 0.0, 0.0, 0, 0, 0, 0, 0, 0, -0.8893681764602661, -1.0038381814956665, 0.03741084039211273
11896, -0.011391670443117619, 0.05086425691843033, -0.062252141535282135, 0.018823906779289246, 0.1344103068113327, -0.09141534566879272, -0.0030789964366704226, -0.003887040540575981, 1.001021385192871, -0.8916108012199402, -1.0060571432113647, 0.037537336349487305, 0.0, 0.0, 0.0, 0, 0, 0, 0, 0, 0, -0.8916108012199402, -1.0060571432113647, 0.037537336349487305
11906, -0.011193200014531612, 0.05169126018881798, -0.0617000050842762, -0.02828141115605831, -0.1686629056930542, 0.15800799429416656, -0.001732856617309153, -0.002932582516223192, 1.0008310079574585, -0.8938562870025635, -1.008279800415039, 0.037664491683244705, 0.0, 0.0, 0.0, 0, 0, 0, 0, 0, 0, -0.8938562870025635, -1.008279800415039, 0.037664491683244705
11916, -0.011631269007921219, 0.05299191549420357, -0.06155434995889664, -0.07511208206415176, -0.11548786610364914, -0.017540911212563515, -0.001634828862734139, -0.004177425988018513, 1.0009323358535767, -0.8961048126220703, -1.0105057954788208, 0.03779267892241478, 0.0, 0.0, 0.0, 0, 0, 0, 0, 0, 0, -0.8961048126220703, -1.0105057954788208, 0.03779267892241478
11926, -0.011420711874961853, 0.051431186497211456, -0.061502888798713684, 0.06563468277454376, -0.028891494497656822, -0.02167435735464096, -0.0020218926947563887, -0.0034821860026568174, 1.0018727779388428, -0.8983559608459473, -1.0127350091934204, 0.03792188689112663, 0.0, 0.0, 0.0, 0, 0, 0, 0, 0, 0, -0.8983559608459473, -1.0127350091934204, 0.03792188689112663
11936, -0.010564741678535938, 0.049041301012039185, -0.06108291819691658, 0.12866148352622986, 0.3058595359325409, 0.18619541823863983, -0.0030775084160268307, -0.004389640875160694, 1.000510573387146, -0.9006097316741943, -1.0149677991867065, 0.03805239126086235, 0.0, 0.0, 0.0, 0, 0, 0, 0, 0, 0, -0.9006097316741943, -1.0149677991867065, 0.03805239126086235
11946, -0.010213840752840042, 0.04919924959540367, -0.06050150468945503, 0.003321356838569045, 0.007077306509017944, 0.14257144927978516, -0.0026616412214934826, -0.002092676004394889, 0.996360719203949, -0.9028666019439697, -1.0172041654586792, 0.038183603435754776, 0.0, 0.0, 0.0, 0, 0, 0, 0, 0, 0, -0.9028666019439697, -1.0172041654586792, 0.038183603435754776
11956, -0.009486517868936062, 0.05059405043721199, -0.0614732950925827, -0.02380322851240635, -0.1745471954345703, -0.26351991295814514, -0.00012297694047447294, -0.000684538041241467, 0.9993157982826233, -0.905126690864563, -1.0194432735443115, 0.03831318020820618, 0.0, 0.0, 0.0, 0, 0, 0, 0, 0, 0, -0.905126690864563, -1.0194432735443115, 0.03831318020820618
11966, -0.008533968590199947, 0.050158705562353134, -0.06109528988599777, 0.06978968530893326, -0.10678328573703766, 0.011938627809286118, -0.0013920437777414918, -0.0020327300298959017, 1.0011801719665527, -0.9073888063430786, -1.0216835737228394, 0.0384410135447979, 0.0, 0.0, 0.0, 0, 0, 0, 0, 0, 0, -0.9073888063430786, -1.0216835737228394, 0.0384410135447979
11976, -0.009864581748843193, 0.050702910870313644, -0.06176901236176491, -0.1894579380750656, 0.06746068596839905, -0.06927593797445297, -0.0017557479441165924, -0.0021633573342114687, 1.0003122091293335, -0.9096526503562927, -1.0239250659942627, 0.03856917470693588, 0.0, 0.0, 0.0, 0, 0, 0, 0, 0, 0, -0.9096526503562927, -1.0239250659942627, 0.03856917470693588
11986, -0.010390975512564182, 0.05137144401669502, -0.06209516152739525, 0.013112690299749374, -0.09942707419395447, -0.11335612088441849, -0.0013391252141445875, -0.0033736086916178465, 0.9983831644058228, -0.9119187593460083, -1.0261683464050293, 0.03869794309139252, 0.0, 0.0, 0.0, 0, 0, 0, 0, 0, 0, -0.9119187593460083, -1.0261683464050293, 0.03869794309139252
11996, -0.009860440157353878, 0.052706029266119, -0.06258929520845413, 0.0327187217772007, -0.21272753179073334, -0.09686823189258575, -0.001663540955632925, -0.0022187151480466127, 0.9992381930351257, -0.9141871929168701, -1.028414249420166, 0.038826171308755875, 0.0, 0.0, 0.0, 0, 0, 0, 0, 0, 0, -0.9141871929168701, -1.028414249420166, 0.038826171308755875
12006, -0.009732939302921295, 0.05312275141477585, -0.06265808641910553, -0.0931917056441307, -0.012753037735819817, 0.02351045235991478, -0.004173710010945797, -0.0005722068017348647, 1.000015139579773, -0.9164583086967468, -1.0306624174118042, 0.03895353153347969, 0.0, 0.0, 0.0, 0, 0, 0, 0, 0, 0, -0.9164583086967468, -1.0306624174118042, 0.03895353153347969
12016, -0.008599072694778442, 0.052809640765190125, -0.0628034770488739, 0.10635078698396683, -0.008247955702245235, -0.13635048270225525, -0.0021326858550310135, -0.0020804456435143948, 0.9990455508232117, -0.9187331795692444, -1.032911777496338, 0.039080679416656494, 0.0, 0.0, 0.0, 0, 0, 0, 0, 0, 0, -0.9187331795692444, -1.032911777496338, 0.039080679416656494
12026, -0.009417474269866943, 0.05461031198501587, -0.0633801817893982, -0.19962161779403687, -0.04725952446460724, -0.11083763837814331, -0.0029611510690301657, -0.005569439847022295, 1.0011736154556274, -0.9210119247436523, -1.0351625680923462, 0.039207566529512405, 0.0, 0.0, 0.0, 0, 0, 0, 0, 0, 0, -0.9210119247436523, -1.0351625680923462, 0.039207566529512405
12036, -0.010455545037984848, 0.05501364544034004, -0.06251025944948196, -0.1179947778582573, -0.04530591145157814, 0.0741453617811203, -0.001560282427817583, -0.005105992779135704, 1.0018707513809204, -0.923294186592102, -1.0374171733856201, 0.039334867149591446, 0.0, 0.0, 0.0, 0, 0, 0, 0, 0, 0, -0.923294186592102, -1.0374171733856201, 0.039334867149591446
12046, -0.010716855525970459, 0.052792180329561234, -0.0616295151412487, -0.07517513632774353, 0.29414471983909607, -0.029457921162247658, 0.0007927616243250668, -0.001357505563646555, 0.9994168877601624, -0.9255795478820801, -1.0396769046783447, 0.03946373611688614, 0.0, 0.0, 0.0, 0, 0, 0, 0, 0, 0, -0.9255795478820801, -1.0396769046783447, 0.03946373611688614
12056, -0.010781945660710335, 0.05272950977087021, -0.06241922080516815, -0.04869406670331955, 0.026927202939987183, -0.058033157140016556, -0.0008608267526142299, -0.0005388203426264226, 0.9987962245941162, -0.9278663396835327, -1.041939616203308, 0.03959326073527336, 0.0, 0.0, 0.0, 0, 0, 0, 0, 0, 0, -0.9278663396835327, -1.041939616203308, 0.03959326073527336
12066, -0.011218762025237083, 0.052111897617578506, -0.06287694722414017, -0.23959313333034515, 0.20980489253997803, -0.02382318675518036, -0.00157441315241158, -0.001790402689948678, 0.9997162222862244, -0.9301542639732361, -1.0442031621932983, 0.039722051471471786, 0.0, 0.0, 0.0, 0, 0, 0, 0, 0, 0, -0.9301542639732361, -1.0442031621932983, 0.039722051471471786
12076, -0.010965699329972267, 0.05303138121962547, -0.062305375933647156, 0.014123023487627506, -0.08510484546422958, 0.011106093414127827, -0.002716823946684599, -0.0022269608452916145, 0.9998425245285034, -0.9324442744255066, -1.046467661857605, 0.03985017165541649, 0.0, 0.0, 0.0, 0, 0, 0, 0, 0, 0, -0.9324442744255066, -1.046467661857605, 0.03985017165541649
12086, -0.010701805353164673, 0.05393358692526817, -0.06250612437725067, 0.09236163645982742, -0.1322188675403595, -0.0027049430646002293, -0.004846286028623581, -0.0060252356342971325, 0.9978732466697693, -0.9347374439239502, -1.0487340688705444, 0.03997795283794403, 0.0, 0.0, 0.0, 0, 0, 0, 0, 0, 0, -0.9347374439239502, -1.0487340688705444, 0.03997795283794403
12096, -0.010687940753996372, 0.054578348994255066, -0.06301222741603851, -0.09045083075761795, 0.009323835372924805, -0.10590452700853348, -0.0033908544573932886, -0.003741402179002762, 1.0005052089691162, -0.9370353817939758, -1.051004409790039, 0.04010458290576935, 0.0, 0.0, 0.0, 0, 0, 0, 0, 0, 0, -0.9370353817939758, -1.051004409790039, 0.04010458290576935
12106, -0.011210121214389801, 0.05715882033109665, -0.06326157599687576, 0.015299971215426922, -0.3513811230659485, -0.0300077386200428, -0.0026398785412311554, -0.003085262840613723, 0.9982256293296814, -0.939338207244873, -1.0532793998718262, 0.04023027792572975, 0.0, 0.0, 0.0, 0, 0, 0, 0, 0, 0, -0.939338207244873, -1.0532793998718262, 0.04023027792572975
12116, -0.010570885613560677, 0.05697129666805267, -0.06297258287668228, 0.11253511160612106, -0.007331208325922489, 0.04164589196443558, -0.001110680284909904, -0.0024436768144369125, 1.000274896621704, -0.9416448473930359, -1.0555576086044312, 0.04035536199808121, 0.0, 0.0, 0.0, 0, 0, 0, 0, 0, 0, -0.9416448473930359, -1.0555576086044312, 0.04035536199808121
12126, -0.011400594376027584, 0.05703023448586464, -0.06462790071964264, -0.10872166603803635, -0.17551298439502716, -0.380751371383667, -0.0010051247663795948, -0.0019129951251670718, 0.999859631061554, -0.9439541101455688, -1.0578380823135376, 0.04047985002398491, 0.0, 0.0, 0.0, 0, 0, 0, 0, 0, 0, -0.9439541101455688, -1.0578380823135376, 0.04047985002398491
12136, -0.011339623481035233, 0.05776418000459671, -0.06388256698846817, -0.062470775097608566, -0.11412664502859116, 0.11428247392177582, -0.00017015408957377076, -0.0028014264535158873, 0.9988399744033813, -0.9462652206420898, -1.0601205825805664, 0.04060431569814682, 0.0, 0.0, 0.0, 0, 0, 0, 0, 0, 0, -0.9462652206420898, -1.0601205825805664, 0.04060431569814682
12146, -0.011984077282249928, 0.05793718248605728, -0.06314130127429962, -0.08950232714414597, -0.1217116042971611, -0.008088099770247936, -0.001847942708991468, -0.0017140755662694573, 1.0005875825881958, -0.948577880859375, -1.0624052286148071, 0.04072831943631172, 0.0, 0.0, 0.0, 0, 0, 0, 0, 0, 0, -0.948577880859375, -1.0624052286148071, 0.04072831943631172
12156, -0.012656676582992077, 0.060356490314006805, -0.06374479085206985, -0.006852688733488321, -0.11199093610048294, -0.12087205052375793, -0.0017270357348024845, -0.0027455217204988003, 0.9978044033050537, -0.950892448425293, -1.0646919012069702, 0.040852006524801254, 0.0, 0.0, 0.0, 0, 0, 0, 0, 0, 0, -0.950892448425293, -1.0646919012069702, 0.040852006524801254
12166, -0.013142514042556286, 0.06005237251520157, -0.06322252750396729, 0.016787827014923096, -0.009527580812573433, 0.2793366312980652, -0.003464791225269437, -0.00383642571978271, 1.000100016593933, -0.9532097578048706, -1.0669807195663452, 0.040974851697683334, 0.0, 0.0, 0.0, 0, 0, 0, 0, 0, 0, -0.9532097578048706, -1.0669807195663452, 0.040974851697683334
12176, -0.013098780065774918, 0.05935029685497284, -0.06338328868150711, -0.055503085255622864, 0.09663309901952744, 0.04589450731873512, -0.0048928759060800076, -0.0026750315446406603, 0.9998015761375427, -0.9555306434631348, -1.0692726373672485, 0.0410967618227005, 0.0, 0.0, 0.0, 0, 0, 0, 0, 0, 0, -0.9555306434631348, -1.0692726373672485, 0.0410967618227005
12186, -0.01336184237152338, 0.05861271917819977, -0.06262360513210297, -0.04081527143716812, 0.1392073780298233, 0.26391005516052246, -0.0034732623025774956, -0.002013209043070674, 0.9992733597755432, -0.9578565955162048, -1.0715676546096802, 0.04121857136487961, 0.0, 0.0, 0.0, 0, 0, 0, 0, 0, 0, -0.9578565955162048, -1.0715676546096802, 0.04121857136487961
12196, -0.01453227736055851, 0.05580771341919899, -0.06394747644662857, -0.25150710344314575, 0.15231749415397644, -0.25974106788635254, -0.003707275493070483, -0.001712404191493988, 1.0007777214050293, -0.9601877331733704, -1.0738646984100342, 0.04133979231119156, 0.0, 0.0, 0.0, 0, 0, 0, 0, 0, 0, -0.9601877331733704, -1.0738646984100342, 0.04133979231119156
12206, -0.014642500318586826, 0.05539882555603981, -0.06323477625846863, 0.057646557688713074, 0.010742908343672752, 0.11745491623878479, -0.0008554949890822172, -0.0022815975826233625, 0.9990736842155457, -0.9625232815742493, -1.076163411140442, 0.041460663080215454, 0.0, 0.0, 0.0, 0, 0, 0, 0, 0, 0, -0.9625232815742493, -1.076163411140442, 0.041460663080215454
12216, -0.014265112578868866, 0.05594318360090256, -0.06492848694324493, -0.044330645352602005, -0.18945327401161194, -0.41251981258392334, -0.0029431486036628485, -0.0020889004226773977, 0.9987022280693054, -0.9648621082305908, -1.078464150428772, 0.0415811762213707, 0.0, 0.0, 0.0, 0, 0, 0, 0, 0, 0, -0.9648621082305908, -1.078464150428772, 0.0415811762213707
12226, -0.01496117189526558, 0.0533941276371479, -0.06402746587991714, -0.28656795620918274, 0.20601479709148407, 0.08788862079381943, -0.0032792878337204456, -0.0017203250899910927, 0.9986754059791565, -0.9672038555145264, -1.0807669162750244, 0.041700419038534164, 0.0, 0.0, 0.0, 0, 0, 0, 0, 0, 0, -0.9672038555145264, -1.0807669162750244, 0.041700419038534164
12236, -0.014823045581579208, 0.052210066467523575, -0.06440114229917526, -0.08569979667663574, 0.057693254202604294, -0.06802111864089966, -0.0013496190076693892, -0.004008742514997721, 0.99964439868927, -0.9695494174957275, -1.083071231842041, 0.041818298399448395, 0.0, 0.0, 0.0, 0, 0, 0, 0, 0, 0, -0.9695494174957275, -1.083071231842041, 0.041818298399448395
12246, -0.01456023845821619, 0.05417829006910324, -0.06482269614934921, 0.01846848800778389, -0.3142412006855011, -0.04506859555840492, -0.002024170011281967, -0.004982649348676205, 0.9997588992118835, -0.9718982577323914, -1.0853780508041382, 0.04193531721830368, 0.0, 0.0, 0.0, 0, 0, 0, 0, 0, 0, -0.9718982577323914, -1.0853780508041382, 0.04193531721830368
12256, -0.013896160759031773, 0.05396467447280884, -0.06429807096719742, -0.018965568393468857, -0.011823131702840328, 0.18393196165561676, -0.0013368484796956182, -0.005485353525727987, 1.001270055770874, -0.9742497205734253, -1.0876891613006592, 0.0420520082116127, 0.0, 0.0, 0.0, 0, 0, 0, 0, 0, 0, -0.9742497205734253, -1.0876891613006592, 0.0420520082116127
12266, -0.012873050756752491, 0.05605269968509674, -0.06560271978378296, 0.1213126927614212, -0.1049598678946495, -0.20987579226493835, -0.0029852772131562233, -0.004251332022249699, 1.000567078590393, -0.9766036868095398, -1.0900051593780518, 0.04216912388801575, 0.0, 0.0, 0.0, 0, 0, 0, 0, 0, 0, -0.9766036868095398, -1.0900051593780518, 0.04216912388801575
12276, -0.012359576299786568, 0.0563802607357502, -0.06561415642499924, 0.092382051050663, 0.0338783785700798, -0.04337438568472862, -0.0017191568622365594, -0.004287858959287405, 1.001244306564331, -0.9789605736732483, -1.0923256874084473, 0.042287103831768036, 0.0, 0.0, 0.0, 0, 0, 0, 0, 0, 0, -0.9789605736732483, -1.0923256874084473, 0.042287103831768036
12286, -0.012065257877111435, 0.0562453493475914, -0.06600456684827805, -0.012229805812239647, -0.051999740302562714, -0.010398167185485363, -0.0018877878319472075, -0.0018378992099314928, 1.0004733800888062, -0.9813206791877747, -1.094650149345398, 0.042406126856803894, 0.0, 0.0, 0.0, 0, 0, 0, 0, 0, 0, -0.9813206791877747, -1.094650149345398, 0.042406126856803894
12296, -0.013420062139630318, 0.056685276329517365, -0.06589242815971375, -0.13601426780223846, -0.18486197292804718, 0.08389148116111755, -0.0027286969125270844, -0.001726150163449347, 1.000482439994812, -0.9836838841438293, -1.0969771146774292, 0.04252598434686661, 0.0, 0.0, 0.0, 0, 0, 0, 0, 0, 0, -0.9836838841438293, -1.0969771146774292, 0.04252598434686661
12306, -0.012622576206922531, 0.058205440640449524, -0.0647166296839714, 0.13720163702964783, -0.0062268441542983055, 0.1994624137878418, -0.0014004982076585293, -0.0005790538853034377, 1.000314474105835, -0.9860504269599915, -1.0993056297302246, 0.04264615848660469, 0.0, 0.0, 0.0, 0, 0, 0, 0, 0, 0, -0.9860504269599915, -1.0993056297302246, 0.04264615848660469
12316, -0.012804907746613026, 0.058288250118494034, -0.06515172868967056, 0.020522870123386383, 0.09953711181879044, 0.0138997258618474, -0.002347690984606743, -0.0009101780597120523, 0.9997134804725647, -0.9884200096130371, -1.1016350984573364, 0.04276661574840546, 0.0, 0.0, 0.0, 0, 0, 0, 0, 0, 0, -0.9884200096130371, -1.1016350984573364, 0.04276661574840546
12326, -0.012650306336581707, 0.056503355503082275, -0.06401056051254272, -0.01575460098683834, 0.25663647055625916, 0.1558276116847992, -0.0038842109497636557, -0.0031737221870571375, 0.9971184134483337, -0.9907925128936768, -1.103965163230896, 0.04288693889975548, 0.0, 0.0, 0.0, 0, 0, 0, 0, 0, 0, -0.9907925128936768, -1.103965163230896, 0.04288693889975548
12336, -0.013576289638876915, 0.05608201399445534, -0.06501481682062149, -0.15099796652793884, 0.0242391899228096, -0.14829587936401367, -0.005014034919440746, -0.0018289393046870828, 1.0013729333877563, -0.9931690096855164, -1.1062970161437988, 0.04300595074892044, 0.0, 0.0, 0.0, 0, 0, 0, 0, 0, 0, -0.9931690096855164, -1.1062970161437988, 0.04300595074892044
12346, -0.014111390337347984, 0.0565197579562664, -0.06603552401065826, -0.15429605543613434, -0.19255580008029938, -0.18431121110916138, -0.005153074860572815, -0.0025633780751377344, 1.0019853115081787, -0.9955507516860962, -1.108630895614624, 0.04312460124492645, 0.0, 0.0, 0.0, 0, 0, 0, 0, 0, 0, -0.9955507516860962, -1.108630895614624, 0.04312460124492645
12356, -0.013522962108254433, 0.056339945644140244, -0.0659305527806282, 0.1574409008026123, 0.10713182389736176, 0.15244072675704956, -0.0017250942764803767, -0.002170766470953822, 1.0004212856292725, -0.9979382753372192, -1.1109665632247925, 0.043244868516922, 0.0, 0.0, 0.0, 0, 0, 0, 0, 0, 0, -0.9979382753372192, -1.1109665632247925, 0.043244868516922
12366, -0.013532561250030994, 0.058638785034418106, -0.06706138700246811, -0.013189814053475857, -0.0884915292263031, -0.15582847595214844, -0.0032670574728399515, -0.002710901200771332, 0.9996172785758972, -1.0003300905227661, -1.1133042573928833, 0.04336635023355484, 0.0, 0.0, 0.0, 0, 0, 0, 0, 0, 0, -1.0003300905227661, -1.1133042573928833, 0.04336635023355484
12376, -0.013334505259990692, 0.059992168098688126, -0.06544770300388336, 0.16397999227046967, -0.24554796516895294, 0.19423282146453857, -0.0017076580552384257, -0.004011145327240229, 0.9966520071029663, -1.0027252435684204, -1.1156442165374756, 0.043487630784511566, 0.0, 0.0, 0.0, 0, 0, 0, 0, 0, 0, -1.0027252435684204, -1.1156442165374756, 0.043487630784511566
12386, -0.013091920875012875, 0.05947839841246605, -0.0648895725607872, 0.08357758820056915, 0.264145165681839, 0.12785330414772034, -0.0018929014913737774, -0.0027001118287444115, 0.9988041520118713, -1.0051237344741821, -1.1179871559143066, 0.04360690340399742, 0.0, 0.0, 0.0, 0, 0, 0, 0, 0, 0, -1.0051237344741821, -1.1179871559143066, 0.04360690340399742
12396, -0.014059523120522499, 0.05780377984046936, -0.06320388615131378, -0.09721507877111435, 0.10904065519571304, 0.33602389693260193, -0.0036765476688742638, -0.0035565830767154694, 1.0007678270339966, -1.0075252056121826, -1.1203330755233765, 0.043724048882722855, 0.0, 0.0, 0.0, 0, 0, 0, 0, 0, 0, -1.0075252056121826, -1.1203330755233765, 0.043724048882722855
12406, -0.014744341373443604, 0.056635670363903046, -0.06524253636598587, -0.07836713641881943, 0.1846412867307663, -0.09847000986337662, -0.001584560377523303, -0.001625880948267877, 1.0019227266311646, -1.0099304914474487, -1.122681975364685, 0.043840911239385605, 0.0, 0.0, 0.0, 0, 0, 0, 0, 0, 0, -1.0099304914474487, -1.122681975364685, 0.043840911239385605
12416, -0.014577648602426052, 0.056453339755535126, -0.06347069144248962, 0.04113436117768288, -0.03271302580833435, 0.2165421098470688, -0.002917206147685647, 0.0003815240925177932, 1.0017454624176025, -1.0123393535614014, -1.1250331401824951, 0.04395897313952446, 0.0, 0.0, 0.0, 0, 0, 0, 0, 0, 0, -1.0123393535614014, -1.1250331401824951, 0.04395897313952446
12426, -0.014757147990167141, 0.058027271181344986, -0.06339289993047714, -0.004837511572986841, -0.18303938210010529, 0.10691317915916443, -0.0009893118403851986, -0.0015010094502940774, 0.9990367293357849, -1.0147514343261719, -1.1273847818374634, 0.044078584760427475, 0.0, 0.0, 0.0, 0, 0, 0, 0, 0, 0, -1.0147514343261719, -1.1273847818374634, 0.044078584760427475
12436, -0.01571785658597946, 0.05745979771018028, -0.06356506049633026, 0.07152796536684036, 0.1082187220454216, 8.236782014137134e-05, 0.00020883389515802264, -0.0032879668287932873, 0.9978842735290527, -1.0171663761138916, -1.1297370195388794, 0.04419828951358795, 0.0, 0.0, 0.0, 0, 0, 0, 0, 0, 0, -1.0171663761138916, -1.1297370195388794, 0.04419828951358795
12446, -0.015658410266041756, 0.056351613253355026, -0.06413134932518005, 0.18759648501873016, -0.0075791203416883945, -0.15848179161548615, -0.001891021616756916, -0.002971187699586153, 0.9984956979751587, -1.0195828676223755, -1.1320914030075073, 0.04431644082069397, 0.0, 0.0, 0.0, 0, 0, 0, 0, 0, 0, -1.0195828676223755, -1.1320914030075073, 0.04431644082069397
12456, -0.015268801711499691, 0.05618313327431679, -0.06374450027942657, 0.09217014163732529, -0.19342531263828278, 0.0655638799071312, -0.0023791883140802383, -0.0033652405254542828, 0.998766303062439, -1.0220013856887817, -1.1344486474990845, 0.044432930648326874, 0.0, 0.0, 0.0, 0, 0, 0, 0, 0, 0, -1.0220013856887817, -1.1344486474990845, 0.044432930648326874
12466, -0.015477241016924381, 0.05455488711595535, -0.06308258324861526, -0.05505356937646866, 0.17744210362434387, 0.02803202159702778, -0.004566390998661518, -0.005570226348936558, 1.0004525184631348, -1.0244230031967163, -1.1368086338043213, 0.044548261910676956, 0.0, 0.0, 0.0, 0, 0, 0, 0, 0, 0, -1.0244230031967163, -1.1368086338043213, 0.044548261910676956
12476, -0.01588914915919304, 0.056651219725608826, -0.06394349038600922, -0.06079387292265892, -0.23350989818572998, -0.2272500842809677, -0.0036661967169493437, -0.005658878479152918, 1.0000871419906616, -1.0268491506576538, -1.1391726732254028, 0.044663313776254654, 0.0, 0.0, 0.0, 0, 0, 0, 0, 0, 0, -1.0268491506576538, -1.1391726732254028, 0.044663313776254654
12486, -0.016630999743938446, 0.055795084685087204, -0.06527741253376007, -0.0801045298576355, 0.10500587522983551, -0.20573532581329346, -0.0024485343601554632, -0.003828151384368539, 1.0002267360687256, -1.0292803049087524, -1.1415419578552246, 0.04477863013744354, 0.0, 0.0, 0.0, 0, 0, 0, 0, 0, 0, -1.0292803049087524, -1.1415419578552246, 0.04477863013744354
12496, -0.0174808818846941, 0.05584792420268059, -0.06503178924322128, 0.02033909410238266, 0.09664960205554962, 0.1453763246536255, -0.001402952242642641, -0.0029330523684620857, 1.0006648302078247, -1.0317156314849854, -1.1439157724380493, 0.04489411413669586, 0.0, 0.0, 0.0, 0, 0, 0, 0, 0, 0, -1.0317156314849854, -1.1439157724380493, 0.04489411413669586
12506, -0.017395159229636192, 0.055496975779533386, -0.0660717636346817, 0.04699823260307312, -0.014231598004698753, -0.2719796299934387, -0.002248181030154228, -0.002669878304004669, 1.0001795291900635, -1.0341540575027466, -1.146293044090271, 0.04501001909375191, 0.0, 0.0, 0.0, 0, 0, 0, 0, 0, 0, -1.0341540575027466, -1.146293044090271, 0.04501001909375191
12516, -0.017609411850571632, 0.054692164063453674, -0.06539593636989594, 0.013807675801217556, 0.05772331357002258, 0.1244637742638588, -0.002157103270292282, -0.001100177993066609, 0.9997549057006836, -1.036595344543457, -1.1486728191375732, 0.04512638971209526, 0.0, 0.0, 0.0, 0, 0, 0, 0, 0, 0, -1.036595344543457, -1.1486728191375732, 0.04512638971209526
12526, -0.018207097426056862, 0.0528787262737751, -0.06568020582199097, -0.08822017163038254, 0.366167813539505, 0.0008364473469555378, -0.001604413497261703, -0.001597525319084525, 0.9990719556808472, -1.0390398502349854, -1.1510539054870605, 0.04524271935224533, 0.0, 0.0, 0.0, 0, 0, 0, 0, 0, 0, -1.0390398502349854, -1.1510539054870605, 0.04524271935224533
12536, -0.018090836703777313, 0.05307718738913536, -0.0659741759300232, 0.06953014433383942, 0.03130960837006569, -0.058263592422008514, -0.001413593185134232, -0.0028489951509982347, 0.998254656791687, -1.0417319536209106, -1.1536743640899658, 0.04537000134587288, 0.0, 0.0, 0.0, 0, 0, 0, 0, 0, 0, -1.0417319536209106, -1.1536743640899658, 0.04537000134587288
12546, -0.019000275060534477, 0.052224092185497284, -0.06565465778112411, -0.17970551550388336, 0.12386862188577652, 0.14707066118717194, -0.0022502064239233732, -0.0020661125890910625, 1.0001758337020874, -1.0441818237304688, -1.156058669090271, 0.045484431087970734, 0.0, 0.0, 0.0, 0, 0, 0, 0, 0, 0, -1.0441818237304688, -1.156058669090271, 0.045484431087970734
12556, -0.02045588567852974, 0.05141851305961609, -0.06754850596189499, -0.19844508171081543, 0.25922223925590515, -0.1336887925863266, -0.0016496381722390652, -0.0015645368257537484, 0.9992552399635315, -1.0466341972351074, -1.1584452390670776, 0.045597925782203674, 0.0, 0.0, 0.0, 0, 0, 0, 0, 0, 0, -1.0466341972351074, -1.1584452390670776, 0.045597925782203674
12566, -0.021077368408441544, 0.05049027502536774, -0.0679948702454567, -0.024777885526418686, -0.023284785449504852, -0.02297935262322426, -0.00018523665494285524, -0.0012696627527475357, 1.001517653465271, -1.0490893125534058, -1.1608332395553589, 0.045711129903793335, 0.0, 0.0, 0.0, 0, 0, 0, 0, 0, 0, -1.0490893125534058, -1.1608332395553589, 0.045711129903793335
12576, -0.022533254697918892, 0.05008223280310631, -0.06812885403633118, -0.03822861611843109, -0.06026650220155716, -0.08534637838602066, -0.00017110409680753946, -0.0020002543460577726, 1.0019108057022095, -1.0515464544296265, -1.1632224321365356, 0.04582475498318672, 0.0, 0.0, 0.0, 0, 0, 0, 0, 0, 0, -1.0515464544296265, -1.1632224321365356, 0.04582475498318672
12586, -0.021898558363318443, 0.04876990616321564, -0.06755413115024567, 0.026703443378210068, 0.06988837569952011, 0.14869073033332825, -0.0021464035380631685, -0.004678159952163696, 0.9995449781417847, -1.0540047883987427, -1.1656131744384766, 0.04593965783715248, 0.0, 0.0, 0.0, 0, 0, 0, 0, 0, 0, -1.0540047883987427, -1.1656131744384766, 0.04593965783715248
12596, -0.02063479647040367, 0.048275649547576904, -0.06648880988359451, 0.05079203099012375, -0.008745172992348671, 0.06676040589809418, -0.0020060979295521975, -0.003398096887394786, 1.0002859830856323, -1.0564650297164917, -1.1680068969726562, 0.04605501890182495, 0.0, 0.0, 0.0, 0, 0, 0, 0, 0, 0, -1.0564650297164917, -1.1680068969726562, 0.04605501890182495
12606, -0.019558869302272797, 0.047298748046159744, -0.06612684577703476, 0.15317611396312714, 0.05942137911915779, 0.047394171357154846, -0.0012515813577920198, -0.004511230159550905, 0.9981080889701843, -1.0589280128479004, -1.1704041957855225, 0.046170249581336975, 0.0, 0.0, 0.0, 0, 0, 0, 0, 0, 0, -1.0589280128479004, -1.1704041957855225, 0.046170249581336975
12616, -0.02017735131084919, 0.04730277508497238, -0.06670717895030975, -0.02984115481376648, -0.005974858999252319, -0.06535397469997406, -0.0034665511921048164, -0.002325288252905011, 0.9996871948242188, -1.0613934993743896, -1.1728049516677856, 0.046284742653369904, 0.0, 0.0, 0.0, 0, 0, 0, 0, 0, 0, -1.0613934993743896, -1.1728049516677856, 0.046284742653369904
12626, -0.020484337583184242, 0.04640878364443779, -0.06642128527164459, -0.013301643542945385, -0.0954166054725647, 0.08819704502820969, -0.0028341123834252357, -0.002891045529395342, 0.9993612766265869, -1.0638623237609863, -1.1752086877822876, 0.04639829695224762, 0.0, 0.0, 0.0, 0, 0, 0, 0, 0, 0, -1.0638623237609863, -1.1752086877822876, 0.04639829695224762
12636, -0.020231474190950394, 0.046991653740406036, -0.06612550467252731, -0.005602091085165739, 0.044540759176015854, 0.0004983458202332258, -0.0012232037261128426, -0.002306461101397872, 0.9988959431648254, -1.06633460521698, -1.1776148080825806, 0.0465114563703537, 0.0, 0.0, 0.0, 0, 0, 0, 0, 0, 0, -1.06633460521698, -1.1776148080825806, 0.0465114563703537
12646, -0.01945720799267292, 0.04742161184549332, -0.06767738610506058, 0.13317082822322845, -0.10315798223018646, -0.03959633409976959, -0.004852572456002235, -0.000415984308347106, 0.9999176859855652, -1.0688096284866333, -1.1800230741500854, 0.04662373661994934, 0.0, 0.0, 0.0, 0, 0, 0, 0, 0, 0, -1.0688096284866333, -1.1800230741500854, 0.04662373661994934
12656, -0.019403673708438873, 0.04741932451725006, -0.06730952858924866, 0.004459265619516373, -0.07170450687408447, 0.07307757437229156, -0.00501791387796402, -0.0024100395385175943, 1.0027388334274292, -1.0712885856628418, -1.1824322938919067, 0.04673555865883827, 0.0, 0.0, 0.0, 0, 0, 0, 0, 0, 0, -1.0712885856628418, -1.1824322938919067, 0.04673555865883827
12666, -0.01918950490653515, 0.04427065700292587, -0.06698493659496307, 0.0926428884267807, 0.379474014043808, 0.2096029818058014, -0.003375655971467495, -0.0019061070634052157, 1.0032999515533447, -1.0737731456756592, -1.1848424673080444, 0.04684876650571823, 0.0, 0.0, 0.0, 0, 0, 0, 0, 0, 0, -1.0737731456756592, -1.1848424673080444, 0.04684876650571823
12676, -0.019550753757357597, 0.04333477094769478, -0.06784319132566452, -0.044505391269922256, 0.16184978187084198, -0.2772733271121979, -0.0014408805873245, -0.003180078696459532, 0.9995924234390259, -1.0762622356414795, -1.1872546672821045, 0.04696439951658249, 0.0, 0.0, 0.0, 0, 0, 0, 0, 0, 0, -1.0762622356414795, -1.1872546672821045, 0.04696439951658249
12686, -0.019670747220516205, 0.043471165001392365, -0.06871142983436584, 0.15521793067455292, -0.02840729057788849, 0.05291314795613289, -0.0010572167811915278, -0.002900125226005912, 1.0002013444900513, -1.0787540674209595, -1.189669132232666, 0.04708130285143852, 0.0, 0.0, 0.0, 0, 0, 0, 0, 0, 0, -1.0787540674209595, -1.189669132232666, 0.04708130285143852
12696, -0.01923539489507675, 0.043058618903160095, -0.06782513111829758, -0.021734073758125305, 0.014745374210178852, -0.0491458885371685, -0.0024865586310625076, -0.0025910509284585714, 1.0007083415985107, -1.0812479257583618, -1.192086100578308, 0.04719817638397217, 0.0, 0.0, 0.0, 0, 0, 0, 0, 0, 0, -1.0812479257583618, -1.192086100578308, 0.04719817638397217
12706, -0.0184854157269001, 0.04357222467660904, -0.069148950278759, 0.07814082503318787, 0.0689992606639862, -0.2923472821712494, 0.0003960545873269439, -0.0017146680038422346, 1.000145673751831, -1.0837441682815552, -1.1945053339004517, 0.04731541872024536, 0.0, 0.0, 0.0, 0, 0, 0, 0, 0, 0, -1.0837441682815552, -1.1945053339004517, 0.04731541872024536
12716, -0.01853511668741703, 0.04382847622036934, -0.069923035800457, -0.038388241082429886, 0.08674774318933487, -0.2093454897403717, -0.0014487801818177104, -0.001540489844046533, 1.0001401901245117, -1.0862421989440918, -1.1969259977340698, 0.04743305593729019, 0.0, 0.0, 0.0, 0, 0, 0, 0, 0, 0, -1.0862421989440918, -1.1969259977340698, 0.04743305593729019
12726, -0.01754354126751423, 0.04181944951415062, -0.0686749741435051, 0.10221880674362183, 0.05141568183898926, 0.14136666059494019, -0.002935977652668953, -0.003316066926345229, 1.0005570650100708, -1.0887418985366821, -1.199347972869873, 0.047550782561302185, 0.0, 0.0, 0.0, 0, 0, 0, 0, 0, 0, -1.0887418985366821, -1.199347972869873, 0.047550782561302185
12736, -0.018314220011234283, 0.04226576164364815, -0.06912337988615036, -0.12752586603164673, 0.10259297490119934, 0.08505865931510925, -0.002141915261745453, -0.0038242805749177933, 1.0020689964294434, -1.0912444591522217, -1.2017723321914673, 0.04766927286982536, 0.0, 0.0, 0.0, 0, 0, 0, 0, 0, 0, -1.0912444591522217, -1.2017723321914673, 0.04766927286982536
12746, -0.018437618389725685, 0.04373999685049057, -0.0702294111251831, -0.1266530156135559, -0.018676456063985825, 0.02447992004454136, -0.0047436002641916275, -0.002614944940432906, 1.001386046409607, -1.0937501192092896, -1.2042001485824585, 0.0477893203496933, 0.0, 0.0, 0.0, 0, 0, 0, 0, 0, 0, -1.0937501192092896, -1.2042001485824585, 0.0477893203496933
12756, -0.018521901220083237, 0.04269459471106529, -0.06998122483491898, 0.12529155611991882, 0.25268858671188354, -0.03794976323843002, -0.0029898122884333134, -0.0023636394180357456, 0.9987084269523621, -1.0962599515914917, -1.2066307067871094, 0.04791074991226196, 0.0, 0.0, 0.0, 0, 0, 0, 0, 0, 0, -1.0962599515914917, -1.2066307067871094, 0.04791074991226196
12766, -0.01817205734550953, 0.043476227670907974, -0.0708773285150528, -0.014357120729982853, -0.21683406829833984, -0.010763512924313545, -0.00015588630049023777, -0.003414672566577792, 1.0004104375839233, -1.0987739562988281, -1.209063172340393, 0.048032041639089584, 0.0, 0.0, 0.0, 0, 0, 0, 0, 0, 0, -1.0987739562988281, -1.209063172340393, 0.048032041639089584
12776, -0.018497992306947708, 0.04584622383117676, -0.07140988856554031, -0.0023657181300222874, -0.37619879841804504, -0.07033328711986542, 0.00135895109269768, -0.0038463175296783447, 1.002257227897644, -1.1012896299362183, -1.2114980220794678, 0.048153072595596313, 0.0, 0.0, 0.0, 0, 0, 0, 0, 0, 0, -1.1012896299362183, -1.2114980220794678, 0.048153072595596313
12786, -0.01840900629758835, 0.04702591523528099, -0.07170532643795013, -0.01592971198260784, -0.09407985210418701, -0.1797824501991272, -0.003091485006734729, -0.003490556962788105, 0.9982337355613708, -1.1038055419921875, -1.21393620967865, 0.04827524721622467, 0.0, 0.0, 0.0, 0, 0, 0, 0, 0, 0, -1.1038055419921875, -1.21393620967865, 0.04827524721622467
12796, -0.01822792924940586, 0.04764460027217865, -0.07119039446115494, -0.08840704709291458, -0.07243473082780838, -0.14066924154758453, -0.0052201831713318825, -0.0025528683327138424, 0.9977959990501404, -1.106323480606079, -1.216377854347229, 0.04839729517698288, 0.0, 0.0, 0.0, 0, 0, 0, 0, 0, 0, -1.106323480606079, -1.216377854347229, 0.04839729517698288
12806, -0.017967993393540382, 0.04796005040407181, -0.06980500370264053, -0.07221214473247528, -0.1447722613811493, -0.08549823611974716, -0.003100557718425989, -0.0018018201226368546, 0.9982783198356628, -1.1088463068008423, -1.2188221216201782, 0.048517219722270966, 0.0, 0.0, 0.0, 0, 0, 0, 0, 0, 0, -1.1088463068008423, -1.2188221216201782, 0.048517219722270966
12816, -0.01661142148077488, 0.049354225397109985, -0.07146654278039932, 0.17049172520637512, -0.17057956755161285, -0.23567312955856323, -0.0026148983743041754, -0.0038350149989128113, 1.0035090446472168, -1.1113739013671875, -1.2212681770324707, 0.04863554611802101, 0.0, 0.0, 0.0, 0, 0, 0, 0, 0, 0, -1.1113739013671875, -1.2212681770324707, 0.04863554611802101
12826, -0.01664162427186966, 0.04811961576342583, -0.07172594219446182, 0.00036223663482815027, -0.03720520809292793, -0.018438024446368217, -0.004208135884255171, -0.0024217027239501476, 0.9995070099830627, -1.1139051914215088, -1.2237168550491333, 0.048754673451185226, 0.0, 0.0, 0.0, 0, 0, 0, 0, 0, 0, -1.1139051914215088, -1.2237168550491333, 0.048754673451185226
12836, -0.01583702117204666, 0.048897068947553635, -0.07184780389070511, 0.08905475586652756, -0.11437279731035233, -0.06983110308647156, -0.004190999548882246, -0.003183460095897317, 0.998088538646698, -1.116440773010254, -1.226168155670166, 0.0488746203482151, 0.0, 0.0, 0.0, 0, 0, 0, 0, 0, 0, -1.116440773010254, -1.226168155670166, 0.0488746203482151
12846, -0.016799503937363625, 0.047573354095220566, -0.07324474304914474, -0.11832787841558456, 0.2876375913619995, -0.08960311114788055, -0.003559929085895419, -0.003722471883520484, 1.0022350549697876, -1.1189812421798706, -1.2286219596862793, 0.04899345338344574, 0.0, 0.0, 0.0, 0, 0, 0, 0, 0, 0, -1.1189812421798706, -1.2286219596862793, 0.04899345338344574
12856, -0.01573307067155838, 0.04707181453704834, -0.0734308660030365, 0.047269683331251144, 0.12517951428890228, -0.07007044553756714, -0.0020790579728782177, -0.004219525493681431, 1.0029257535934448, -1.1215261220932007, -1.2310789823532104, 0.04911278560757637, 0.0, 0.0, 0.0, 0, 0, 0, 0, 0, 0, -1.1215261220932007, -1.2310789823532104, 0.04911278560757637
12866, -0.015390229411423206, 0.04745287820696831, -0.07281021773815155, -0.03902832046151161, -0.10097656399011612, 0.09629791975021362, -0.002622822532430291, -0.003827450331300497, 1.0043270587921143, -1.1240744590759277, -1.2335397005081177, 0.04923490807414055, 0.0, 0.0, 0.0, 0, 0, 0, 0, 0, 0, -1.1240744590759277, -1.2335397005081177, 0.04923490807414055
12876, -0.01585960201919079, 0.04715116322040558, -0.07275760173797607, -0.03739697113633156, -0.12187572568655014, -0.012629631906747818, -0.001623352407477796, -0.004594723228365183, 1.0008749961853027, -1.126625895500183, -1.2360044717788696, 0.04936021938920021, 0.0, 0.0, 0.0, 0, 0, 0, 0, 0, 0, -1.126625895500183, -1.2360044717788696, 0.04936021938920021
12886, -0.015633022412657738, 0.04624556750059128, -0.07266261428594589, 0.08532457798719406, 0.08433061093091965, -0.07098045200109482, -0.0011387234553694725, -0.0018539719749242067, 1.0032485723495483, -1.1291799545288086, -1.238472819328308, 0.04948793724179268, 0.0, 0.0, 0.0, 0, 0, 0, 0, 0, 0, -1.1291799545288086, -1.238472819328308, 0.04948793724179268
12896, -0.015618856064975262, 0.04527940973639488, -0.07336658984422684, -0.15671594440937042, -0.06826716661453247, -0.14237533509731293, -0.0030804940033704042, -0.00046840711729601026, 1.001019835472107, -1.131736159324646, -1.2409436702728271, 0.049617841839790344, 0.0, 0.0, 0.0, 0, 0, 0, 0, 0, 0, -1.131736159324646, -1.2409436702728271, 0.049617841839790344
12906, -0.01580323651432991, 0.04431574419140816, -0.0745275467634201, -0.0904887393116951, 0.11658666282892227, -0.10438789427280426, -0.001980759436264634, -0.0016129943542182446, 0.998371958732605, -1.1342954635620117, -1.2434154748916626, 0.04974937066435814, 0.0, 0.0, 0.0, 0, 0, 0, 0, 0, 0, -1.1342954635620117, -1.2434154748916626, 0.04974937066435814
12916, -0.01651117391884327, 0.04431583732366562, -0.07557797431945801, -0.2078058421611786, -0.00043937249574810266, -0.08636416494846344, -0.0030720203649252653, -0.0011990494094789028, 1.000766634941101, -1.1368581056594849, -1.2458879947662354, 0.049880582839250565, 0.0, 0.0, 0.0, 0, 0, 0, 0, 0, 0, -1.1368581056594849, -1.2458879947662354, 0.049880582839250565
12926, -0.016510548070073128, 0.04450829699635506, -0.07638095319271088, -0.01936100609600544, -0.1736375242471695, -0.23104505240917206, -0.0028622618410736322, -0.0018113653641194105, 0.9981774091720581, -1.1394240856170654, -1.2483617067337036, 0.05001130327582359, 0.0, 0.0, 0.0, 0, 0, 0, 0, 0, 0, -1.1394240856170654, -1.2483617067337036, 0.05001130327582359
12936, -0.016646750271320343, 0.043980520218610764, -0.07562381029129028, -0.06930844485759735, -0.05745832994580269, -0.03469495102763176, -0.001543958904221654, -0.0010629119351506233, 0.9987219572067261, -1.141993761062622, -1.2508366107940674, 0.05014127865433693, 0.0, 0.0, 0.0, 0, 0, 0, 0, 0, 0, -1.141993761062622, -1.2508366107940674, 0.05014127865433693
12946, -0.01646658033132553, 0.044878069311380386, -0.07602712512016296, -0.08144986629486084, -0.18329431116580963, -0.26714497804641724, -0.002699037780985236, -0.002589891664683819, 0.998842179775238, -1.144566297531128, -1.2533127069473267, 0.05026981607079506, 0.0, 0.0, 0.0, 0, 0, 0, 0, 0, 0, -1.144566297531128, -1.2533127069473267, 0.05026981607079506
12956, -0.01626127026975155, 0.04469665512442589, -0.07636649906635284, 0.016240688040852547, 0.23512879014015198, 0.023493219166994095, -0.0030190437100827694, -0.002994775539264083, 0.9973894357681274, -1.1471413373947144, -1.2557904720306396, 0.0503971204161644, 0.0, 0.0, 0.0, 0, 0, 0, 0, 0, 0, -1.1471413373947144, -1.2557904720306396, 0.0503971204161644
12966, -0.014835149981081486, 0.044291697442531586, -0.07633606344461441, 0.04878593981266022, 0.04511304944753647, -0.017243938520550728, -0.00583823025226593, -0.0035053652245551348, 0.9981101751327515, -1.1497200727462769, -1.2582707405090332, 0.05052263289690018, 0.0, 0.0, 0.0, 0, 0, 0, 0, 0, 0, -1.1497200727462769, -1.2582707405090332, 0.05052263289690018
12976, -0.016314951702952385, 0.04546903446316719, -0.07729794830083847, -0.15624494850635529, -0.10690148919820786, -0.02854285016655922, -0.0052608284167945385, -0.00323684886097908, 0.9993152618408203, -1.15230393409729, -1.260754108428955, 0.05064599588513374, 0.0, 0.0, 0.0, 0, 0, 0, 0, 0, 0, -1.15230393409729, -1.260754108428955, 0.05064599588513374
12986, -0.01620628871023655, 0.04511633887887001, -0.07778821885585785, 0.21361656486988068, 0.05633968487381935, -0.11817549914121628, -0.0015311635797843337, -0.002878694562241435, 0.9983527064323425, -1.1548936367034912, -1.2632408142089844, 0.050768185406923294, 0.0, 0.0, 0.0, 0, 0, 0, 0, 0, 0, -1.1548936367034912, -1.2632408142089844, 0.050768185406923294
12996, -0.015435504727065563, 0.0454961359500885, -0.0771021768450737, -0.035523511469364166, -0.1212044209241867, 0.03523501753807068, -0.0012713089818134904, 0.00013869018584955484, 1.0008525848388672, -1.157487154006958, -1.2657302618026733, 0.0508895106613636, 0.0, 0.0, 0.0, 0, 0, 0, 0, 0, 0, -1.157487154006958, -1.2657302618026733, 0.0508895106613636
13006, -0.0145162558183074, 0.04434067755937576, -0.0778273493051529, 0.21101053059101105, 0.3125356435775757, 0.1524117887020111, 0.00015723113028798252, -0.002466327976435423, 1.0017714500427246, -1.1600826978683472, -1.2682206630706787, 0.05101066455245018, 0.0, 0.0, 0.0, 0, 0, 0, 0, 0, 0, -1.1600826978683472, -1.2682206630706787, 0.05101066455245018
13016, -0.015069892629981041, 0.045540664345026016, -0.0796068087220192, -0.08360610902309418, -0.11322854459285736, -0.13755658268928528, -0.002095355186611414, -0.0019447921076789498, 1.0016508102416992, -1.1626795530319214, -1.27071213722229, 0.0511331632733345, 0.0, 0.0, 0.0, 0, 0, 0, 0, 0, 0, -1.1626795530319214, -1.27071213722229, 0.0511331632733345
13026, -0.01513791922479868, 0.04605565220117569, -0.07967998832464218, 0.052518945187330246, 0.11774414777755737, -0.06990110129117966, -0.0031734472140669823, -0.0007061351207084954, 0.9999464154243469, -1.1652783155441284, -1.2732055187225342, 0.05125706270337105, 0.0, 0.0, 0.0, 0, 0, 0, 0, 0, 0, -1.1652783155441284, -1.2732055187225342, 0.05125706270337105
13036, -0.014958037994801998, 0.04703463986515999, -0.08111582696437836, 0.10923591256141663, -0.15720586478710175, -0.1810794472694397, -0.0038862840738147497, -0.0018878773553296924, 1.0017963647842407, -1.1678805351257324, -1.2756998538970947, 0.051381807774305344, 0.0, 0.0, 0.0, 0, 0, 0, 0, 0, 0, -1.1678805351257324, -1.2756998538970947, 0.051381807774305344
13046, -0.015640761703252792, 0.048993371427059174, -0.08102629333734512, -0.08159609138965607, -0.16621708869934082, -0.012148954905569553, -0.003560414770618081, -0.002861594781279564, 0.9978477954864502, -1.1704869270324707, -1.2781955003738403, 0.0515071377158165, 0.0, 0.0, 0.0, 0, 0, 0, 0, 0, 0, -1.1704869270324707, -1.2781955003738403, 0.0515071377158165
13056, -0.015251130796968937, 0.048670634627342224, -0.0799640566110611, 0.004935983568429947, -0.02192138135433197, 0.09527090191841125, -0.0026638710405677557, -0.0026176534593105316, 0.9989324808120728, -1.1730976104736328, -1.280693531036377, 0.051631733775138855, 0.0, 0.0, 0.0, 0, 0, 0, 0, 0, 0, -1.1730976104736328, -1.280693531036377, 0.051631733775138855
13066, -0.013837266713380814, 0.05038793757557869, -0.07896123826503754, 0.04538153111934662, 0.10907135903835297, 0.057191718369722366, -0.0011950236512348056, -0.0029351338744163513, 1.0005245208740234, -1.1757118701934814, -1.2831941843032837, 0.051754772663116455, 0.0, 0.0, 0.0, 0, 0, 0, 0, 0, 0, -1.1757118701934814, -1.2831941843032837, 0.051754772663116455
13076, -0.014367759227752686, 0.050583984702825546, -0.07915635406970978, -0.10606135427951813, 0.10673838108778, -0.08399858325719833, 0.00035434210440143943, -0.00269584939815104, 1.0009112358093262, -1.1783283948898315, -1.28569757938385, 0.05187760293483734, 0.0, 0.0, 0.0, 0, 0, 0, 0, 0, 0, -1.1783283948898315, -1.28569757938385, 0.05187760293483734
13086, -0.014433767646551132, 0.051119063049554825, -0.07922246307134628, 0.042698197066783905, 0.001493183197453618, -0.10077657550573349, -0.0005178835126571357, -0.000886776193510741, 0.9998148083686829, -1.1809459924697876, -1.2882033586502075, 0.052001260221004486, 0.0, 0.0, 0.0, 0, 0, 0, 0, 0, 0, -1.1809459924697876, -1.2882033586502075, 0.052001260221004486
13096, -0.014376997016370296, 0.05087418109178543, -0.08007646352052689, -0.10615425556898117, -0.09062031656503677, -0.11486022174358368, -0.002220817608758807, -0.003041613381356001, 0.9995565414428711, -1.1835647821426392, -1.2907105684280396, 0.05212516710162163, 0.0, 0.0, 0.0, 0, 0, 0, 0, 0, 0, -1.1835647821426392, -1.2907105684280396, 0.05212516710162163
13106, -0.01588047295808792, 0.05129075422883034, -0.07985837012529373, -0.10344238579273224, -0.3066583275794983, -0.07407335191965103, -0.002547245705500245, -0.0035601055715233088, 1.0004403591156006, -1.1861859560012817, -1.2932196855545044, 0.05224873498082161, 0.0, 0.0, 0.0, 0, 0, 0, 0, 0, 0, -1.1861859560012817, -1.2932196855545044, 0.05224873498082161
13116, -0.015368148684501648, 0.05112585052847862, -0.07834353297948837, 0.1365373730659485, 0.11409970372915268, 0.3089715540409088, -0.0020749904215335846, -0.003615152556449175, 1.001250982284546, -1.1888104677200317, -1.295731782913208, 0.05237259715795517, 0.0, 0.0, 0.0, 0, 0, 0, 0, 0, 0, -1.1888104677200317, -1.295731782913208, 0.05237259715795517
13126, -0.016395075246691704, 0.050943147391080856, -0.07851449400186539, -0.11611920595169067, -0.16670653223991394, -0.25895896553993225, -0.0003754966310225427, -0.003131047124043107, 1.0006139278411865, -1.1914379596710205, -1.2982470989227295, 0.05249740183353424, 0.0, 0.0, 0.0, 0, 0, 0, 0, 0, 0, -1.1914379596710205, -1.2982470989227295, 0.05249740183353424
13136, -0.0160118006169796, 0.05070701614022255, -0.07787075638771057, 0.16285914182662964, -0.1490219086408615, 0.0015500616282224655, -0.0006262235110625625, -0.0019498217152431607, 0.9998956918716431, -1.1940674781799316, -1.3007655143737793, 0.052623070776462555, 0.0, 0.0, 0.0, 0, 0, 0, 0, 0, 0, -1.1940674781799316, -1.3007655143737793, 0.052623070776462555
13146, -0.017275230959057808, 0.050167106091976166, -0.07777079939842224, -0.32223331928253174, 0.048116620630025864, 0.16502100229263306, -0.0008021486573852599, -0.00208882219158113, 1.0004323720932007, -1.1966983079910278, -1.3032863140106201, 0.05274873599410057, 0.0, 0.0, 0.0, 0, 0, 0, 0, 0, 0, -1.1966983079910278, -1.3032863140106201, 0.05274873599410057
13156, -0.01720997877418995, 0.049389392137527466, -0.07877164334058762, 0.02463546395301819, -0.12423743307590485, -0.04511641338467598, -0.00282343290746212, -0.0008320320048369467, 0.9990647435188293, -1.1993305683135986, -1.3058087825775146, 0.05287426710128784, 0.0, 0.0, 0.0, 0, 0, 0, 0, 0, 0, -1.1993305683135986, -1.3058087825775146, 0.05287426710128784
13166, -0.01777559146285057, 0.048951487988233566, -0.07825026661157608, 0.028605950996279716, 0.07792481780052185, 0.11156776547431946, -0.0020121790003031492, -0.0012378985993564129, 1.000058889389038, -1.201965570449829, -1.3083324432373047, 0.05299963802099228, 0.0, 0.0, 0.0, 0, 0, 0, 0, 0, 0, -1.201965570449829, -1.3083324432373047, 0.05299963802099228
13176, -0.017898954451084137, 0.048254143446683884, -0.07941795885562897, 0.03467367962002754, -0.0799844041466713, -0.06363596767187119, -0.0019378524739295244, -0.003208158304914832, 0.9975720047950745, -1.2046037912368774, -1.310856819152832, 0.05312436446547508, 0.0, 0.0, 0.0, 0, 0, 0, 0, 0, 0, -1.2046037912368774, -1.310856819152832, 0.05312436446547508
13186, -0.016906920820474625, 0.047985151410102844, -0.07952255010604858, 0.09662602096796036, -0.09678538888692856, 0.032279226928949356, -0.0025422130711376667, -0.0028163697570562363, 1.000224232673645, -1.2072447538375854, -1.3133827447891235, 0.05324791744351387, 0.0, 0.0, 0.0, 0, 0, 0, 0, 0, 0, -1.2072447538375854, -1.3133827447891235, 0.05324791744351387
13196, -0.016029901802539825, 0.047218918800354004, -0.07985197007656097, 0.08811520785093307, 0.02299349755048752, -0.06416724622249603, -0.0035736821591854095, -0.0038107335567474365, 0.999272882938385, -1.2098888158798218, -1.3159111738204956, 0.0533706396818161, 0.0, 0.0, 0.0, 0, 0, 0, 0, 0, 0, -1.2098888158798218, -1.3159111738204956, 0.0533706396818161
13206, -0.015328931622207165, 0.04734822362661362, -0.07965949922800064, 0.01907975785434246, 0.177721306681633, -0.08543357998132706, -0.001772751216776669, -0.0017725939396768808, 1.0001606941223145, -1.2125365734100342, -1.318442463874817, 0.053493108600378036, 0.0, 0.0, 0.0, 0, 0, 0, 0, 0, 0, -1.2125365734100342, -1.318442463874817, 0.053493108600378036
13216, -0.015452484600245953, 0.047382205724716187, -0.07940802723169327, -0.0748610571026802, -0.04908808693289757, -0.10543198138475418, -0.0017341453349217772, -0.0023817361798137426, 1.0011630058288574, -1.215187668800354, -1.3209760189056396, 0.05361558124423027, 0.0, 0.0, 0.0, 0, 0, 0, 0, 0, 0, -1.215187668800354, -1.3209760189056396, 0.05361558124423027
13226, -0.015427997335791588, 0.04615681245923042, -0.07942701131105423, -0.1665259450674057, 0.23695991933345795, 0.03358107805252075, -0.0014752267161384225, -0.003867676015943289, 1.0001847743988037, -1.2178412675857544, -1.3235113620758057, 0.053738802671432495, 0.0, 0.0, 0.0, 0, 0, 0, 0, 0, 0, -1.2178412675857544, -1.3235113620758057, 0.053738802671432495
13236, -0.015680525451898575, 0.045690689235925674, -0.07950745522975922, 0.11310596019029617, 0.1336098164319992, 0.10826235264539719, -0.00252791796810925, -0.005050559528172016, 0.9988725185394287, -1.2204971313476562, -1.3260494470596313, 0.053862564265728, 0.0, 0.0, 0.0, 0, 0, 0, 0, 0, 0, -1.2204971313476562, -1.3260494470596313, 0.053862564265728
13246, -0.016427364200353622, 0.04446931555867195, -0.08043975383043289, -0.05198710411787033, 0.14232593774795532, -0.32312774658203125, -0.005234146490693092, -0.0026184041053056717, 0.9992865324020386, -1.2231560945510864, -1.3285914659500122, 0.053985923528671265, 0.0, 0.0, 0.0, 0, 0, 0, 0, 0, 0, -1.2231560945510864, -1.3285914659500122, 0.053985923528671265
13256, -0.017288746312260628, 0.044201452285051346, -0.07912596315145493, -0.066399484872818, 0.008317890577018261, 0.06344656646251678, -0.0038733596447855234, -0.0020136802922934294, 1.0004318952560425, -1.2258198261260986, -1.331136703491211, 0.05410854145884514, 0.0, 0.0, 0.0, 0, 0, 0, 0, 0, 0, -1.2258198261260986, -1.331136703491211, 0.05410854145884514
13266, -0.016945574432611465, 0.043750155717134476, -0.07890398800373077, 0.09640330821275711, 0.05889949947595596, 0.1591644138097763, -0.0030334366019815207, -0.0023732781410217285, 1.0013374090194702, -1.228488802909851, -1.3336838483810425, 0.05423106625676155, 0.0, 0.0, 0.0, 0, 0, 0, 0, 0, 0, -1.228488802909851, -1.3336838483810425, 0.05423106625676155
13276, -0.016834452748298645, 0.0461074560880661, -0.08027033507823944, 0.06256278604269028, -0.3414160907268524, -0.13240008056163788, -0.0022475330624729395, -0.00294662662781775, 0.9989081025123596, -1.2311618328094482, -1.336233139038086, 0.054354242980480194, 0.0, 0.0, 0.0, 0, 0, 0, 0, 0, 0, -1.2311618328094482, -1.336233139038086, 0.054354242980480194
13286, -0.016297781839966774, 0.04561159759759903, -0.0813843235373497, 0.08870389312505722, 0.19794562458992004, -0.05461565777659416, -0.0041459063068032265, -0.0025074637960642576, 0.9990752339363098, -1.233838438987732, -1.3387848138809204, 0.054477497935295105, 0.0, 0.0, 0.0, 0, 0, 0, 0, 0, 0, -1.233838438987732, -1.3387848138809204, 0.054477497935295105
13296, -0.01623074896633625, 0.04432806372642517, -0.08235256373882294, -0.005791963543742895, 0.13248825073242188, -0.11359959840774536, -0.0037908987142145634, -0.0027521385345607996, 0.9975665807723999, -1.2365193367004395, -1.3413389921188354, 0.054599810391664505, 0.0, 0.0, 0.0, 0, 0, 0, 0, 0, 0, -1.2365193367004395, -1.3413389921188354, 0.054599810391664505
13306, -0.016204332932829857, 0.04325881227850914, -0.08169068396091461, 0.18086211383342743, 0.07566651701927185, 0.048829883337020874, -0.0030505794566124678, -0.0019844146445393562, 0.996383547782898, -1.2392051219940186, -1.3438953161239624, 0.054720278829336166, 0.0, 0.0, 0.0, 0, 0, 0, 0, 0, 0, -1.2392051219940186, -1.3438953161239624, 0.054720278829336166
13316, -0.01678144559264183, 0.043090157210826874, -0.08197599649429321, -0.12628763914108276, 0.001800769823603332, -0.058516211807727814, -0.003922611940652132, 0.00012913990940432996, 1.0004246234893799, -1.241895318031311, -1.346453309059143, 0.054837897419929504, 0.0, 0.0, 0.0, 0, 0, 0, 0, 0, 0, -1.241895318031311, -1.346453309059143, 0.054837897419929504
13326, -0.016744468361139297, 0.04431655630469322, -0.08439736813306808, -0.10898123681545258, -0.2500898540019989, -0.4195951521396637, -0.003611783729866147, -0.0009239615756087005, 0.9978020787239075, -1.2445898056030273, -1.3490116596221924, 0.054953910410404205, 0.0, 0.0, 0.0, 0, 0, 0, 0, 0, 0, -1.2445898056030273, -1.3490116596221924, 0.054953910410404205
13336, -0.016561564058065414, 0.043061308562755585, -0.08357617259025574, 0.06475184112787247, 0.18307356536388397, 0.0249146930873394, -0.002605295740067959, -0.003939925227314234, 0.9987965822219849, -1.247288703918457, -1.3515703678131104, 0.055068857967853546, 0.0, 0.0, 0.0, 0, 0, 0, 0, 0, 0, -1.247288703918457, -1.3515703678131104, 0.055068857967853546
13346, -0.01718050241470337, 0.04131379723548889, -0.08466053009033203, -0.044673532247543335, 0.24448548257350922, 0.03345000743865967, -0.0025083504151552916, -0.0015366115840151906, 1.0027132034301758, -1.2499912977218628, -1.3541311025619507, 0.0551823228597641, 0.0, 0.0, 0.0, 0, 0, 0, 0, 0, 0, -1.2499912977218628, -1.3541311025619507, 0.0551823228597641
13356, -0.016889004036784172, 0.03981834277510643, -0.0831359475851059, 0.05329706519842148, 0.21567091345787048, 0.14821578562259674, -0.0012260836083441973, -0.001317523536272347, 0.9989769458770752, -1.2526969909667969, -1.356693983078003, 0.05529620498418808, 0.0, 0.0, 0.0, 0, 0, 0, 0, 0, 0, -1.2526969909667969, -1.356693983078003, 0.05529620498418808
13366, -0.01777791976928711, 0.04211892560124397, -0.08462155610322952, -0.0174559373408556, -0.27508309483528137, -0.11785139888525009, -0.0016426343936473131, -0.003386586671695113, 1.0017671585083008, -1.2554051876068115, -1.3592581748962402, 0.055410780012607574, 0.0, 0.0, 0.0, 0, 0, 0, 0, 0, 0, -1.2554051876068115, -1.3592581748962402, 0.055410780012607574
13376, -0.017341816797852516, 0.04231211170554161, -0.08242503553628922, 0.06469203531742096, 0.132346510887146, 0.42883017659187317, -0.0013924547238275409, -0.0037704098504036665, 1.0005077123641968, -1.2581154108047485, -1.3618245124816895, 0.055525876581668854, 0.0, 0.0, 0.0, 0, 0, 0, 0, 0, 0, -1.2581154108047485, -1.3618245124816895, 0.055525876581668854
13386, -0.017333174124360085, 0.04326070845127106, -0.08229662477970123, -0.023229410871863365, -0.016182854771614075, 0.0068782116286456585, -0.002142267068848014, -0.0028663480188697577, 1.000818133354187, -1.260827898979187, -1.364393711090088, 0.05564213916659355, 0.0, 0.0, 0.0, 0, 0, 0, 0, 0, 0, -1.260827898979187, -1.364393711090088, 0.05564213916659355
13396, -0.01765374094247818, 0.045712538063526154, -0.0821174830198288, -0.042170967906713486, -0.17606064677238464, -0.005666998215019703, -0.0013634749921038747, -0.002588203176856041, 1.000638723373413, -1.2635430097579956, -1.366965413093567, 0.055759016424417496, 0.0, 0.0, 0.0, 0, 0, 0, 0, 0, 0, -1.2635430097579956, -1.366965413093567, 0.055759016424417496
13406, -0.01810057833790779, 0.04434870928525925, -0.08056632429361343, 0.06772063672542572, 0.1303054541349411, 0.2673480212688446, -0.0012049268698319793, -0.0029072577599436045, 1.0011290311813354, -1.2662603855133057, -1.3695392608642578, 0.055876411497592926, 0.0, 0.0, 0.0, 0, 0, 0, 0, 0, 0, -1.2662603855133057, -1.3695392608642578, 0.055876411497592926
13416, -0.01928255707025528, 0.04273352771997452, -0.08184955269098282, 0.010972362942993641, 0.18287356197834015, -0.18943007290363312, -0.0020068762823939323, -0.0018751636380329728, 1.0012866258621216, -1.268979787826538, -1.3721152544021606, 0.05599469691514969, 0.0, 0.0, 0.0, 0, 0, 0, 0, 0, 0, -1.268979787826538, -1.3721152544021606, 0.05599469691514969
13426, -0.019647279754281044, 0.04480361565947533, -0.0819757729768753, -0.013148205354809761, -0.23921945691108704, 0.041648369282484055, -0.003261938923969865, -0.0027422369457781315, 1.0013880729675293, -1.2717015743255615, -1.3746930360794067, 0.05611401051282883, 0.0, 0.0, 0.0, 0, 0, 0, 0, 0, 0, -1.2717015743255615, -1.3746930360794067, 0.05611401051282883
13436, -0.018819758668541908, 0.04343686252832413, -0.08172635734081268, 0.05279047414660454, 0.17609381675720215, 0.10115484893321991, -0.0022813831456005573, -0.00494153518229723, 1.0024033784866333, -1.2744266986846924, -1.3772728443145752, 0.056234583258628845, 0.0, 0.0, 0.0, 0, 0, 0, 0, 0, 0, -1.2744266986846924, -1.3772728443145752, 0.056234583258628845
13446, -0.018403107300400734, 0.0449766144156456, -0.08127932250499725, 0.10037597268819809, -0.08198265731334686, 0.07321979850530624, -0.002008441835641861, -0.0037798539269715548, 1.0010782480239868, -1.2771550416946411, -1.3798562288284302, 0.05635702610015869, 0.0, 0.0, 0.0, 0, 0, 0, 0, 0, 0, -1.2771550416946411, -1.3798562288284302, 0.05635702610015869
13456, -0.018214408308267593, 0.046200841665267944, -0.08153479546308517, 0.10066606104373932, -0.20539148151874542, 0.07637200504541397, -0.0014511068584397435, -0.0032299286685884, 1.000098466873169, -1.2798861265182495, -1.3824435472488403, 0.05648099258542061, 0.0, 0.0, 0.0, 0, 0, 0, 0, 0, 0, -1.2798861265182495, -1.3824435472488403, 0.05648099258542061
13466, -0.018798934295773506, 0.04646996036171913, -0.0811573788523674, -0.1385273039340973, 0.04677712544798851, 0.22417308390140533, -0.0025660800747573376, -0.001234657596796751, 1.001310110092163, -1.282619833946228, -1.3850338459014893, 0.05660560727119446, 0.0, 0.0, 0.0, 0, 0, 0, 0, 0, 0, -1.282619833946228, -1.3850338459014893, 0.05660560727119446
13476, -0.018721701577305794, 0.04650378227233887, -0.08187829703092575, 0.05826280638575554, -0.05651122331619263, 0.04319079965353012, -0.0035956227220594883, -0.001837251242250204, 0.999984085559845, -1.2853564023971558, -1.387626051902771, 0.0567309707403183, 0.0, 0.0, 0.0, 0, 0, 0, 0, 0, 0, -1.2853564023971558, -1.387626051902771, 0.0567309707403183
13486, -0.017756249755620956, 0.048587482422590256, -0.08118581771850586, 0.15222056210041046, -0.0382763147354126, 0.028274985030293465, -0.0024781140964478254, -0.0035560259129852057, 1.0007960796356201, -1.2880964279174805, -1.3902196884155273, 0.056856874376535416, 0.0, 0.0, 0.0, 0, 0, 0, 0, 0, 0, -1.2880964279174805, -1.3902196884155273, 0.056856874376535416
13496, -0.018392076715826988, 0.0505794957280159, -0.08167508989572525, -0.06787312030792236, -0.24481168389320374, 0.013633952476084232, -0.00435050530359149, -0.0024819897953420877, 1.0015106201171875, -1.2908402681350708, -1.3928157091140747, 0.056983061134815216, 0.0, 0.0, 0.0, 0, 0, 0, 0, 0, 0, -1.2908402681350708, -1.3928157091140747, 0.056983061134815216
13506, -0.018805215135216713, 0.05002756044268608, -0.08212293684482574, -0.01600266620516777, 0.12448174506425858, 0.06515198945999146, -0.0013790257507935166, -0.001914269058033824, 0.9999949336051941, -1.2935882806777954, -1.3954142332077026, 0.05711004510521889, 0.0, 0.0, 0.0, 0, 0, 0, 0, 0, 0, -1.2935882806777954, -1.3954142332077026, 0.05711004510521889
13516, -0.0171562097966671, 0.050446249544620514, -0.08255425095558167, 0.14380766451358795, -0.0018397324020043015, -0.09042773395776749, -0.0018747658468782902, -0.003241745289415121, 1.0004745721817017, -1.2963396310806274, -1.3980146646499634, 0.05723778158426285, 0.0, 0.0, 0.0, 0, 0, 0, 0, 0, 0, -1.2963396310806274, -1.3980146646499634, 0.05723778158426285
13526, -0.01826373115181923, 0.05063721537590027, -0.08213379979133606, -0.2209327518939972, -0.04652169346809387, 0.027792856097221375, -0.0030050212517380714, -0.002825692994520068, 1.0003910064697266, -1.29909348487854, -1.4006173610687256, 0.05736597254872322, 0.0, 0.0, 0.0, 0, 0, 0, 0, 0, 0, -1.29909348487854, -1.4006173610687256, 0.05736597254872322
13536, -0.018406080082058907, 0.051990751177072525, -0.08260179311037064, -0.09841659665107727, -0.09411591291427612, 0.0639614537358284, -0.0018417324172332883, -0.0014103770954534411, 0.9980910420417786, -1.3018507957458496, -1.403222680091858, 0.05749430134892464, 0.0, 0.0, 0.0, 0, 0, 0, 0, 0, 0, -1.3018507957458496, -1.403222680091858, 0.05749430134892464
13546, -0.01797269843518734, 0.050542477518320084, -0.0830569714307785, -0.010522216558456421, 0.16844119131565094, -0.026295088231563568, 0.00011290390830254182, -0.0013890838017687201, 0.9986076951026917, -1.304611086845398, -1.4058297872543335, 0.05762145668268204, 0.0, 0.0, 0.0, 0, 0, 0, 0, 0, 0, -1.304611086845398, -1.4058297872543335, 0.05762145668268204
13556, -0.019076230004429817, 0.05047633871436119, -0.08153528720140457, -0.09091754257678986, -0.1311824917793274, 0.134188711643219, -0.00031739514088258147, -0.0029606185853481293, 1.0000149011611938, -1.3073729276657104, -1.4084380865097046, 0.05774703994393349, 0.0, 0.0, 0.0, 0, 0, 0, 0, 0, 0, -1.3073729276657104, -1.4084380865097046, 0.05774703994393349
13566, -0.018270328640937805, 0.051004186272621155, -0.08326517045497894, 0.08020304143428802, 0.12428756058216095, -0.2735763192176819, -0.00250310474075377, -0.0010663226712495089, 1.0003091096878052, -1.3101359605789185, -1.411048173904419, 0.05787220597267151, 0.0, 0.0, 0.0, 0, 0, 0, 0, 0, 0, -1.3101359605789185, -1.411048173904419, 0.05787220597267151
13576, -0.018294604495167732, 0.05251495912671089, -0.08284209668636322, -0.047814469784498215, -0.2400563657283783, 0.12256719917058945, -0.0024805653374642134, -0.0032539975363761187, 0.9996459484100342, -1.312901258468628, -1.413659930229187, 0.05799756571650505, 0.0, 0.0, 0.0, 0, 0, 0, 0, 0, 0, -1.312901258468628, -1.413659930229187, 0.05799756571650505
13586, -0.01812402531504631, 0.053360238671302795, -0.08295787870883942, 0.0513240285217762, -0.0192553773522377, -0.15281261503696442, 0.0004812528204638511, -0.004079857841134071, 0.999712347984314, -1.3156697750091553, -1.416273593902588, 0.05812305212020874, 0.0, 0.0, 0.0, 0, 0, 0, 0, 0, 0, -1.3156697750091553, -1.416273593902588, 0.05812305212020874
13596, -0.017455432564020157, 0.05242198333144188, -0.0829138532280922, 0.13280412554740906, -0.13710330426692963, -0.13932660222053528, -0.002938830293715, -0.0033292958978563547, 0.9994317889213562, -1.3184400796890259, -1.418890357017517, 0.05824831873178482, 0.0, 0.0, 0.0, 0, 0, 0, 0, 0, 0, -1.3184400796890259, -1.418890357017517, 0.05824831873178482
13606, -0.018657658249139786, 0.05240008980035782, -0.08172217011451721, -0.22726872563362122, -0.09480788558721542, 0.10955466330051422, -0.004484710283577442, -0.0029970197938382626, 0.997800886631012, -1.321212649345398, -1.4215102195739746, 0.058373019099235535, 0.0, 0.0, 0.0, 0, 0, 0, 0, 0, 0, -1.321212649345398, -1.4215102195739746, 0.058373019099235535
13616, -0.01904461905360222, 0.05242316424846649, -0.08324192464351654, -0.12831786274909973, -0.06376086175441742, -0.2448440045118332, -0.0015612051356583834, -0.004780637100338936, 1.0012389421463013, -1.3239898681640625, -1.424133062362671, 0.05849667266011238, 0.0, 0.0, 0.0, 0, 0, 0, 0, 0, 0, -1.3239898681640625, -1.424133062362671, 0.05849667266011238
13626, -0.0194923784583807, 0.051594290882349014, -0.08228515088558197, -0.025040574371814728, -0.12296979129314423, 0.0452633798122406, -0.0015988228842616081, -0.004925931338220835, 1.0006988048553467, -1.3267709016799927, -1.4267596006393433, 0.05862003564834595, 0.0, 0.0, 0.0, 0, 0, 0, 0, 0, 0, -1.3267709016799927, -1.4267596006393433, 0.05862003564834595
13636, -0.020319167524576187, 0.05374695733189583, -0.08195630460977554, -0.01006936002522707, -0.059165772050619125, 0.03814290463924408, -0.0021590066608041525, -0.004958434030413628, 1.000737190246582, -1.3295543193817139, -1.4293906688690186, 0.05874425917863846, 0.0, 0.0, 0.0, 0, 0, 0, 0, 0, 0, -1.3295543193817139, -1.4293906688690186, 0.05874425917863846
13646, -0.020166046917438507, 0.05350150540471077, -0.08229347318410873, 0.036486417055130005, 0.006482369266450405, -0.14408960938453674, -0.0006180960917845368, -0.00210936414077878, 1.0007379055023193, -1.3323404788970947, -1.4320262670516968, 0.058869343250989914, 0.0, 0.0, 0.0, 0, 0, 0, 0, 0, 0, -1.3323404788970947, -1.4320262670516968, 0.058869343250989914
13656, -0.02000414952635765, 0.053778182715177536, -0.08297929912805557, 0.029364803805947304, 0.03969445079565048, -0.06179475784301758, -0.001715754740871489, -0.000981297460384667, 1.0004205703735352, -1.3351290225982666, -1.4346647262573242, 0.05899527668952942, 0.0, 0.0, 0.0, 0, 0, 0, 0, 0, 0, -1.3351290225982666, -1.4346647262573242, 0.05899527668952942
13666, -0.020088408142328262, 0.055044423788785934, -0.0818849727511406, -0.11404390633106232, -0.25010913610458374, 0.08326467871665955, -0.0030662131030112505, -0.003483706619590521, 0.9968573451042175, -1.33791983127594, -1.4373043775558472, 0.05912163108587265, 0.0, 0.0, 0.0, 0, 0, 0, 0, 0, 0, -1.33791983127594, -1.4373043775558472, 0.05912163108587265
13676, -0.020650556311011314, 0.05764167010784149, -0.08160070329904556, 0.021083852276206017, -0.39124757051467896, 0.01570073328912258, -0.0038354808930307627, -0.004609844647347927, 0.9987876415252686, -1.3407140970230103, -1.4399462938308716, 0.059246502816677094, 0.0, 0.0, 0.0, 0, 0, 0, 0, 0, 0, -1.3407140970230103, -1.4399462938308716, 0.059246502816677094
13686, -0.01963556930422783, 0.058185212314128876, -0.08234836161136627, 0.15287575125694275, -0.22481660544872284, 0.10052977502346039, -0.002730682725086808, -0.0013857256853953004, 1.0000776052474976, -1.3435126543045044, -1.4425914287567139, 0.059369418770074844, 0.0, 0.0, 0.0, 0, 0, 0, 0, 0, 0, -1.3435126543045044, -1.4425914287567139, 0.059369418770074844
13696, -0.01945316791534424, 0.0579618364572525, -0.08273284882307053, -0.018229234963655472, -0.08753450214862823, 0.01676020585000515, -0.00370089546777308, -0.0010261292336508632, 1.000718116760254, -1.3463153839111328, -1.4452388286590576, 0.05949198082089424, 0.0, 0.0, 0.0, 0, 0, 0, 0, 0, 0, -1.3463153839111328, -1.4452388286590576, 0.05949198082089424
13706, -0.020319323986768723, 0.059681009501218796, -0.08230594545602798, -0.03027978539466858, -0.15166538953781128, 0.08987462520599365, -0.002075114054605365, -0.00041444931412115693, 1.0018829107284546, -1.3491222858428955, -1.4478873014450073, 0.05961519479751587, 0.0, 0.0, 0.0, 0, 0, 0, 0, 0, 0, -1.3491222858428955, -1.4478873014450073, 0.05961519479751587
13716, -0.020698660984635353, 0.05999797210097313, -0.08343538641929626, -0.017019009217619896, 0.0348200760781765, -0.09964371472597122, -0.0021445907186716795, -0.0006393876974470913, 0.9997735023498535, -1.3519331216812134, -1.4505360126495361, 0.059739623218774796, 0.0, 0.0, 0.0, 0, 0, 0, 0, 0, 0, -1.3519331216812134, -1.4505360126495361, 0.059739623218774796
13726, -0.019806912168860435, 0.061347201466560364, -0.08357682079076767, 0.01044477429240942, -0.2003316581249237, 0.06546512246131897, -0.003606249811127782, -0.002891331212595105, 1.0001798868179321, -1.3547472953796387, -1.4531850814819336, 0.0598645880818367, 0.0, 0.0, 0.0, 0, 0, 0, 0, 0, 0, -1.3547472953796387, -1.4531850814819336, 0.0598645880818367
13736, -0.01820281706750393, 0.06066631153225899, -0.08254208415746689, 0.1909126192331314, 0.14979438483715057, 0.22951510548591614, -0.0037361232098191977, -0.003715944942086935, 1.0004706382751465, -1.3575655221939087, -1.4558360576629639, 0.05998954176902771, 0.0, 0.0, 0.0, 0, 0, 0, 0, 0, 0, -1.3575655221939087, -1.4558360576629639, 0.05998954176902771
13746, -0.017417149618268013, 0.0647977739572525, -0.0825536847114563, 0.11199010163545609, -0.33397260308265686, 0.17220497131347656, -0.0004474293382372707, -0.0030739528592675924, 1.0013904571533203, -1.3603882789611816, -1.4584901332855225, 0.060114774852991104, 0.0, 0.0, 0.0, 0, 0, 0, 0, 0, 0, -1.3603882789611816, -1.4584901332855225, 0.060114774852991104
13756, -0.018054669722914696, 0.0655149593949318, -0.08137388527393341, -0.040940865874290466, -0.14618131518363953, 0.008038843050599098, -0.001457057660445571, -0.003106493502855301, 1.0006095170974731, -1.363214135169983, -1.4611470699310303, 0.06024085357785225, 0.0, 0.0, 0.0, 0, 0, 0, 0, 0, 0, -1.363214135169983, -1.4611470699310303, 0.06024085357785225
13766, -0.01804659143090248, 0.06653179228305817, -0.08222406357526779, 0.014516965486109257, -0.02514767274260521, -0.15854918956756592, -0.0028508121613413095, -0.0014463973930105567, 1.0010292530059814, -1.3660422563552856, -1.463806390762329, 0.06036783754825592, 0.0, 0.0, 0.0, 0, 0, 0, 0, 0, 0, -1.3660422563552856, -1.463806390762329, 0.06036783754825592
13776, -0.018930062651634216, 0.0659361407160759, -0.08189902454614639, -0.14565245807170868, -0.10024792701005936, -0.25682947039604187, -0.0025540245696902275, -0.0015242014778777957, 0.9987218379974365, -1.3688734769821167, -1.4664674997329712, 0.06049531698226929, 0.0, 0.0, 0.0, 0, 0, 0, 0, 0, 0, -1.3688734769821167, -1.4664674997329712, 0.06049531698226929
13786, -0.01798812672495842, 0.06649406254291534, -0.08243551850318909, 0.107365183532238, 0.17785070836544037, -0.18698255717754364, -0.003074776381254196, -0.0022684973664581776, 0.999427080154419, -1.3717085123062134, -1.4691298007965088, 0.06062259152531624, 0.0, 0.0, 0.0, 0, 0, 0, 0, 0, 0, -1.3717085123062134, -1.4691298007965088, 0.06062259152531624
13796, -0.018899759277701378, 0.06739269196987152, -0.08136323094367981, -0.060080550611019135, -0.234745591878891, 0.12317131459712982, -0.003935792949050665, -0.005280310288071632, 1.0008522272109985, -1.3745476007461548, -1.4717937707901, 0.06074927747249603, 0.0, 0.0, 0.0, 0, 0, 0, 0, 0, 0, -1.3745476007461548, -1.4717937707901, 0.06074927747249603
13806, -0.01902981661260128, 0.06681998074054718, -0.0806051716208458, 0.02774135209619999, 0.03073699027299881, 0.1702248454093933, -0.0018708213465288281, -0.005260269157588482, 1.0005383491516113, -1.37739098072052, -1.474461555480957, 0.060876425355672836, 0.0, 0.0, 0.0, 0, 0, 0, 0, 0, 0, -1.37739098072052, -1.474461555480957, 0.060876425355672836
13816, -0.018558185547590256, 0.06750594079494476, -0.0807962641119957, 0.04133685678243637, -0.10605528950691223, -0.25022226572036743, -0.0013964734971523285, -0.0037190213333815336, 1.0021040439605713, -1.3802381753921509, -1.4771339893341064, 0.061004526913166046, 0.0, 0.0, 0.0, 0, 0, 0, 0, 0, 0, -1.3802381753921509, -1.4771339893341064, 0.061004526913166046
13826, -0.018165474757552147, 0.06729011237621307, -0.08093296736478806, 0.05274500697851181, 0.13878752291202545, 0.05674828588962555, -0.0022026279475539923, -0.0028260513208806515, 1.0012937784194946, -1.3830879926681519, -1.479810118675232, 0.06113390997052193, 0.0, 0.0, 0.0, 0, 0, 0, 0, 0, 0, -1.3830879926681519, -1.479810118675232, 0.06113390997052193
13836, -0.018883174285292625, 0.06785863637924194, -0.08016204088926315, -0.060525212436914444, -0.24379053711891174, 0.016309263184666634, -0.0020932648330926895, -0.0024851374328136444, 1.0027332305908203, -1.3859407901763916, -1.482488989830017, 0.06126490980386734, 0.0, 0.0, 0.0, 0, 0, 0, 0, 0, 0, -1.3859407901763916, -1.482488989830017, 0.06126490980386734
13846, -0.018582314252853394, 0.0665312111377716, -0.08129275590181351, -0.030004486441612244, -0.04577010124921799, -0.5180667042732239, -0.002810436300933361, -0.001475245808251202, 1.000206708908081, -1.3887969255447388, -1.4851701259613037, 0.061397794634103775, 0.0, 0.0, 0.0, 0, 0, 0, 0, 0, 0, -1.3887969255447388, -1.4851701259613037, 0.061397794634103775
13856, -0.017544806003570557, 0.06644203513860703, -0.08121928572654724, 0.2776573896408081, 0.10493481904268265, -0.013287173584103584, -0.001773774973116815, -0.0018924882169812918, 0.9990736842155457, -1.3916566371917725, -1.487852931022644, 0.06153183802962303, 0.0, 0.0, 0.0, 0, 0, 0, 0, 0, 0, -1.3916566371917725, -1.487852931022644, 0.06153183802962303
13866, -0.01831580325961113, 0.06920158118009567, -0.08267349004745483, -0.09157466143369675, -0.5107665061950684, -0.24418781697750092, -0.002108438406139612, -0.0015711360611021519, 1.0010319948196411, -1.3945196866989136, -1.490537166595459, 0.06166551262140274, 0.0, 0.0, 0.0, 0, 0, 0, 0, 0, 0, -1.3945196866989136, -1.490537166595459, 0.06166551262140274
13876, -0.018275471404194832, 0.0698944479227066, -0.08209989964962006, 0.006088776979595423, -0.20704668760299683, 0.07124745845794678, -0.0023057705257087946, -0.0024691263679414988, 1.0032846927642822, -1.3973857164382935, -1.493222951889038, 0.06179935485124588, 0.0, 0.0, 0.0, 0, 0, 0, 0, 0, 0, -1.3973857164382935, -1.493222951889038, 0.06179935485124588
13886, -0.018609479069709778, 0.07038639485836029, -0.08297945559024811, 0.01592242904007435, 0.04834899678826332, -0.12357287853956223, -0.0023953609634190798, -0.003852296154946089, 1.0002837181091309, -1.4002552032470703, -1.4959107637405396, 0.0619351789355278, 0.0, 0.0, 0.0, 0, 0, 0, 0, 0, 0, -1.4002552032470703, -1.4959107637405396, 0.0619351789355278
13896, -0.018016304820775986, 0.07002820819616318, -0.08273892849683762, 0.11768876016139984, 0.09334633499383926, -0.17269939184188843, -0.001344345510005951, -0.0018228220287710428, 0.9994398355484009, -1.4031280279159546, -1.4986011981964111, 0.062072426080703735, 0.0, 0.0, 0.0, 0, 0, 0, 0, 0, 0, -1.4031280279159546, -1.4986011981964111, 0.062072426080703735
13906, -0.01677972637116909, 0.06998850405216217, -0.08266176283359528, 0.2276289165019989, 0.1044779047369957, -0.008989558555185795, -0.0017867069691419601, -0.0012047543423250318, 1.0004812479019165, -1.4060038328170776, -1.5012938976287842, 0.06220961734652519, 0.0, 0.0, 0.0, 0, 0, 0, 0, 0, 0, -1.4060038328170776, -1.5012938976287842, 0.06220961734652519
13916, -0.018095245584845543, 0.06829314678907394, -0.08250706642866135, -0.17810767889022827, 0.20611712336540222, 0.0006685864645987749, -0.0022036863956600428, -0.0016017098678275943, 0.9990075826644897, -1.40888249874115, -1.5039875507354736, 0.062346894294023514, 0.0, 0.0, 0.0, 0, 0, 0, 0, 0, 0, -1.40888249874115, -1.5039875507354736, 0.062346894294023514
13926, -0.0184900164604187, 0.06859426200389862, -0.08181989192962646, -0.12176381051540375, 0.18099576234817505, 0.023002684116363525, -0.002101677469909191, -0.0032856962643563747, 0.999884843826294, -1.41176438331604, -1.506682276725769, 0.06248403713107109, 0.0, 0.0, 0.0, 0, 0, 0, 0, 0, 0, -1.41176438331604, -1.506682276725769, 0.06248403713107109
13936, -0.018233925104141235, 0.06703640520572662, -0.07990343868732452, -0.10505621135234833, 0.06483528763055801, 0.12464496493339539, -0.0015409088227897882, -0.0018776990473270416, 0.9994965195655823, -1.414649486541748, -1.509379267692566, 0.06262087821960449, 0.0, 0.0, 0.0, 0, 0, 0, 0, 0, 0, -1.414649486541748, -1.509379267692566, 0.06262087821960449
13946, -0.01873956434428692, 0.06763219088315964, -0.08094445616006851, -0.12850727140903473, 0.0041944244876503944, -0.015733089298009872, -0.0013766491319984198, -0.002544326474890113, 0.9997045397758484, -1.4175374507904053, -1.5120784044265747, 0.0627574697136879, 0.0, 0.0, 0.0, 0, 0, 0, 0, 0, 0, -1.4175374507904053, -1.5120784044265747, 0.0627574697136879
13956, -0.01939564011991024, 0.07028533518314362, -0.08267191797494888, 0.027745366096496582, -0.3081950545310974, -0.07823116332292557, -0.0014990429626777768, -0.0019428674131631851, 0.9996722936630249, -1.420427680015564, -1.5147792100906372, 0.06289373338222504, 0.0, 0.0, 0.0, 0, 0, 0, 0, 0, 0, -1.420427680015564, -1.5147792100906372, 0.06289373338222504
13966, -0.01835586503148079, 0.06999485194683075, -0.08278246223926544, 0.1029164120554924, -0.05840587988495827, -0.2681087851524353, -0.0024782053660601377, -0.0032418682239949703, 1.0027748346328735, -1.4233205318450928, -1.5174816846847534, 0.06302997469902039, 0.0, 0.0, 0.0, 0, 0, 0, 0, 0, 0, -1.4233205318450928, -1.5174816846847534, 0.06302997469902039
13976, -0.01898893155157566, 0.06982697546482086, -0.08400976657867432, -0.051914457231760025, -0.03810498118400574, -0.05012493208050728, -0.0015216307947412133, -0.0024541751481592655, 0.9983664155006409, -1.42621648311615, -1.520186185836792, 0.06316730380058289, 0.0, 0.0, 0.0, 0, 0, 0, 0, 0, 0, -1.42621648311615, -1.520186185836792, 0.06316730380058289
13986, -0.018218625336885452, 0.06867001205682755, -0.08312095701694489, 0.12491592764854431, 0.13530097901821136, -0.033619508147239685, -0.0032105818390846252, -0.0022749025374650955, 0.9984450936317444, -1.4291157722473145, -1.522892951965332, 0.06330494582653046, 0.0, 0.0, 0.0, 0, 0, 0, 0, 0, 0, -1.4291157722473145, -1.522892951965332, 0.06330494582653046
13996, -0.017752856016159058, 0.06907738745212555, -0.08484172075986862, 0.1450408697128296, -0.062007706612348557, -0.08641575276851654, -0.0011681063333526254, -0.0044054812751710415, 0.9993002414703369, -1.432018518447876, -1.5256019830703735, 0.06344098597764969, 0.0, 0.0, 0.0, 0, 0, 0, 0, 0, 0, -1.432018518447876, -1.5256019830703735, 0.06344098597764969
14006, -0.017749954015016556, 0.07040993869304657, -0.08520568907260895, -0.07966656237840652, -0.11737863719463348, -0.1558973640203476, -0.0006254111067391932, -0.0028431208338588476, 0.9987690448760986, -1.4349243640899658, -1.5283139944076538, 0.0635758712887764, 0.0, 0.0, 0.0, 0, 0, 0, 0, 0, 0, -1.4349243640899658, -1.5283139944076538, 0.0635758712887764
14016, -0.01768074929714203, 0.06989603489637375, -0.08517095446586609, 0.0710265263915062, -0.12643834948539734, -0.2719368040561676, -0.0015421495772898197, -0.0013713393127545714, 0.9988895058631897, -1.4378323554992676, -1.5310289859771729, 0.06370960921049118, 0.0, 0.0, 0.0, 0, 0, 0, 0, 0, 0, -1.4378323554992676, -1.5310289859771729, 0.06370960921049118
14026, -0.018025334924459457, 0.06960327178239822, -0.08546825498342514, -0.060729432851076126, 0.1760886013507843, -0.04436597228050232, -0.00228684744797647, -0.002728808904066682, 1.0004291534423828, -1.4407427310943604, -1.5337456464767456, 0.06384218484163284, 0.0, 0.0, 0.0, 0, 0, 0, 0, 0, 0, -1.4407427310943604, -1.5337456464767456, 0.06384218484163284
