timeTick, roll, pitch, yaw, gyroX, gyroY, gyroZ, accX, accY, accZ, stateX, stateY, stateZ, target_x, target_y, target_z, otX, otY, otZ, otRoll, otPitch, otYaw, kalX, kalY, kalZ
11874, 0.07273691147565842, -0.16852761805057526, 0.051867663860321045, 0, 0, 0, 0, 0, 0, 0, 0, 0, 0, 0, 0, 0, 0, 0, 0, 0, 0, 0, 0, 0
11884, 0.07166559994220734, -0.1673325002193451, 0.05084385350346565, -0.058921609073877335, -0.19629044830799103, -0.18015798926353455, -0.004304487723857164, -0.0020580985583364964, 0.9982434511184692, -1.110502004623413, -0.524440586566925, -0.14845560491085052, 0.0, 0.0, 0.0, 0, 0, 0, 0, 0, 0, -1.110502004623413, -0.524440586566925, -0.14845560491085052
11894, 0.0710451751947403, -0.16867326200008392, 0.05139385908842087, -0.049309585243463516, 0.24367132782936096, -0.0321652777493, -0.0025988686829805374, -0.0011144205927848816, 1.001247525215149, -1.1126807928085327, -0.5258668661117554, -0.14876502752304077, 0.0, 0.0, 0.0, 0, 0, 0, 0, 0, 0, -1.1126807928085327, -0.5258668661117554, -0.14876502752304077
11904, 0.07079862803220749, -0.16840985417366028, 0.05278393626213074, -0.02990012988448143, 0.013031449168920517, 0.12204711884260178, -0.002608554670587182, -0.0010127911809831858, 1.0032334327697754, -1.1148600578308105, -0.5272959470748901, -0.14907480776309967, 0.0, 0.0, 0.0, 0, 0, 0, 0, 0, 0, -1.1148600578308105, -0.5272959470748901, -0.14907480776309967
11914, 0.06964877247810364, -0.16960734128952026, 0.053568772971630096, -0.21191175282001495, 0.06270135194063187, 0.08600860089063644, -0.004225205630064011, -0.0007038929616101086, 0.9982472062110901, -1.1170390844345093, -0.5287272334098816, -0.14938300848007202, 0.0, 0.0, 0.0, 0, 0, 0, 0, 0, 0, -1.1170390844345093, -0.5287272334098816, -0.14938300848007202
11924, 0.07038047909736633, -0.16974937915802002, 0.05383295193314552, 0.11650998145341873, -0.0031015723943710327, 0.0083359619602561, -0.0031940406188368797, -0.0016158941434696317, 0.9969045519828796, -1.1192185878753662, -0.5301605463027954, -0.14969025552272797, 0.0, 0.0, 0.0, 0, 0, 0, 0, 0, 0, -1.1192185878753662, -0.5301605463027954, -0.14969025552272797
11934, 0.0710226371884346, -0.1689957231283188, 0.05393904820084572, 0.11743723601102829, -0.15760193765163422, 0.07014071941375732, -0.0034083204809576273, -0.0018423103028908372, 0.9996119141578674, -1.1213990449905396, -0.5315961241722107, -0.14999938011169434, 0.0, 0.0, 0.0, 0, 0, 0, 0, 0, 0, -1.1213990449905396, -0.5315961241722107, -0.14999938011169434
11944, 0.07118852436542511, -0.17006835341453552, 0.053659770637750626, -0.05494711548089981, 0.2428101897239685, -0.006410581059753895, -0.0028343205340206623, -0.0013456371380016208, 1.0017354488372803, -1.1235798597335815, -0.5330344438552856, -0.15031030774116516, 0.0, 0.0, 0.0, 0, 0, 0, 0, 0, 0, -1.1235798597335815, -0.5330344438552856, -0.15031030774116516
11954, 0.07058309018611908, -0.1699250340461731, 0.05362861230969429, -0.14691145718097687, 0.04755447059869766, -0.020258614793419838, -0.0036754561588168144, -0.0018514505354687572, 1.0020747184753418, -1.1257609128952026, -0.5344754457473755, -0.15062083303928375, 0.0, 0.0, 0.0, 0, 0, 0, 0, 0, 0, -1.1257609128952026, -0.5344754457473755, -0.15062083303928375
11964, 0.07125841826200485, -0.16968443989753723, 0.053809214383363724, 0.08096737414598465, 0.10321992635726929, 0.08217776566743851, -0.0015067391796037555, -0.0028705100994557142, 0.9984980225563049, -1.1279423236846924, -0.5359193086624146, -0.15092962980270386, 0.0, 0.0, 0.0, 0, 0, 0, 0, 0, 0, -1.1279423236846924, -0.5359193086624146, -0.15092962980270386
11974, 0.07190626859664917, -0.1681983917951584, 0.05298282578587532, 0.11600285023450851, -0.1449907273054123, -0.03911948204040527, -0.005707787815481424, -0.002243205439299345, 0.9998498558998108, -1.1301236152648926, -0.5373665690422058, -0.1512378752231598, 0.0, 0.0, 0.0, 0, 0, 0, 0, 0, 0, -1.1301236152648926, -0.5373665690422058, -0.1512378752231598
11984, 0.06990524381399155, -0.16913865506649017, 0.054502930492162704, -0.19411486387252808, 0.15946081280708313, 0.29072296619415283, -0.005375956185162067, -0.002321641892194748, 0.9982399344444275, -1.1323055028915405, -0.5388174057006836, -0.15154683589935303, 0.0, 0.0, 0.0, 0, 0, 0, 0, 0, 0, -1.1323055028915405, -0.5388174057006836, -0.15154683589935303
11994, 0.07038386911153793, -0.16836579144001007, 0.05390012636780739, 0.1313219517469406, -0.1788724660873413, -0.10707372426986694, -0.00331266806460917, -0.0010446611559018493, 0.9984310269355774, -1.1344895362854004, -0.5402716994285583, -0.15185673534870148, 0.0, 0.0, 0.0, 0, 0, 0, 0, 0, 0, -1.1344895362854004, -0.5402716994285583, -0.15185673534870148
12004, 0.07043053209781647, -0.16857683658599854, 0.053194232285022736, 0.016394859179854393, 0.13462603092193604, -0.12209124863147736, -0.006187036167830229, -0.0023568645119667053, 0.9992297887802124, -1.1366748809814453, -0.5417289137840271, -0.15216819941997528, 0.0, 0.0, 0.0, 0, 0, 0, 0, 0, 0, -1.1366748809814453, -0.5417289137840271, -0.15216819941997528
12014, 0.07028105854988098, -0.16704794764518738, 0.05310672149062157, -0.003560959128662944, -0.21852634847164154, 0.03966081887483597, -0.004870191682130098, -0.0011021742830052972, 0.9994798898696899, -1.138861894607544, -0.5431890487670898, -0.15248097479343414, 0.0, 0.0, 0.0, 0, 0, 0, 0, 0, 0, -1.138861894607544, -0.5431890487670898, -0.15248097479343414
12024, 0.0708797350525856, -0.1679183840751648, 0.053119562566280365, 0.15533693134784698, -0.007678200025111437, 0.0009283970575779676, -0.005033038090914488, -0.0011745741358026862, 1.0014036893844604, -1.1410515308380127, -0.544651985168457, -0.1527944952249527, 0.0, 0.0, 0.0, 0, 0, 0, 0, 0, 0, -1.1410515308380127, -0.544651985168457, -0.1527944952249527
12034, 0.07056201994419098, -0.1669548749923706, 0.05310306325554848, -0.0264896210283041, -0.21473419666290283, 0.008124912157654762, -0.003261482808738947, -0.0014839537907391787, 1.0019482374191284, -1.1432433128356934, -0.5461172461509705, -0.15310771763324738, 0.0, 0.0, 0.0, 0, 0, 0, 0, 0, 0, -1.1432433128356934, -0.5461172461509705, -0.15310771763324738
12044, 0.07024500519037247, -0.16572628915309906, 0.05378478020429611, -0.035953834652900696, -0.2364499270915985, 0.054627012461423874, -0.003743895795196295, -0.001187861547805369, 1.0018123388290405, -1.145436406135559, -0.5475850701332092, -0.15341949462890625, 0.0, 0.0, 0.0, 0, 0, 0, 0, 0, 0, -1.145436406135559, -0.5475850701332092, -0.15341949462890625
12054, 0.07083718478679657, -0.16762670874595642, 0.05339333415031433, 0.08906631916761398, 0.14384281635284424, -0.17329521477222443, -0.0044504981487989426, -0.0003312760964035988, 1.0000438690185547, -1.147630214691162, -0.5490554571151733, -0.15372949838638306, 0.0, 0.0, 0.0, 0, 0, 0, 0, 0, 0, -1.147630214691162, -0.5490554571151733, -0.15372949838638306
12064, 0.07049071043729782, -0.1676439493894577, 0.054190993309020996, -0.03127244487404823, -0.03370010480284691, 0.133933424949646, -0.002972106449306011, -0.0012658090563490987, 1.0001176595687866, -1.149825096130371, -0.5505279302597046, -0.15403829514980316, 0.0, 0.0, 0.0, 0, 0, 0, 0, 0, 0, -1.149825096130371, -0.5505279302597046, -0.15403829514980316
12074, 0.07006927579641342, -0.1657710075378418, 0.054392337799072266, -0.04870951548218727, -0.23265740275382996, -0.054011087864637375, -0.0018136217258870602, -0.001515464740805328, 1.0010532140731812, -1.1520206928253174, -0.5520024299621582, -0.1543467789888382, 0.0, 0.0, 0.0, 0, 0, 0, 0, 0, 0, -1.1520206928253174, -0.5520024299621582, -0.1543467789888382
12084, 0.07074239104986191, -0.16463662683963776, 0.05415508523583412, 0.16383928060531616, -0.0627792626619339, -0.0941857099533081, -0.0030135861597955227, -0.0013235692167654634, 1.0002444982528687, -1.1542160511016846, -0.5534794330596924, -0.15465466678142548, 0.0, 0.0, 0.0, 0, 0, 0, 0, 0, 0, -1.1542160511016846, -0.5534794330596924, -0.15465466678142548
12094, 0.07105845212936401, -0.16462215781211853, 0.05376843735575676, 0.06335114687681198, -0.0016211278270930052, -0.14120443165302277, -0.006269828882068396, -0.0003220186335965991, 1.000859260559082, -1.156411051750183, -0.5549590587615967, -0.15496186912059784, 0.0, 0.0, 0.0, 0, 0, 0, 0, 0, 0, -1.156411051750183, -0.5549590587615967, -0.15496186912059784
12104, 0.07083804160356522, -0.16366542875766754, 0.05353132635354996, 0.0052027921192348, -0.25172027945518494, 0.06668096035718918, -0.003989074379205704, 0.0004883837536908686, 1.0015794038772583, -1.1586076021194458, -0.5564407110214233, -0.15526877343654633, 0.0, 0.0, 0.0, 0, 0, 0, 0, 0, 0, -1.1586076021194458, -0.5564407110214233, -0.15526877343654633
12114, 0.07103245705366135, -0.16268855333328247, 0.05350697413086891, 0.09775921702384949, -0.21451649069786072, -0.033008117228746414, -0.004475559573620558, 0.0009854151867330074, 1.0012553930282593, -1.1608061790466309, -0.5579237937927246, -0.1555747389793396, 0.0, 0.0, 0.0, 0, 0, 0, 0, 0, 0, -1.1608061790466309, -0.5579237937927246, -0.1555747389793396
12124, 0.07100320607423782, -0.16112180054187775, 0.05286148190498352, -0.057620517909526825, -0.20661291480064392, -0.12139642238616943, -0.003187397262081504, -0.0015027155168354511, 0.9986540079116821, -1.1630059480667114, -0.5594075918197632, -0.15587912499904633, 0.0, 0.0, 0.0, 0, 0, 0, 0, 0, 0, -1.1630059480667114, -0.5594075918197632, -0.15587912499904633
12134, 0.07169696688652039, -0.1599465161561966, 0.053611114621162415, 0.1487036645412445, -0.191507488489151, 0.05890454724431038, -0.00344922230578959, -0.0011033874470740557, 1.0000754594802856, -1.1652066707611084, -0.5608925819396973, -0.156183123588562, 0.0, 0.0, 0.0, 0, 0, 0, 0, 0, 0, -1.1652066707611084, -0.5608925819396973, -0.156183123588562
12144, 0.07241149246692657, -0.16038817167282104, 0.05293508991599083, 0.015904704108834267, -0.12007150799036026, -0.1028149351477623, -0.002733540954068303, -0.0016038797330111265, 0.9994224309921265, -1.1674081087112427, -0.5623800158500671, -0.15648777782917023, 0.0, 0.0, 0.0, 0, 0, 0, 0, 0, 0, -1.1674081087112427, -0.5623800158500671, -0.15648777782917023
12154, 0.07405468076467514, -0.16030395030975342, 0.05420812591910362, 0.15294291079044342, -0.001940462738275528, 0.16722533106803894, -0.0013510914286598563, -0.0007041717763058841, 1.0006494522094727, -1.169609785079956, -0.5638701319694519, -0.15679287910461426, 0.0, 0.0, 0.0, 0, 0, 0, 0, 0, 0, -1.169609785079956, -0.5638701319694519, -0.15679287910461426
12164, 0.07310865074396133, -0.15921206772327423, 0.05428174510598183, -0.2328999787569046, -0.1473122239112854, 0.0037604367826133966, -0.0027222326025366783, -0.0006753747002221644, 1.0006778240203857, -1.1718108654022217, -0.5653628706932068, -0.15709801018238068, 0.0, 0.0, 0.0, 0, 0, 0, 0, 0, 0, -1.1718108654022217, -0.5653628706932068, -0.15709801018238068
12174, 0.07296726852655411, -0.16050000488758087, 0.05448952317237854, 0.009220617823302746, 0.056215252727270126, 0.11254999786615372, -0.004148510750383139, -0.002201150869950652, 1.0004056692123413, -1.17401123046875, -0.5668578147888184, -0.15740269422531128, 0.0, 0.0, 0.0, 0, 0, 0, 0, 0, 0, -1.17401123046875, -0.5668578147888184, -0.15740269422531128
12184, 0.07332148402929306, -0.15974146127700806, 0.0547388456761837, 0.03371473029255867, -0.18646998703479767, 0.061558857560157776, -0.0037153486628085375, -0.002280414802953601, 0.9989691972732544, -1.176211953163147, -0.568355143070221, -0.15770679712295532, 0.0, 0.0, 0.0, 0, 0, 0, 0, 0, 0, -1.176211953163147, -0.568355143070221, -0.15770679712295532
12194, 0.07311595231294632, -0.16007167100906372, 0.05458103492856026, -0.08875367790460587, 0.15543623268604279, -0.17257925868034363, -0.003575269365683198, -0.001611977000720799, 0.9991906881332397, -1.17841374874115, -0.5698556900024414, -0.1580110341310501, 0.0, 0.0, 0.0, 0, 0, 0, 0, 0, 0, -1.17841374874115, -0.5698556900024414, -0.1580110341310501
12204, 0.07363317161798477, -0.16098299622535706, 0.05614830181002617, 0.14020982384681702, 0.22819660604000092, 0.14183799922466278, -0.005014666821807623, -0.0008050694013945758, 0.9999045133590698, -1.1806163787841797, -0.5713595747947693, -0.1583162099123001, 0.0, 0.0, 0.0, 0, 0, 0, 0, 0, 0, -1.1806163787841797, -0.5713595747947693, -0.1583162099123001
12214, 0.07245808094739914, -0.1619357317686081, 0.055670399218797684, -0.1579185277223587, 0.06023493409156799, -0.0747920572757721, -0.004940900020301342, 0.0005181868909858167, 1.0004521608352661, -1.1828203201293945, -0.5728661417961121, -0.15862201154232025, 0.0, 0.0, 0.0, 0, 0, 0, 0, 0, 0, -1.1828203201293945, -0.5728661417961121, -0.15862201154232025
12224, 0.07253715395927429, -0.16262610256671906, 0.055937834084033966, 0.03313745930790901, 0.006609506439417601, 0.011708400212228298, -0.0037555028684437275, -0.0016607593279331923, 0.9995346665382385, -1.1850264072418213, -0.574374258518219, -0.15892766416072845, 0.0, 0.0, 0.0, 0, 0, 0, 0, 0, 0, -1.1850264072418213, -0.574374258518219, -0.15892766416072845
12234, 0.07127205282449722, -0.16421037912368774, 0.055557120591402054, -0.018980875611305237, 0.1434493213891983, -0.07559111714363098, -0.00472775474190712, -0.004831045400351286, 0.9989927411079407, -1.1872342824935913, -0.5758839249610901, -0.15923313796520233, 0.0, 0.0, 0.0, 0, 0, 0, 0, 0, 0, -1.1872342824935913, -0.5758839249610901, -0.15923313796520233
12244, 0.07122363895177841, -0.16408255696296692, 0.056667014956474304, 0.10852576047182083, 0.07112439721822739, 0.17966343462467194, -0.004454884212464094, -0.004159101285040379, 0.9990604519844055, -1.1894437074661255, -0.5773974657058716, -0.1595391184091568, 0.0, 0.0, 0.0, 0, 0, 0, 0, 0, 0, -1.1894437074661255, -0.5773974657058716, -0.1595391184091568
12254, 0.07053474336862564, -0.1649889498949051, 0.0565691776573658, 0.004352004267275333, 0.16055074334144592, 0.057207588106393814, -0.0038054713513702154, -0.002063221763819456, 0.9996802806854248, -1.1916546821594238, -0.5789163708686829, -0.15984612703323364, 0.0, 0.0, 0.0, 0, 0, 0, 0, 0, 0, -1.1916546821594238, -0.5789163708686829, -0.15984612703323364
12264, 0.07114581763744354, -0.1650484800338745, 0.056256670504808426, 0.15626643598079681, 0.06056300923228264, 0.025539647787809372, -0.0028240063693374395, -0.00191930599976331, 1.0015149116516113, -1.1938668489456177, -0.5804398059844971, -0.16015389561653137, 0.0, 0.0, 0.0, 0, 0, 0, 0, 0, 0, -1.1938668489456177, -0.5804398059844971, -0.16015389561653137
12274, 0.07098477333784103, -0.16408365964889526, 0.05659308284521103, -0.06856198608875275, -0.03373384103178978, -0.07510250806808472, -0.003082487965002656, -0.0011246614158153534, 0.999812662601471, -1.1960796117782593, -0.5819666385650635, -0.1604614108800888, 0.0, 0.0, 0.0, 0, 0, 0, 0, 0, 0, -1.1960796117782593, -0.5819666385650635, -0.1604614108800888
12284, 0.07119033485651016, -0.1629757583141327, 0.056440290063619614, 0.03044603019952774, -0.14998102188110352, 0.013361277990043163, -0.004089945927262306, -0.0015463007148355246, 0.9990186095237732, -1.1982924938201904, -0.5834962725639343, -0.16076843440532684, 0.0, 0.0, 0.0, 0, 0, 0, 0, 0, 0, -1.1982924938201904, -0.5834962725639343, -0.16076843440532684
12294, 0.07192813605070114, -0.16190890967845917, 0.05641230195760727, 0.1604691445827484, -0.09703607112169266, 0.14651258289813995, -0.004160181153565645, -0.0009629327105358243, 1.0004162788391113, -1.2005059719085693, -0.5850285887718201, -0.1610756516456604, 0.0, 0.0, 0.0, 0, 0, 0, 0, 0, 0, -1.2005059719085693, -0.5850285887718201, -0.1610756516456604
12304, 0.07192283868789673, -0.1608753651380539, 0.05696965008974075, -0.09499513357877731, 0.0041777887381613255, 0.05511348694562912, -0.004188361577689648, -0.0018358747474849224, 0.9989803433418274, -1.2027205228805542, -0.5865633487701416, -0.16138315200805664, 0.0, 0.0, 0.0, 0, 0, 0, 0, 0, 0, -1.2027205228805542, -0.5865633487701416, -0.16138315200805664
12314, 0.07118169218301773, -0.16042867302894592, 0.05685035511851311, -0.13612353801727295, 0.11507754027843475, -0.08885413408279419, -0.0053822556510567665, -0.0013022305211052299, 0.9971818923950195, -1.2049363851547241, -0.5881006121635437, -0.1616910696029663, 0.0, 0.0, 0.0, 0, 0, 0, 0, 0, 0, -1.2049363851547241, -0.5881006121635437, -0.1616910696029663
12324, 0.07141952961683273, -0.16040313243865967, 0.057023290544748306, -4.677637480199337e-05, -0.05645415559411049, -0.1125551387667656, -0.0027188165113329887, -0.00026920114760287106, 1.000382661819458, -1.2071540355682373, -0.5896404981613159, -0.16200077533721924, 0.0, 0.0, 0.0, 0, 0, 0, 0, 0, 0, -1.2071540355682373, -0.5896404981613159, -0.16200077533721924
12334, 0.0710255578160286, -0.16120950877666473, 0.05661725625395775, -0.1782563030719757, 0.09193731844425201, -0.03088352270424366, -0.0027641477063298225, -0.0010863645002245903, 1.0030696392059326, -1.209372878074646, -0.5911823511123657, -0.16231182217597961, 0.0, 0.0, 0.0, 0, 0, 0, 0, 0, 0, -1.209372878074646, -0.5911823511123657, -0.16231182217597961
12344, 0.07154237478971481, -0.16254191100597382, 0.05525774508714676, 0.03580036386847496, 0.38584426045417786, -0.03751501441001892, -0.0019672978669404984, -0.000601932464633137, 1.000961422920227, -1.2115918397903442, -0.5927261114120483, -0.16262176632881165, 0.0, 0.0, 0.0, 0, 0, 0, 0, 0, 0, -1.2115918397903442, -0.5927261114120483, -0.16262176632881165
12354, 0.0714302510023117, -0.16132652759552002, 0.05502631142735481, -0.06254062056541443, 0.02275964803993702, 0.06622616201639175, -0.004230529069900513, -0.0014623734168708324, 1.0002411603927612, -1.2138105630874634, -0.5942718982696533, -0.16292986273765564, 0.0, 0.0, 0.0, 0, 0, 0, 0, 0, 0, -1.2160296440124512, -0.5958195924758911, -0.16323715448379517
12364, 0.07121330499649048, -0.16087152063846588, 0.054187845438718796, -0.09232746064662933, -0.0814538225531578, -0.11712652444839478, -0.005309554282575846, -0.001648104633204639, 0.9998188614845276, -1.2160296440124512, -0.5958195924758911, -0.16323715448379517, 0.0, 0.0, 0.0, 0, 0, 0, 0, 0, 0, -1.2160296440124512, -0.5958195924758911, -0.16323715448379517
12374, 0.07148028165102005, -0.16035312414169312, 0.05423128604888916, 0.004494364373385906, -0.20621629059314728, -0.0985770896077156, -0.004412436857819557, -0.002382737584412098, 1.0004127025604248, -1.2182506322860718, -0.5973697900772095, -0.16354449093341827, 0.0, 0.0, 0.0, 0, 0, 0, 0, 0, 0, -1.2204737663269043, -0.5989230275154114, -0.1638518124818802
12384, 0.07135361433029175, -0.16226716339588165, 0.056333910673856735, -0.03705663979053497, 0.29906851053237915, 0.22551819682121277, -0.0024178833700716496, -0.0024724213872104883, 0.9982926249504089, -1.2204737663269043, -0.5989230275154114, -0.1638518124818802, 0.0, 0.0, 0.0, 0, 0, 0, 0, 0, 0, -1.2204737663269043, -0.5989230275154114, -0.1638518124818802
12394, 0.07183980941772461, -0.16147825121879578, 0.05658078193664551, 0.07197321206331253, -0.16611984372138977, 0.03898448497056961, -0.0026281808968633413, 0.0003108402306679636, 1.001429796218872, -1.2226977348327637, -0.600479781627655, -0.1641596406698227, 0.0, 0.0, 0.0, 0, 0, 0, 0, 0, 0, -1.2226977348327637, -0.600479781627655, -0.1641596406698227
12404, 0.07179110497236252, -0.16052639484405518, 0.056424207985401154, -0.02905317209661007, -0.09812355041503906, 0.05158716067671776, -0.0017065854044631124, 0.00028018205193802714, 1.0003337860107422, -1.224921703338623, -0.6020391583442688, -0.16446784138679504, 0.0, 0.0, 0.0, 0, 0, 0, 0, 0, 0, -1.2271450757980347, -0.6035998463630676, -0.16477540135383606
12414, 0.07163576781749725, -0.16262836754322052, 0.05682651698589325, 0.031797006726264954, 0.2427327185869217, 0.234740749001503, -0.0009103478514589369, -0.002277149586006999, 1.000603437423706, -1.2271450757980347, -0.6035998463630676, -0.16477540135383606, 0.0, 0.0, 0.0, 0, 0, 0, 0, 0, 0, -1.2293672561645508, -0.6051625609397888, -0.16508238017559052
12424, 0.07127167284488678, -0.16334852576255798, 0.05715648829936981, -0.0016735559329390526, 0.29392069578170776, 0.07325072586536407, -0.0015373526839539409, 0.0004649791226256639, 1.0002057552337646, -1.2293672561645508, -0.6051625609397888, -0.16508238017559052, 0.0, 0.0, 0.0, 0, 0, 0, 0, 0, 0, -1.2315880060195923, -0.6067273616790771, -0.16538912057876587
12434, 0.07160857319831848, -0.162760928273201, 0.05796976760029793, 0.10027977079153061, 0.009222119115293026, 0.07175008952617645, -0.004719536751508713, 0.0016650579636916518, 0.9999810457229614, -1.2315880060195923, -0.6067273616790771, -0.16538912057876587, 0.0, 0.0, 0.0, 0, 0, 0, 0, 0, 0, -1.2315880060195923, -0.6067273616790771, -0.16538912057876587
12444, 0.07131333649158478, -0.16176737844944, 0.0575362965464592, -0.019108735024929047, -0.11149493604898453, 0.01826540194451809, -0.005674995016306639, 0.0005792634328827262, 0.9987415075302124, -1.2338087558746338, -0.6082925796508789, -0.16569599509239197, 0.0, 0.0, 0.0, 0, 0, 0, 0, 0, 0, -1.236031413078308, -0.6098577976226807, -0.16600343585014343
12454, 0.07145222276449203, -0.16274422407150269, 0.05708691105246544, 0.0525929257273674, 0.1947847157716751, -0.023296646773815155, -0.004287090618163347, -0.002020469168201089, 0.9996984601020813, -1.236031413078308, -0.6098577976226807, -0.16600343585014343, 0.0, 0.0, 0.0, 0, 0, 0, 0, 0, 0, -1.2382560968399048, -0.6114246249198914, -0.1663115918636322
12464, 0.07150521129369736, -0.16447938978672028, 0.056958626955747604, 0.0731651782989502, 0.34001782536506653, 0.0585688017308712, -0.0038531492464244366, -0.0028631046880036592, 1.0008466243743896, -1.2382560968399048, -0.6114246249198914, -0.1663115918636322, 0.0, 0.0, 0.0, 0, 0, 0, 0, 0, 0, -1.2382560968399048, -0.6114246249198914, -0.1663115918636322
12474, 0.07250367105007172, -0.16596224904060364, 0.058026861399412155, 0.08875463157892227, 0.27488839626312256, -0.0022581180091947317, -0.005186416674405336, -0.002278087427839637, 0.9994054436683655, -1.2404818534851074, -0.6129948496818542, -0.166619673371315, 0.0, 0.0, 0.0, 0, 0, 0, 0, 0, 0, -1.2427090406417847, -0.6145690083503723, -0.1669275015592575
12484, 0.07375307381153107, -0.16568587720394135, 0.05762551724910736, 0.2601470649242401, 0.06766188889741898, 0.05716346576809883, -0.00519931735470891, -0.000567372830118984, 0.999996542930603, -1.2427090406417847, -0.6145690083503723, -0.1669275015592575, 0.0, 0.0, 0.0, 0, 0, 0, 0, 0, 0, -1.2449383735656738, -0.6161460876464844, -0.16723546385765076
12494, 0.0743892639875412, -0.16605421900749207, 0.058234088122844696, 0.07845433056354523, 0.24020086228847504, 0.17848651111125946, -0.002850017976015806, -0.0014835941838100553, 0.998224139213562, -1.2449383735656738, -0.6161460876464844, -0.16723546385765076, 0.0, 0.0, 0.0, 0, 0, 0, 0, 0, 0, -1.2471692562103271, -0.6177253723144531, -0.1675441414117813
12504, 0.07554574310779572, -0.16506819427013397, 0.05730244144797325, 0.07729502767324448, -0.05154922977089882, -0.2573685348033905, -0.0035365403164178133, 0.0006589635740965605, 0.9994214773178101, -1.2471692562103271, -0.6177253723144531, -0.1675441414117813, 0.0, 0.0, 0.0, 0, 0, 0, 0, 0, 0, -1.2494006156921387, -0.6193066239356995, -0.16785408556461334
12514, 0.07554365694522858, -0.16618111729621887, 0.05603907257318497, -0.10425850003957748, 0.23160821199417114, -0.2309609204530716, -0.0010869299294427037, 0.00048214735579676926, 1.0000956058502197, -1.2494006156921387, -0.6193066239356995, -0.16785408556461334, 0.0, 0.0, 0.0, 0, 0, 0, 0, 0, 0, -1.251631736755371, -0.6208888292312622, -0.16816455125808716
12524, 0.07512911409139633, -0.16683343052864075, 0.055469170212745667, -0.10201569646596909, 0.11201079189777374, -0.06651818007230759, -0.002333962358534336, -0.0014509130269289017, 0.9988890290260315, -1.251631736755371, -0.6208888292312622, -0.16816455125808716, 0.0, 0.0, 0.0, 0, 0, 0, 0, 0, 0, -1.253861904144287, -0.6224725246429443, -0.16847534477710724
12534, 0.0748942643404007, -0.1669934093952179, 0.057149048894643784, -0.005728196818381548, -0.05702386051416397, 0.1467069834470749, -0.002639250596985221, -0.0016662718262523413, 0.9989743828773499, -1.253861904144287, -0.6224725246429443, -0.16847534477710724, 0.0, 0.0, 0.0, 0, 0, 0, 0, 0, 0, -1.2560912370681763, -0.6240589618682861, -0.1687871515750885
12544, 0.0750325545668602, -0.16905690729618073, 0.05678777024149895, -0.04073447361588478, 0.2995903491973877, 0.05123252421617508, -0.003954393323510885, -6.613589357584715e-05, 1.0009055137634277, -1.2560912370681763, -0.6240589618682861, -0.1687871515750885, 0.0, 0.0, 0.0, 0, 0, 0, 0, 0, 0, -1.2583204507827759, -0.625647783279419, -0.16909952461719513
12554, 0.07505258172750473, -0.16900642216205597, 0.05668008700013161, 0.01578092947602272, -0.04521579295396805, -0.10399283468723297, -0.00425409059971571, 0.0005167800700291991, 0.999893844127655, -1.2583204507827759, -0.625647783279419, -0.16909952461719513, 0.0, 0.0, 0.0, 0, 0, 0, 0, 0, 0, -1.260550618171692, -0.6272380948066711, -0.16941189765930176
12564, 0.0749375969171524, -0.1692718118429184, 0.05618075653910637, 0.014765731990337372, -0.03465007245540619, -0.11093079298734665, -0.003468806156888604, 2.2713744328939356e-05, 0.9988336563110352, -1.260550618171692, -0.6272380948066711, -0.16941189765930176, 0.0, 0.0, 0.0, 0, 0, 0, 0, 0, 0, -1.2627816200256348, -0.6288294792175293, -0.16972452402114868
12574, 0.07537228614091873, -0.16932813823223114, 0.05569448322057724, -0.0007476997561752796, -0.06445219367742538, 0.04040934890508652, -0.0022887922823429108, -0.002092875074595213, 1.0001840591430664, -1.2627816200256348, -0.6288294792175293, -0.16972452402114868, 0.0, 0.0, 0.0, 0, 0, 0, 0, 0, 0, -1.2650127410888672, -0.6304229497909546, -0.1700374335050583
12584, 0.07552352547645569, -0.17068730294704437, 0.058407705277204514, 0.061373282223939896, 0.018699606880545616, 0.3935556709766388, -0.004072890616953373, -0.0029690524097532034, 1.0009692907333374, -1.2650127410888672, -0.6304229497909546, -0.1700374335050583, 0.0, 0.0, 0.0, 0, 0, 0, 0, 0, 0, -1.2672441005706787, -0.6320197582244873, -0.17035003006458282
12594, 0.07641272246837616, -0.17052632570266724, 0.05927448719739914, 0.07837455719709396, -0.06296981126070023, 0.0013457649620249867, -0.004775893874466419, 6.241830124054104e-05, 1.0011826753616333, -1.2672441005706787, -0.6320197582244873, -0.17035003006458282, 0.0, 0.0, 0.0, 0, 0, 0, 0, 0, 0, -1.2672441005706787, -0.6320197582244873, -0.17035003006458282
12604, 0.07693794369697571, -0.16879461705684662, 0.059942763298749924, 0.07785012573003769, -0.1382633000612259, 0.160373717546463, -0.002515054540708661, -0.00015523986076004803, 0.9996864795684814, -1.269700050354004, -0.6337793469429016, -0.17069299519062042, 0.0, 0.0, 0.0, 0, 0, 0, 0, 0, 0, -1.269700050354004, -0.6337793469429016, -0.17069299519062042
12614, 0.07716581970453262, -0.16834867000579834, 0.05888527259230614, 0.0404919795691967, 0.03613830730319023, -0.011224251240491867, -0.005396333523094654, 0.00039652985287830234, 1.0004898309707642, -1.271933913230896, -0.6353805065155029, -0.17100420594215393, 0.0, 0.0, 0.0, 0, 0, 0, 0, 0, 0, -1.271933913230896, -0.6353805065155029, -0.17100420594215393
12624, 0.07668344676494598, -0.16774117946624756, 0.05895480141043663, -0.10086055099964142, -0.10322242975234985, 0.11551421135663986, -0.006644775625318289, -0.0012237608898431063, 0.9989477396011353, -1.2741687297821045, -0.6369826793670654, -0.17131519317626953, 0.0, 0.0, 0.0, 0, 0, 0, 0, 0, 0, -1.2741687297821045, -0.6369826793670654, -0.17131519317626953
12634, 0.07618888467550278, -0.16891513764858246, 0.058154575526714325, -0.08909077942371368, 0.22933289408683777, -0.03617658093571663, -0.005625991150736809, -0.0010635110083967447, 0.9997162222862244, -1.2764064073562622, -0.6385864019393921, -0.17162644863128662, 0.0, 0.0, 0.0, 0, 0, 0, 0, 0, 0, -1.2764064073562622, -0.6385864019393921, -0.17162644863128662
12644, 0.07590704411268234, -0.1675184965133667, 0.056210171431303024, -0.06185942888259888, -0.24405889213085175, -0.07531449943780899, -0.005269096232950687, -0.00217831926420331, 0.9984087347984314, -1.2786471843719482, -0.6401922702789307, -0.17193828523159027, 0.0, 0.0, 0.0, 0, 0, 0, 0, 0, 0, -1.2786471843719482, -0.6401922702789307, -0.17193828523159027
12654, 0.075279101729393, -0.1666189283132553, 0.05527600273489952, -0.06484049558639526, -0.18266458809375763, 0.03390277177095413, -0.0030393737833946943, -0.0017594171222299337, 0.9968329071998596, -1.2808902263641357, -0.6418008804321289, -0.1722511649131775, 0.0, 0.0, 0.0, 0, 0, 0, 0, 0, 0, -1.2808902263641357, -0.6418008804321289, -0.1722511649131775
12664, 0.07504291087388992, -0.16948476433753967, 0.056116245687007904, 0.01574912667274475, 0.31343111395835876, 0.05682139843702316, -0.0038209662307053804, -0.0027478134725242853, 0.9988740086555481, -1.2831345796585083, -0.643412709236145, -0.17256635427474976, 0.0, 0.0, 0.0, 0, 0, 0, 0, 0, 0, -1.2831345796585083, -0.643412709236145, -0.17256635427474976
12674, 0.07484947144985199, -0.17017005383968353, 0.05466241389513016, -0.07853724807500839, -0.10553986579179764, -0.2384289652109146, -0.005318675190210342, -0.0042113326489925385, 0.9981490969657898, -1.2853796482086182, -0.6450282335281372, -0.17288373410701752, 0.0, 0.0, 0.0, 0, 0, 0, 0, 0, 0, -1.2853796482086182, -0.6450282335281372, -0.17288373410701752
12684, 0.07469114661216736, -0.1702483594417572, 0.05405709892511368, 0.042863715440034866, 0.12186446040868759, -0.03051065467298031, -0.0035393815487623215, -0.0013110353611409664, 1.0011670589447021, -1.2876262664794922, -0.6466485857963562, -0.17320263385772705, 0.0, 0.0, 0.0, 0, 0, 0, 0, 0, 0, -1.2876262664794922, -0.6466485857963562, -0.17320263385772705
12694, 0.07380059361457825, -0.16835738718509674, 0.0539228580892086, -0.06436283886432648, -0.20250536501407623, -0.003501836908981204, -0.0032463986426591873, -0.0007518048514612019, 0.9994032979011536, -1.2898741960525513, -0.648273229598999, -0.1735220104455948, 0.0, 0.0, 0.0, 0, 0, 0, 0, 0, 0, -1.2898741960525513, -0.648273229598999, -0.1735220104455948
12704, 0.0737510547041893, -0.16813404858112335, 0.05396219715476036, -0.06425470858812332, -0.042341552674770355, -0.12881384789943695, -0.005751181393861771, -0.0014727747766301036, 1.0012648105621338, -1.292122483253479, -0.6499004364013672, -0.17384116351604462, 0.0, 0.0, 0.0, 0, 0, 0, 0, 0, 0, -1.292122483253479, -0.6499004364013672, -0.17384116351604462
12714, 0.07467606663703918, -0.16602125763893127, 0.05435807630419731, 0.15873302519321442, -0.3020327091217041, -0.03417260944843292, -0.006280397996306419, 0.00012560641334857792, 0.9995806813240051, -1.2943720817565918, -0.6515299677848816, -0.17415982484817505, 0.0, 0.0, 0.0, 0, 0, 0, 0, 0, 0, -1.2943720817565918, -0.6515299677848816, -0.17415982484817505
12724, 0.07439737021923065, -0.16495968401432037, 0.053698327392339706, -0.08546219021081924, -0.06771040707826614, -0.3226635754108429, -0.004839910194277763, -0.0003720399981830269, 0.9988411664962769, -1.2966245412826538, -0.6531614065170288, -0.1744779646396637, 0.0, 0.0, 0.0, 0, 0, 0, 0, 0, 0, -1.2966245412826538, -0.6531614065170288, -0.1744779646396637
12734, 0.07473266124725342, -0.1637369841337204, 0.05441257357597351, 0.0352005735039711, -0.14956410229206085, 0.10198630392551422, -0.002827991498634219, -0.00012475394760258496, 0.9986980557441711, -1.2988795042037964, -0.6547941565513611, -0.17479665577411652, 0.0, 0.0, 0.0, 0, 0, 0, 0, 0, 0, -1.2988795042037964, -0.6547941565513611, -0.17479665577411652
12744, 0.07468613982200623, -0.16291441023349762, 0.05281425267457962, 0.04780987277626991, -0.08409245312213898, -0.14092764258384705, -0.005934607237577438, -0.001506843138486147, 0.9993554949760437, -1.3011353015899658, -0.6564282178878784, -0.1751164346933365, 0.0, 0.0, 0.0, 0, 0, 0, 0, 0, 0, -1.3011353015899658, -0.6564282178878784, -0.1751164346933365
12754, 0.07549382001161575, -0.16259445250034332, 0.05186362937092781, 0.10964220762252808, 0.03264082968235016, -0.05819268897175789, -0.0038871935103088617, -0.0010929165873676538, 1.001941204071045, -1.3033925294876099, -0.6580641865730286, -0.17543715238571167, 0.0, 0.0, 0.0, 0, 0, 0, 0, 0, 0, -1.3033925294876099, -0.6580641865730286, -0.17543715238571167
12764, 0.07660295069217682, -0.16241800785064697, 0.05311775207519531, 0.12823401391506195, 0.043948836624622345, 0.2822052836418152, -0.0035279213916510344, -0.0007356171263381839, 0.9996530413627625, -1.3056515455245972, -0.6597028374671936, -0.17575746774673462, 0.0, 0.0, 0.0, 0, 0, 0, 0, 0, 0, -1.3056515455245972, -0.6597028374671936, -0.17575746774673462
12774, 0.07776782661676407, -0.15886223316192627, 0.052627723664045334, 0.09071863442659378, -0.5477172136306763, -0.09618142992258072, -0.002915858058258891, 0.0016831899993121624, 0.9977395534515381, -1.3079113960266113, -0.6613437533378601, -0.17607706785202026, 0.0, 0.0, 0.0, 0, 0, 0, 0, 0, 0, -1.3079113960266113, -0.6613437533378601, -0.17607706785202026
12784, 0.07792377471923828, -0.16028106212615967, 0.053263504058122635, 0.019729696214199066, 0.17911674082279205, -0.03578329086303711, -0.003340632887557149, 0.0001380637550028041, 0.9976367354393005, -1.3101716041564941, -0.6629855632781982, -0.17639762163162231, 0.0, 0.0, 0.0, 0, 0, 0, 0, 0, 0, -1.3101716041564941, -0.6629855632781982, -0.17639762163162231
12794, 0.07862484455108643, -0.1614139974117279, 0.053465135395526886, 0.0457184724509716, 0.2601979970932007, 0.17592576146125793, -0.0023171796929091215, -7.288507913472131e-05, 0.999215841293335, -1.3124322891235352, -0.6646279096603394, -0.17672030627727509, 0.0, 0.0, 0.0, 0, 0, 0, 0, 0, 0, -1.3124322891235352, -0.6646279096603394, -0.17672030627727509
12804, 0.0779719278216362, -0.16160953044891357, 0.05295711010694504, -0.1971430480480194, 0.07281755656003952, -0.1341242790222168, -0.0034425866324454546, 2.7817950467579067e-05, 0.999966561794281, -1.3146932125091553, -0.6662715077400208, -0.17704471945762634, 0.0, 0.0, 0.0, 0, 0, 0, 0, 0, 0, -1.3146932125091553, -0.6662715077400208, -0.17704471945762634
12814, 0.07898183166980743, -0.1607125997543335, 0.0524810366332531, 0.10897241532802582, -0.040331702679395676, -0.2940508723258972, -0.003772288328036666, -0.000179809911060147, 1.0006252527236938, -1.316954493522644, -0.6679165363311768, -0.17736977338790894, 0.0, 0.0, 0.0, 0, 0, 0, 0, 0, 0, -1.316954493522644, -0.6679165363311768, -0.17736977338790894
12824, 0.079531729221344, -0.15928365290164948, 0.05448991060256958, 0.11519679427146912, -0.058913663029670715, 0.21358099579811096, -0.002997174859046936, 0.0007771817035973072, 1.0014755725860596, -1.3192166090011597, -0.6695631146430969, -0.17769455909729004, 0.0, 0.0, 0.0, 0, 0, 0, 0, 0, 0, -1.3192166090011597, -0.6695631146430969, -0.17769455909729004
12834, 0.08037407696247101, -0.1592712551355362, 0.05375970900058746, 0.13983233273029327, -0.06739261746406555, -0.11501061171293259, -0.005658013746142387, 0.0001365642383461818, 0.9999111890792847, -1.321479320526123, -0.6712108254432678, -0.17801830172538757, 0.0, 0.0, 0.0, 0, 0, 0, 0, 0, 0, -1.321479320526123, -0.6712108254432678, -0.17801830172538757
12844, 0.07999158650636673, -0.16059918701648712, 0.054009564220905304, 0.0751991719007492, 0.09436752647161484, 0.08220946043729782, -0.004406370688229799, -0.0020159813575446606, 1.0005484819412231, -1.3237433433532715, -0.6728594899177551, -0.17834126949310303, 0.0, 0.0, 0.0, 0, 0, 0, 0, 0, 0, -1.3237433433532715, -0.6728594899177551, -0.17834126949310303
12854, 0.08080577850341797, -0.16257251799106598, 0.055571239441633224, 0.20073971152305603, 0.28630053997039795, 0.19552919268608093, -0.0045210677199065685, -0.0010217067319899797, 0.9995231032371521, -1.3260095119476318, -0.6745101809501648, -0.17866414785385132, 0.0, 0.0, 0.0, 0, 0, 0, 0, 0, 0, -1.3260095119476318, -0.6745101809501648, -0.17866414785385132
12864, 0.08083909004926682, -0.16236253082752228, 0.056711044162511826, -0.0560847632586956, -0.04540909826755524, 0.13198994100093842, -0.004360588733106852, -0.0006422520964406431, 0.9973061084747314, -1.328277349472046, -0.6761635541915894, -0.17898724973201752, 0.0, 0.0, 0.0, 0, 0, 0, 0, 0, 0, -1.328277349472046, -0.6761635541915894, -0.17898724973201752
12874, 0.08056658506393433, -0.1635911762714386, 0.05780267342925072, 0.05101437866687775, 0.15369641780853271, 0.08144567161798477, -0.0033061124850064516, -0.0032256506383419037, 0.9986318945884705, -1.3305466175079346, -0.6778191328048706, -0.1793118268251419, 0.0, 0.0, 0.0, 0, 0, 0, 0, 0, 0, -1.3305466175079346, -0.6778191328048706, -0.1793118268251419
12884, 0.07985492050647736, -0.16386500000953674, 0.05786063149571419, -0.03478590026497841, -0.025574497878551483, 0.021293871104717255, -0.0025761022698134184, -0.0008279068279080093, 1.0015546083450317, -1.3328168392181396, -0.6794777512550354, -0.17963828146457672, 0.0, 0.0, 0.0, 0, 0, 0, 0, 0, 0, -1.3328168392181396, -0.6794777512550354, -0.17963828146457672
12894, 0.07952144742012024, -0.16293129324913025, 0.05711847543716431, -0.12589138746261597, -0.15554752945899963, -0.19439134001731873, -0.002187152625992894, 0.0002667481021489948, 0.9997735619544983, -1.3350869417190552, -0.6811395287513733, -0.17996467649936676, 0.0, 0.0, 0.0, 0, 0, 0, 0, 0, 0, -1.3350869417190552, -0.6811395287513733, -0.17996467649936676
12904, 0.0800916850566864, -0.16462598741054535, 0.05729106813669205, 0.045761656016111374, 0.1581036001443863, -0.1836010068655014, -0.002262575551867485, -0.0011729183606803417, 0.9975719451904297, -1.337356448173523, -0.6828030347824097, -0.1802903562784195, 0.0, 0.0, 0.0, 0, 0, 0, 0, 0, 0, -1.337356448173523, -0.6828030347824097, -0.1802903562784195
12914, 0.08019978553056717, -0.16333352029323578, 0.05793185532093048, -0.07724100351333618, -0.2417677789926529, 0.1416233628988266, -0.0042730169370770454, -6.922576721990481e-05, 0.9995042681694031, -1.3396254777908325, -0.6844682693481445, -0.18061701953411102, 0.0, 0.0, 0.0, 0, 0, 0, 0, 0, 0, -1.3396254777908325, -0.6844682693481445, -0.18061701953411102
12924, 0.08021794259548187, -0.1631808876991272, 0.05852331221103668, -0.008848349563777447, 0.1073983833193779, 0.14114902913570404, -0.006052185315638781, -0.0024182258639484644, 0.9997712969779968, -1.3418951034545898, -0.686135470867157, -0.1809450387954712, 0.0, 0.0, 0.0, 0, 0, 0, 0, 0, 0, -1.3418951034545898, -0.686135470867157, -0.1809450387954712
12934, 0.07994993031024933, -0.16431424021720886, 0.05950362607836723, 0.07749023288488388, 0.26608240604400635, 0.21143454313278198, -0.005071279127150774, -0.0019325345056131482, 1.001624345779419, -1.3441667556762695, -0.6878052949905396, -0.1812736839056015, 0.0, 0.0, 0.0, 0, 0, 0, 0, 0, 0, -1.3441667556762695, -0.6878052949905396, -0.1812736839056015
12944, 0.07871442288160324, -0.1627727746963501, 0.0586969368159771, -0.10710036009550095, -0.20430044829845428, -0.15461990237236023, -0.005157428327947855, -0.0001627418678253889, 1.0007057189941406, -1.3464409112930298, -0.6894784569740295, -0.1816018521785736, 0.0, 0.0, 0.0, 0, 0, 0, 0, 0, 0, -1.3464409112930298, -0.6894784569740295, -0.1816018521785736
12954, 0.07765026390552521, -0.162460595369339, 0.058283742517232895, -0.13942846655845642, -0.034184571355581284, 0.05316552519798279, -0.004313914105296135, -0.0003612871514633298, 1.0007083415985107, -1.3487173318862915, -0.6911540031433105, -0.18192893266677856, 0.0, 0.0, 0.0, 0, 0, 0, 0, 0, 0, -1.3487173318862915, -0.6911540031433105, -0.18192893266677856
12964, 0.07841276377439499, -0.16042868793010712, 0.05714213848114014, 0.030806969851255417, -0.3565412759780884, -0.00973600521683693, -0.003548299428075552, -0.0025748524349182844, 1.0008347034454346, -1.3509955406188965, -0.6928312182426453, -0.18225525319576263, 0.0, 0.0, 0.0, 0, 0, 0, 0, 0, 0, -1.3509955406188965, -0.6928312182426453, -0.18225525319576263
12974, 0.07783640921115875, -0.160101056098938, 0.056827858090400696, -0.06513692438602448, 0.06050072982907295, 0.077754445374012, -0.004941600374877453, 0.0003333086206112057, 0.999758243560791, -1.3532750606536865, -0.6945110559463501, -0.182580828666687, 0.0, 0.0, 0.0, 0, 0, 0, 0, 0, 0, -1.3532750606536865, -0.6945110559463501, -0.182580828666687
12984, 0.07789014279842377, -0.1596050262451172, 0.056239694356918335, -0.04186800867319107, 0.04307723045349121, -0.07658310979604721, -0.0033843994606286287, -0.00020748346287291497, 1.000569462776184, -1.3555561304092407, -0.696193516254425, -0.18290604650974274, 0.0, 0.0, 0.0, 0, 0, 0, 0, 0, 0, -1.3555561304092407, -0.696193516254425, -0.18290604650974274
12994, 0.07743726670742035, -0.15817216038703918, 0.056438837200403214, -0.017285162582993507, -0.07520200312137604, 0.014871681109070778, -0.0032123506534844637, -0.0010360050946474075, 0.9996525049209595, -1.35783851146698, -0.6978775858879089, -0.18323096632957458, 0.0, 0.0, 0.0, 0, 0, 0, 0, 0, 0, -1.35783851146698, -0.6978775858879089, -0.18323096632957458
13004, 0.07704272121191025, -0.1567383110523224, 0.05731910467147827, -0.12031444162130356, -0.10314259678125381, 0.14068683981895447, -0.005881274119019508, -0.0007366357021965086, 0.9968054294586182, -1.3601213693618774, -0.69956374168396, -0.18355567753314972, 0.0, 0.0, 0.0, 0, 0, 0, 0, 0, 0, -1.3601213693618774, -0.69956374168396, -0.18355567753314972
13014, 0.0776258036494255, -0.15587118268013, 0.05609475448727608, -0.01990143209695816, -0.12315753847360611, -0.08850709348917007, -0.004675133619457483, -0.002172550419345498, 1.0004216432571411, -1.362405776977539, -0.7012521028518677, -0.1838817596435547, 0.0, 0.0, 0.0, 0, 0, 0, 0, 0, 0, -1.362405776977539, -0.7012521028518677, -0.1838817596435547
13024, 0.0774296373128891, -0.15589994192123413, 0.055876050144433975, -0.06245853006839752, 0.060331836342811584, -0.11890704929828644, -0.0032354758586734533, -0.0011962237767875195, 0.9983136057853699, -1.3646923303604126, -0.7029432058334351, -0.18420903384685516, 0.0, 0.0, 0.0, 0, 0, 0, 0, 0, 0, -1.3646923303604126, -0.7029432058334351, -0.18420903384685516
13034, 0.07658466696739197, -0.15646670758724213, 0.055933449417352676, -0.22636964917182922, 0.02890838496387005, -0.05259556695818901, -0.0032219914719462395, 0.0011702131014317274, 0.9994514584541321, -1.3669800758361816, -0.7046372890472412, -0.18453684449195862, 0.0, 0.0, 0.0, 0, 0, 0, 0, 0, 0, -1.3669800758361816, -0.7046372890472412, -0.18453684449195862
13044, 0.0765010192990303, -0.156281515955925, 0.056348856538534164, -0.036094896495342255, 0.1034189835190773, -0.029283907264471054, -0.0030508118215948343, -0.0017900876700878143, 1.0005645751953125, -1.3692681789398193, -0.7063329815864563, -0.18486550450325012, 0.0, 0.0, 0.0, 0, 0, 0, 0, 0, 0, -1.3692681789398193, -0.7063329815864563, -0.18486550450325012
13054, 0.07685096561908722, -0.157024085521698, 0.05678534135222435, 0.012734252959489822, 0.1758165955543518, -0.045530643314123154, -0.0026931397151201963, -0.0037748676259070635, 1.0012162923812866, -1.3715567588806152, -0.708030641078949, -0.18519404530525208, 0.0, 0.0, 0.0, 0, 0, 0, 0, 0, 0, -1.3715567588806152, -0.708030641078949, -0.18519404530525208
13064, 0.07650705426931381, -0.15609125792980194, 0.05752568319439888, -0.08688928186893463, -0.032385390251874924, 0.17543736100196838, -0.0033971157390624285, -0.0014405242400243878, 0.9987176656723022, -1.3738455772399902, -0.7097323536872864, -0.1855216771364212, 0.0, 0.0, 0.0, 0, 0, 0, 0, 0, 0, -1.3738455772399902, -0.7097323536872864, -0.1855216771364212
13074, 0.07789307087659836, -0.15496528148651123, 0.057835958898067474, 0.2858242094516754, -0.06407824158668518, 0.14620064198970795, -0.003160942578688264, -0.0017982879653573036, 0.9986284971237183, -1.3761343955993652, -0.7114380598068237, -0.1858491748571396, 0.0, 0.0, 0.0, 0, 0, 0, 0, 0, 0, -1.3761343955993652, -0.7114380598068237, -0.1858491748571396
13084, 0.07632128894329071, -0.1551334410905838, 0.057507649064064026, -0.215217724442482, -0.09744196385145187, 0.10642387717962265, -0.002899737562984228, -0.0020279651507735252, 1.000578761100769, -1.3784235715866089, -0.7131466865539551, -0.18617762625217438, 0.0, 0.0, 0.0, 0, 0, 0, 0, 0, 0, -1.3784235715866089, -0.7131466865539551, -0.18617762625217438
13094, 0.07687455415725708, -0.15457409620285034, 0.057035624980926514, 0.005902326665818691, -0.1855877935886383, -0.28168678283691406, -0.003978621680289507, -0.0005935968947596848, 1.001336693763733, -1.3807129859924316, -0.7148582935333252, -0.186506450176239, 0.0, 0.0, 0.0, 0, 0, 0, 0, 0, 0, -1.3807129859924316, -0.7148582935333252, -0.186506450176239
13104, 0.07670226693153381, -0.15341928601264954, 0.058015815913677216, -0.11236432939767838, -0.13872385025024414, 0.02020035870373249, -0.002878108061850071, -0.002381486352533102, 1.001474380493164, -1.3830031156539917, -0.7165725827217102, -0.1868344098329544, 0.0, 0.0, 0.0, 0, 0, 0, 0, 0, 0, -1.3830031156539917, -0.7165725827217102, -0.1868344098329544
13114, 0.07623752951622009, -0.1510995328426361, 0.05888456478714943, -0.07239948213100433, -0.23391148447990417, -0.03224499151110649, -0.004292807076126337, -0.001999770989641547, 0.999308705329895, -1.385293960571289, -0.7182897329330444, -0.18716102838516235, 0.0, 0.0, 0.0, 0, 0, 0, 0, 0, 0, -1.385293960571289, -0.7182897329330444, -0.18716102838516235
13124, 0.07576607912778854, -0.15086722373962402, 0.05929739028215408, -0.08367707580327988, -0.04555962607264519, 0.057221345603466034, -0.004326308611780405, -0.00015195495507214218, 0.9980918765068054, -1.3875857591629028, -0.7200101613998413, -0.18748711049556732, 0.0, 0.0, 0.0, 0, 0, 0, 0, 0, 0, -1.3875857591629028, -0.7200101613998413, -0.18748711049556732
13134, 0.07592157274484634, -0.15163928270339966, 0.05844608694314957, -0.08752461522817612, 0.02272508107125759, -0.20868530869483948, -0.004862050525844097, -0.0014116289094090462, 0.9981479048728943, -1.3898792266845703, -0.7217329144477844, -0.18781429529190063, 0.0, 0.0, 0.0, 0, 0, 0, 0, 0, 0, -1.3898792266845703, -0.7217329144477844, -0.18781429529190063
13144, 0.07646957784891129, -0.1520114541053772, 0.058508384972810745, 0.0782381147146225, 0.029806893318891525, 0.028467580676078796, -0.0034312903881073, -0.0020111261401325464, 0.9993837475776672, -1.392174482345581, -0.7234578132629395, -0.18814337253570557, 0.0, 0.0, 0.0, 0, 0, 0, 0, 0, 0, -1.392174482345581, -0.7234578132629395, -0.18814337253570557
13154, 0.0765489935874939, -0.1531117856502533, 0.05991422384977341, -0.1141507476568222, 0.03065217100083828, 0.1425962597131729, -0.0025399650912731886, -0.0009678293135948479, 0.9988953471183777, -1.3944710493087769, -0.7251856923103333, -0.18847383558750153, 0.0, 0.0, 0.0, 0, 0, 0, 0, 0, 0, -1.3944710493087769, -0.7251856923103333, -0.18847383558750153
13164, 0.07688693702220917, -0.15429511666297913, 0.0594046413898468, 0.07295902073383331, 0.08012289553880692, 0.08971743285655975, -0.003635428147390485, -0.0005705354269593954, 0.9985911250114441, -1.3967679738998413, -0.7269164323806763, -0.18880528211593628, 0.0, 0.0, 0.0, 0, 0, 0, 0, 0, 0, -1.3967679738998413, -0.7269164323806763, -0.18880528211593628
13174, 0.0774371325969696, -0.15478479862213135, 0.05969911068677902, 0.029438229277729988, -0.1206902414560318, 0.29100528359413147, -0.004212981555610895, -0.0009367072489112616, 0.9994223117828369, -1.3990654945373535, -0.7286492586135864, -0.18913783133029938, 0.0, 0.0, 0.0, 0, 0, 0, 0, 0, 0, -1.3990654945373535, -0.7286492586135864, -0.18913783133029938
13184, 0.0765361562371254, -0.15485720336437225, 0.05935038626194, -0.09934443235397339, 0.08242131024599075, -0.08223068714141846, -0.003994924947619438, -0.0008687514928169549, 1.0003420114517212, -1.4013640880584717, -0.7303841710090637, -0.18947122991085052, 0.0, 0.0, 0.0, 0, 0, 0, 0, 0, 0, -1.4013640880584717, -0.7303841710090637, -0.18947122991085052
13194, 0.07706762850284576, -0.15362586081027985, 0.05978294834494591, -0.03132234513759613, -0.03595522791147232, -0.0028714535292237997, -0.0036711404100060463, -0.0003819935955107212, 0.9991579055786133, -1.403663992881775, -0.7321213483810425, -0.1898047924041748, 0.0, 0.0, 0.0, 0, 0, 0, 0, 0, 0, -1.403663992881775, -0.7321213483810425, -0.1898047924041748
13204, 0.07609850913286209, -0.1541309803724289, 0.06205406039953232, -0.17469143867492676, 0.22263310849666595, 0.19513988494873047, -0.004204477183520794, -0.00014086994633544236, 0.9985455274581909, -1.4059648513793945, -0.7338603138923645, -0.1901385337114334, 0.0, 0.0, 0.0, 0, 0, 0, 0, 0, 0, -1.4059648513793945, -0.7338603138923645, -0.1901385337114334
13214, 0.07659703493118286, -0.15456609427928925, 0.06151489540934563, 0.03821830451488495, 0.09130241721868515, -0.15731605887413025, -0.003433968871831894, -0.0029627627227455378, 0.9990125894546509, -1.4082669019699097, -0.7356009483337402, -0.190473273396492, 0.0, 0.0, 0.0, 0, 0, 0, 0, 0, 0, -1.4082669019699097, -0.7356009483337402, -0.190473273396492
13224, 0.07674935460090637, -0.15506407618522644, 0.06108690798282623, -0.021618615835905075, 0.1459178477525711, -0.02462850883603096, -0.002083428204059601, -0.002713416935876012, 1.0003844499588013, -1.4105701446533203, -0.7373443841934204, -0.19080927968025208, 0.0, 0.0, 0.0, 0, 0, 0, 0, 0, 0, -1.4105701446533203, -0.7373443841934204, -0.19080927968025208
13234, 0.07681400328874588, -0.15594634413719177, 0.06265104562044144, 0.008295346982777119, 0.08086301386356354, 0.2905094027519226, -0.0021955734118819237, -0.0016110697761178017, 1.0001431703567505, -1.41287362575531, -0.7390918731689453, -0.19114571809768677, 0.0, 0.0, 0.0, 0, 0, 0, 0, 0, 0, -1.41287362575531, -0.7390918731689453, -0.19114571809768677
13244, 0.0768832117319107, -0.15844599902629852, 0.06267953664064407, 0.05696403235197067, 0.3637664020061493, -0.05534907802939415, -0.003932840656489134, -0.003325769677758217, 0.996874213218689, -1.4151767492294312, -0.7408429384231567, -0.19148188829421997, 0.0, 0.0, 0.0, 0, 0, 0, 0, 0, 0, -1.4151767492294312, -0.7408429384231567, -0.19148188829421997
13254, 0.07661207020282745, -0.1580573171377182, 0.062288232147693634, -0.06812873482704163, -0.17058739066123962, -0.19651912152767181, -0.0032631666399538517, -0.002583347028121352, 0.9979669451713562, -1.417480230331421, -0.7425976991653442, -0.19181936979293823, 0.0, 0.0, 0.0, 0, 0, 0, 0, 0, 0, -1.417480230331421, -0.7425976991653442, -0.19181936979293823
13264, 0.07742918282747269, -0.16004416346549988, 0.06461676210165024, 0.05581342428922653, 0.21823181211948395, 0.24011334776878357, -0.005131847690790892, -0.0005578259588219225, 0.999131977558136, -1.4197845458984375, -0.7443565726280212, -0.19215944409370422, 0.0, 0.0, 0.0, 0, 0, 0, 0, 0, 0, -1.4197845458984375, -0.7443565726280212, -0.19215944409370422
13274, 0.07839356362819672, -0.15841864049434662, 0.06498189270496368, 0.16570863127708435, -0.14186714589595795, -0.07557347416877747, -0.0034441575407981873, 1.130012151406845e-05, 1.0002291202545166, -1.4220901727676392, -0.746118426322937, -0.19250108301639557, 0.0, 0.0, 0.0, 0, 0, 0, 0, 0, 0, -1.4220901727676392, -0.746118426322937, -0.19250108301639557
13284, 0.07967112213373184, -0.15667496621608734, 0.0629943385720253, 0.17318588495254517, -0.11418917030096054, -0.3214762508869171, -0.004266240634024143, -0.0005011041066609323, 0.9982509613037109, -1.424397349357605, -0.7478821873664856, -0.19284313917160034, 0.0, 0.0, 0.0, 0, 0, 0, 0, 0, 0, -1.424397349357605, -0.7478821873664856, -0.19284313917160034
13294, 0.07979460060596466, -0.15587683022022247, 0.06164150685071945, -0.04063893482089043, -0.07298210263252258, -0.1666719615459442, -0.0035449995193630457, 0.0013627571752294898, 0.9984889626502991, -1.4267057180404663, -0.7496476769447327, -0.19318602979183197, 0.0, 0.0, 0.0, 0, 0, 0, 0, 0, 0, -1.4267057180404663, -0.7496476769447327, -0.19318602979183197
13304, 0.08035062253475189, -0.15734653174877167, 0.06146989017724991, 0.20395107567310333, 0.0893343836069107, -0.05707504600286484, -0.005180363077670336, 0.0006210742867551744, 0.9982450604438782, -1.4290152788162231, -0.7514141201972961, -0.19353049993515015, 0.0, 0.0, 0.0, 0, 0, 0, 0, 0, 0, -1.4290152788162231, -0.7514141201972961, -0.19353049993515015
13314, 0.08013714104890823, -0.15766175091266632, 0.06239579617977142, -0.06455963104963303, -0.12721112370491028, 0.13572926819324493, -0.005377194378525019, 7.776224811095744e-05, 0.9979347586631775, -1.4313262701034546, -0.753180980682373, -0.19387653470039368, 0.0, 0.0, 0.0, 0, 0, 0, 0, 0, 0, -1.4313262701034546, -0.753180980682373, -0.19387653470039368
13324, 0.08115337044000626, -0.15781469643115997, 0.0613495372235775, 0.13271699845790863, 0.04996569827198982, -0.23219750821590424, -0.003527907421812415, -0.0004352233081590384, 0.9998708367347717, -1.433639645576477, -0.7549487352371216, -0.19422432780265808, 0.0, 0.0, 0.0, 0, 0, 0, 0, 0, 0, -1.433639645576477, -0.7549487352371216, -0.19422432780265808
13334, 0.08165062218904495, -0.15789370238780975, 0.06231089308857918, 0.1553572714328766, 0.08864456415176392, 0.12952770292758942, -0.004247232805937529, 0.0012724947882816195, 1.000157117843628, -1.4359546899795532, -0.7567179203033447, -0.19457334280014038, 0.0, 0.0, 0.0, 0, 0, 0, 0, 0, 0, -1.4359546899795532, -0.7567179203033447, -0.19457334280014038
13344, 0.07981625944375992, -0.1604503095149994, 0.06196768209338188, -0.23520207405090332, 0.511485755443573, -0.06252388656139374, -0.003173102857545018, -0.0024160488974303007, 0.9994823336601257, -1.4382708072662354, -0.7584883570671082, -0.1949225217103958, 0.0, 0.0, 0.0, 0, 0, 0, 0, 0, 0, -1.4382708072662354, -0.7584883570671082, -0.1949225217103958
13354, 0.079971544444561, -0.1612013578414917, 0.06050826236605644, 0.0374804250895977, 0.052636221051216125, -0.2948912978172302, -0.0045351688750088215, -0.002607885282486677, 0.9991080164909363, -1.4405878782272339, -0.7602607607841492, -0.19527184963226318, 0.0, 0.0, 0.0, 0, 0, 0, 0, 0, 0, -1.4405878782272339, -0.7602607607841492, -0.19527184963226318
13364, 0.08124271780252457, -0.16004741191864014, 0.06020968779921532, 0.17440049350261688, -0.16878440976142883, -0.18123967945575714, -0.005122526548802853, -0.0008151928195729852, 0.9998690485954285, -1.4429059028625488, -0.7620370388031006, -0.19562175869941711, 0.0, 0.0, 0.0, 0, 0, 0, 0, 0, 0, -1.4429059028625488, -0.7620370388031006, -0.19562175869941711
13374, 0.08093207329511642, -0.160272017121315, 0.06031103432178497, 0.007517016492784023, 0.0837840884923935, 0.15432243049144745, -0.0024488952476531267, -0.0023919399827718735, 0.9996054172515869, -1.445225715637207, -0.7638165354728699, -0.19597221910953522, 0.0, 0.0, 0.0, 0, 0, 0, 0, 0, 0, -1.445225715637207, -0.7638165354728699, -0.19597221910953522
13384, 0.08049213886260986, -0.15998083353042603, 0.06036631762981415, 0.02038576640188694, -0.047706566751003265, -0.0879499763250351, -0.003268749453127384, -0.0016508671687915921, 1.0008691549301147, -1.4475466012954712, -0.7655985355377197, -0.1963229775428772, 0.0, 0.0, 0.0, 0, 0, 0, 0, 0, 0, -1.4475466012954712, -0.7655985355377197, -0.1963229775428772
13394, 0.08006173372268677, -0.1593378633260727, 0.06009111553430557, -0.12161684781312943, -0.1821344494819641, -0.07218919694423676, -0.004589868243783712, 0.0006682048551738262, 0.9996670484542847, -1.449867606163025, -0.7673834562301636, -0.19667355716228485, 0.0, 0.0, 0.0, 0, 0, 0, 0, 0, 0, -1.449867606163025, -0.7673834562301636, -0.19667355716228485
13404, 0.08108962327241898, -0.1563674807548523, 0.05952458828687668, 0.10333625972270966, -0.32584062218666077, -0.0993330255150795, -0.0031644287519156933, -0.00042725185630843043, 1.0005300045013428, -1.452189326286316, -0.7691701054573059, -0.19702410697937012, 0.0, 0.0, 0.0, 0, 0, 0, 0, 0, 0, -1.452189326286316, -0.7691701054573059, -0.19702410697937012
13414, 0.08103333413600922, -0.1569339483976364, 0.06024250388145447, 0.12629224359989166, -0.003009578213095665, 0.022389350458979607, -0.0025529437698423862, -0.0012713730102404952, 1.0006663799285889, -1.4545118808746338, -0.7709579467773438, -0.19737470149993896, 0.0, 0.0, 0.0, 0, 0, 0, 0, 0, 0, -1.4545118808746338, -0.7709579467773438, -0.19737470149993896
13424, 0.07969918847084045, -0.1572045087814331, 0.06111224740743637, -0.13622501492500305, 0.032750099897384644, 0.07466128468513489, -0.0017346694367006421, -0.0020011772867292166, 1.001537799835205, -1.4568345546722412, -0.7727481722831726, -0.19772469997406006, 0.0, 0.0, 0.0, 0, 0, 0, 0, 0, 0, -1.4568345546722412, -0.7727481722831726, -0.19772469997406006
13434, 0.08053801953792572, -0.1574329286813736, 0.059781841933727264, 0.13404053449630737, -0.11168757826089859, -0.11168450117111206, -0.003108234377577901, -0.0001027011385303922, 1.000111699104309, -1.4591566324234009, -0.7745413780212402, -0.19807372987270355, 0.0, 0.0, 0.0, 0, 0, 0, 0, 0, 0, -1.4591566324234009, -0.7745413780212402, -0.19807372987270355
13444, 0.08051935583353043, -0.15732547640800476, 0.0592232272028923, 0.0673123225569725, -0.07012831419706345, 0.09964748471975327, -0.002504861680790782, 0.0021007428877055645, 0.9996853470802307, -1.4614784717559814, -0.7763370871543884, -0.1984221637248993, 0.0, 0.0, 0.0, 0, 0, 0, 0, 0, 0, -1.4614784717559814, -0.7763370871543884, -0.1984221637248993
13454, 0.07985799759626389, -0.15802057087421417, 0.05858147516846657, -0.027715852484107018, 0.08977988362312317, -0.10278969258069992, -0.004478862043470144, -0.0005838722572661936, 0.9986897110939026, -1.464032530784607, -0.7783131003379822, -0.1988055408000946, 0.0, 0.0, 0.0, 0, 0, 0, 0, 0, 0, -1.464032530784607, -0.7783131003379822, -0.1988055408000946
13464, 0.07992378622293472, -0.1603926718235016, 0.05886157974600792, -0.018721574917435646, 0.38000109791755676, -0.057705868035554886, -0.0047118933871388435, 9.446731564821675e-05, 0.9981448650360107, -1.4663550853729248, -0.7801100015640259, -0.1991548389196396, 0.0, 0.0, 0.0, 0, 0, 0, 0, 0, 0, -1.4663550853729248, -0.7801100015640259, -0.1991548389196396
13474, 0.08057064563035965, -0.16173484921455383, 0.05908476188778877, 0.11964015662670135, 0.1389859914779663, -0.12523068487644196, -0.005201806779950857, -0.0033369518350809813, 0.9986637830734253, -1.468679428100586, -0.7819084525108337, -0.19950547814369202, 0.0, 0.0, 0.0, 0, 0, 0, 0, 0, 0, -1.468679428100586, -0.7819084525108337, -0.19950547814369202
13484, 0.08075102418661118, -0.1619417816400528, 0.06041598320007324, -0.02354074828326702, -0.059016332030296326, 0.01380919013172388, -0.0035042837262153625, -0.003176553174853325, 0.9988016486167908, -1.4710057973861694, -0.7837099432945251, -0.19985760748386383, 0.0, 0.0, 0.0, 0, 0, 0, 0, 0, 0, -1.4710057973861694, -0.7837099432945251, -0.19985760748386383
13494, 0.08041390031576157, -0.16267769038677216, 0.060933247208595276, -0.011377718299627304, 0.14005960524082184, 0.0006953925476409495, -0.004247682634741068, 0.00010160136298509315, 0.9997954964637756, -1.4733335971832275, -0.7855157256126404, -0.2002110332250595, 0.0, 0.0, 0.0, 0, 0, 0, 0, 0, 0, -1.4733335971832275, -0.7855157256126404, -0.2002110332250595
13504, 0.08122947812080383, -0.16238608956336975, 0.060387372970581055, 0.05515570193529129, 0.01178953517228365, -0.0995735228061676, -0.003525468520820141, -0.00022658372472506016, 0.9979323744773865, -1.475662350654602, -0.7873243093490601, -0.20056520402431488, 0.0, 0.0, 0.0, 0, 0, 0, 0, 0, 0, -1.475662350654602, -0.7873243093490601, -0.20056520402431488
13514, 0.08149091899394989, -0.16296468675136566, 0.06018625572323799, 0.08656760305166245, 0.10144487023353577, -0.08839311450719833, -0.0027599260210990906, -0.002838613698258996, 0.998507559299469, -1.477992057800293, -0.7891345620155334, -0.2009204626083374, 0.0, 0.0, 0.0, 0, 0, 0, 0, 0, 0, -1.477992057800293, -0.7891345620155334, -0.2009204626083374
13524, 0.08171792328357697, -0.16280683875083923, 0.06077874079346657, 0.061710506677627563, -0.07311223447322845, 0.033237285912036896, -0.0020116688683629036, -0.0015338265802711248, 0.9973037838935852, -1.480322003364563, -0.790947675704956, -0.2012774646282196, 0.0, 0.0, 0.0, 0, 0, 0, 0, 0, 0, -1.480322003364563, -0.790947675704956, -0.2012774646282196
13534, 0.0815005898475647, -0.16275006532669067, 0.06144502013921738, -0.02597222663462162, -0.011310547590255737, 0.08215031027793884, -0.0032330076210200787, 0.0005550843779928982, 0.998029887676239, -1.482651710510254, -0.7927640080451965, -0.20163658261299133, 0.0, 0.0, 0.0, 0, 0, 0, 0, 0, 0, -1.482651710510254, -0.7927640080451965, -0.20163658261299133
13544, 0.08118326961994171, -0.16339527070522308, 0.06157362461090088, 0.020689604803919792, -0.03492913022637367, 0.1490054577589035, -0.004836201202124357, -0.00013124597899150103, 0.9976983070373535, -1.4849812984466553, -0.794582188129425, -0.2019980102777481, 0.0, 0.0, 0.0, 0, 0, 0, 0, 0, 0, -1.4849812984466553, -0.794582188129425, -0.2019980102777481
13554, 0.08131887018680573, -0.16264839470386505, 0.06162996590137482, 0.0882091075181961, -0.16745245456695557, 0.16845084726810455, -0.004160973243415356, -0.00168857560493052, 0.9998820424079895, -1.4873119592666626, -0.7964017391204834, -0.2023615688085556, 0.0, 0.0, 0.0, 0, 0, 0, 0, 0, 0, -1.4873119592666626, -0.7964017391204834, -0.2023615688085556
13564, 0.08139601349830627, -0.16217869520187378, 0.06186876446008682, 0.03746669366955757, -0.13211320340633392, 0.09452676773071289, -0.0038080608937889338, -0.002361866645514965, 0.9991270303726196, -1.4896442890167236, -0.7982235550880432, -0.20272628962993622, 0.0, 0.0, 0.0, 0, 0, 0, 0, 0, 0, -1.4896442890167236, -0.7982235550880432, -0.20272628962993622
13574, 0.08133560419082642, -0.16209791600704193, 0.062367554754018784, 0.07708332687616348, -0.15746335685253143, 0.18519917130470276, -0.005721571855247021, -0.001905075740069151, 1.0013362169265747, -1.4919779300689697, -0.8000485897064209, -0.20309142768383026, 0.0, 0.0, 0.0, 0, 0, 0, 0, 0, 0, -1.4919779300689697, -0.8000485897064209, -0.20309142768383026
13584, 0.08107401430606842, -0.16203415393829346, 0.061624765396118164, -0.08772631734609604, -0.0399789959192276, 0.06145630031824112, -0.0028565148822963238, -0.000991386012174189, 0.9994487762451172, -1.494313359260559, -0.8018768429756165, -0.2034563273191452, 0.0, 0.0, 0.0, 0, 0, 0, 0, 0, 0, -1.494313359260559, -0.8018768429756165, -0.2034563273191452
13594, 0.08132471144199371, -0.16042456030845642, 0.0624251589179039, 0.07437676191329956, -0.3060149848461151, 0.17298655211925507, -0.003791817696765065, -0.003243457991629839, 0.9980503916740417, -1.496649980545044, -0.8037078380584717, -0.20382091403007507, 0.0, 0.0, 0.0, 0, 0, 0, 0, 0, 0, -1.496649980545044, -0.8037078380584717, -0.20382091403007507
13604, 0.08146610110998154, -0.16110093891620636, 0.06373444199562073, 0.0740942507982254, 0.13051031529903412, 0.30282601714134216, -0.002477039583027363, -0.0017096754163503647, 0.9973366260528564, -1.4989869594573975, -0.8055421113967896, -0.20418673753738403, 0.0, 0.0, 0.0, 0, 0, 0, 0, 0, 0, -1.4989869594573975, -0.8055421113967896, -0.20418673753738403
13614, 0.08130765706300735, -0.1600414365530014, 0.062380846589803696, -0.03070177510380745, -0.007610369008034468, -0.10424346476793289, -0.002686642576009035, -0.0021389489993453026, 0.9987231492996216, -1.5013242959976196, -0.8073800802230835, -0.20455484092235565, 0.0, 0.0, 0.0, 0, 0, 0, 0, 0, 0, -1.5013242959976196, -0.8073800802230835, -0.20455484092235565
13624, 0.08112766593694687, -0.160577192902565, 0.06328272074460983, -0.006592560559511185, 0.017051957547664642, 0.06674712896347046, -0.0039053482469171286, -0.0017994168447330594, 0.9996042251586914, -1.5036615133285522, -0.8092214465141296, -0.20492495596408844, 0.0, 0.0, 0.0, 0, 0, 0, 0, 0, 0, -1.5036615133285522, -0.8092214465141296, -0.20492495596408844
13634, 0.08028773218393326, -0.16009709239006042, 0.06267431378364563, -0.15995067358016968, -0.03793894872069359, -0.17461664974689484, -0.00470429053530097, 0.0007807561196386814, 1.0001144409179688, -1.5059994459152222, -0.8110658526420593, -0.20529597997665405, 0.0, 0.0, 0.0, 0, 0, 0, 0, 0, 0, -1.5059994459152222, -0.8110658526420593, -0.20529597997665405
13644, 0.08139213174581528, -0.15918537974357605, 0.06377477198839188, 0.19498710334300995, 0.1645665168762207, 0.03823672607541084, -0.0030308326240628958, 0.0013981724623590708, 0.9995650053024292, -1.5083388090133667, -0.8129119277000427, -0.20566707849502563, 0.0, 0.0, 0.0, 0, 0, 0, 0, 0, 0, -1.5083388090133667, -0.8129119277000427, -0.20566707849502563
13654, 0.08085508644580841, -0.1611984819173813, 0.06336909532546997, -0.028749961405992508, 0.288118839263916, 0.10248417407274246, -0.0052241371013224125, -0.0009604250080883503, 0.9973172545433044, -1.5106791257858276, -0.8147587180137634, -0.2060381919145584, 0.0, 0.0, 0.0, 0, 0, 0, 0, 0, 0, -1.5106791257858276, -0.8147587180137634, -0.2060381919145584
13664, 0.08164948225021362, -0.16085729002952576, 0.06320822238922119, 0.24201631546020508, -0.1374405324459076, 0.025587160140275955, -0.004123269580304623, -0.0007537216879427433, 0.9965360760688782, -1.5130208730697632, -0.8166069984436035, -0.2064107209444046, 0.0, 0.0, 0.0, 0, 0, 0, 0, 0, 0, -1.5130208730697632, -0.8166069984436035, -0.2064107209444046
13674, 0.08253417164087296, -0.15993177890777588, 0.0624702125787735, 0.08488977700471878, -0.19159634411334991, -0.012919965200126171, -0.005316950846463442, -0.001609745784662664, 0.9988952279090881, -1.5153645277023315, -0.8184575438499451, -0.2067861706018448, 0.0, 0.0, 0.0, 0, 0, 0, 0, 0, 0, -1.5153645277023315, -0.8184575438499451, -0.2067861706018448
13684, 0.0826394334435463, -0.16050595045089722, 0.06136482581496239, 0.10243147611618042, -0.029711326584219933, -0.0638178363442421, -0.00281636044383049, 0.0002546004543546587, 0.999095618724823, -1.5177099704742432, -0.8203105330467224, -0.2071637660264969, 0.0, 0.0, 0.0, 0, 0, 0, 0, 0, 0, -1.5177099704742432, -0.8203105330467224, -0.2071637660264969
13694, 0.08296553045511246, -0.16209964454174042, 0.06123136729001999, 0.07527624815702438, 0.019995365291833878, -0.07560857385396957, -0.0040636141784489155, 0.00018221723439637572, 0.9994320273399353, -1.5200568437576294, -0.8221654891967773, -0.20754224061965942, 0.0, 0.0, 0.0, 0, 0, 0, 0, 0, 0, -1.5200568437576294, -0.8221654891967773, -0.20754224061965942
13704, 0.08243734389543533, -0.162673681974411, 0.06087267026305199, 0.017906682565808296, 0.1073768362402916, -0.08923424780368805, -0.0042909299954771996, 0.0007021892815828323, 0.9996950030326843, -1.522404432296753, -0.8240218162536621, -0.20792144536972046, 0.0, 0.0, 0.0, 0, 0, 0, 0, 0, 0, -1.522404432296753, -0.8240218162536621, -0.20792144536972046
13714, 0.08171221613883972, -0.1630435585975647, 0.059982478618621826, -0.06525513529777527, -0.07600431889295578, -0.15988527238368988, -0.004606733564287424, -0.00041959999362006783, 0.9989173412322998, -1.524753212928772, -0.8258790969848633, -0.2083011269569397, 0.0, 0.0, 0.0, 0, 0, 0, 0, 0, 0, -1.524753212928772, -0.8258790969848633, -0.2083011269569397
13724, 0.08211056143045425, -0.16350987553596497, 0.060741521418094635, 0.0550648532807827, 0.08861145377159119, 0.2195429801940918, -0.003309028223156929, 3.862455196212977e-05, 0.9984632730484009, -1.5271034240722656, -0.82773756980896, -0.20868144929409027, 0.0, 0.0, 0.0, 0, 0, 0, 0, 0, 0, -1.5271034240722656, -0.82773756980896, -0.20868144929409027
13734, 0.0829208567738533, -0.16428303718566895, 0.06141665205359459, -0.0015231396537274122, 0.0984838604927063, 0.05666721612215042, -0.0053276498802006245, 0.00019716202223207802, 1.0000841617584229, -1.5294548273086548, -0.8295974731445312, -0.2090630680322647, 0.0, 0.0, 0.0, 0, 0, 0, 0, 0, 0, -1.5294548273086548, -0.8295974731445312, -0.2090630680322647
13744, 0.0829673781991005, -0.1631542146205902, 0.05977194756269455, 0.07017252594232559, -0.1323736011981964, -0.1393509805202484, -0.0057019698433578014, -0.0010685542365536094, 1.0008434057235718, -1.5318076610565186, -0.8314586877822876, -0.20944534242153168, 0.0, 0.0, 0.0, 0, 0, 0, 0, 0, 0, -1.5318076610565186, -0.8314586877822876, -0.20944534242153168
13754, 0.08332652598619461, -0.16140450537204742, 0.060864586383104324, 0.11283720284700394, -0.1539989411830902, 0.15258996188640594, -0.003691034624353051, -0.0023170607164502144, 0.9983748197555542, -1.534162998199463, -0.8333219289779663, -0.20982719957828522, 0.0, 0.0, 0.0, 0, 0, 0, 0, 0, 0, -1.534162998199463, -0.8333219289779663, -0.20982719957828522
13764, 0.08303951472043991, -0.1610007882118225, 0.06064555421471596, -0.06246905028820038, -0.019069558009505272, 0.02453440986573696, -0.004368994385004044, 0.0001785819767974317, 0.9993396997451782, -1.5365201234817505, -0.8351882100105286, -0.21020948886871338, 0.0, 0.0, 0.0, 0, 0, 0, 0, 0, 0, -1.5365201234817505, -0.8351882100105286, -0.21020948886871338
13774, 0.08370436728000641, -0.16007393598556519, 0.06142030656337738, 0.08791154623031616, -0.08746183663606644, -0.009286410175263882, -0.0051690153777599335, 0.0003284001722931862, 0.9990794658660889, -1.5388784408569336, -0.8370568752288818, -0.21059277653694153, 0.0, 0.0, 0.0, 0, 0, 0, 0, 0, 0, -1.5388784408569336, -0.8370568752288818, -0.21059277653694153
13784, 0.08335907012224197, -0.1629127562046051, 0.061848271638154984, -0.0884523093700409, 0.3311862051486969, 0.1518591046333313, -0.006396911572664976, 1.7810523786465637e-05, 0.9984796643257141, -1.54123854637146, -0.8389267921447754, -0.21097683906555176, 0.0, 0.0, 0.0, 0, 0, 0, 0, 0, 0, -1.54123854637146, -0.8389267921447754, -0.21097683906555176
13794, 0.08281202614307404, -0.16326995193958282, 0.06157727912068367, -0.027069851756095886, -0.14248807728290558, 0.12123461812734604, -0.004615651443600655, -0.0005783759406767786, 1.0022587776184082, -1.5436012744903564, -0.8407979011535645, -0.21136191487312317, 0.0, 0.0, 0.0, 0, 0, 0, 0, 0, 0, -1.5436012744903564, -0.8407979011535645, -0.21136191487312317
13804, 0.08247662335634232, -0.16371481120586395, 0.06106019392609596, -0.03680554777383804, 0.01937137357890606, -0.1674438714981079, -0.0025119546335190535, -0.0004759098228532821, 1.0019474029541016, -1.545966386795044, -0.8426706194877625, -0.21174652874469757, 0.0, 0.0, 0.0, 0, 0, 0, 0, 0, 0, -1.545966386795044, -0.8426706194877625, -0.21174652874469757
13814, 0.08341912180185318, -0.1624249517917633, 0.060918014496564865, 0.17077955603599548, 0.022486932575702667, -0.1316930502653122, -0.0008672990370541811, -0.0004383675695862621, 0.9992914795875549, -1.5483319759368896, -0.8445455431938171, -0.21212930977344513, 0.0, 0.0, 0.0, 0, 0, 0, 0, 0, 0, -1.5483319759368896, -0.8445455431938171, -0.21212930977344513
13824, 0.08293551206588745, -0.1625911295413971, 0.06085756793618202, 0.09552119672298431, 0.04009173437952995, 0.029537534341216087, -0.003360956674441695, 0.0007201384869404137, 0.9987776279449463, -1.5506964921951294, -0.8464224934577942, -0.2125115841627121, 0.0, 0.0, 0.0, 0, 0, 0, 0, 0, 0, -1.5506964921951294, -0.8464224934577942, -0.2125115841627121
13834, 0.08159014582633972, -0.16151465475559235, 0.059556763619184494, -0.13795620203018188, -0.1704324334859848, -0.024433931335806847, -0.004046189598739147, 0.001606050063855946, 1.001261591911316, -1.553060531616211, -0.8483006954193115, -0.21289460361003876, 0.0, 0.0, 0.0, 0, 0, 0, 0, 0, 0, -1.553060531616211, -0.8483006954193115, -0.21289460361003876
13844, 0.08215651661157608, -0.16064247488975525, 0.059682536870241165, 0.022318702191114426, -0.2537499666213989, 0.021600564941763878, -0.005510943476110697, -0.0021490626968443394, 1.0001980066299438, -1.5554252862930298, -0.8501794934272766, -0.21327750384807587, 0.0, 0.0, 0.0, 0, 0, 0, 0, 0, 0, -1.5554252862930298, -0.8501794934272766, -0.21327750384807587
13854, 0.08241898566484451, -0.15980221331119537, 0.05890253558754921, 0.1647312343120575, -0.07940252870321274, -0.2019675225019455, -0.004618953913450241, -0.0017890384187921882, 0.9992889165878296, -1.5577917098999023, -0.8520602583885193, -0.2136598378419876, 0.0, 0.0, 0.0, 0, 0, 0, 0, 0, 0, -1.5577917098999023, -0.8520602583885193, -0.2136598378419876
13864, 0.08226121217012405, -0.15779395401477814, 0.05817810818552971, 0.015950556844472885, -0.21308395266532898, -0.044629838317632675, -0.004834715276956558, -0.00012797530507668853, 0.9995742440223694, -1.5601601600646973, -0.8539443612098694, -0.214042529463768, 0.0, 0.0, 0.0, 0, 0, 0, 0, 0, 0, -1.5601601600646973, -0.8539443612098694, -0.214042529463768
13874, 0.08218162506818771, -0.15615533292293549, 0.05812724679708481, 0.06995587050914764, -0.26682212948799133, -0.037565238773822784, -0.0038060976658016443, 0.0005673680570907891, 0.9975356459617615, -1.5625303983688354, -0.8558307886123657, -0.21442604064941406, 0.0, 0.0, 0.0, 0, 0, 0, 0, 0, 0, -1.5625303983688354, -0.8558307886123657, -0.21442604064941406
13884, 0.08209932595491409, -0.156772643327713, 0.0580047108232975, -0.07040721923112869, 0.30906522274017334, 0.0861675962805748, -0.0058025773614645, -0.0006770977634005249, 1.0002211332321167, -1.5649019479751587, -0.8577184677124023, -0.21481098234653473, 0.0, 0.0, 0.0, 0, 0, 0, 0, 0, 0, -1.5649019479751587, -0.8577184677124023, -0.21481098234653473
13894, 0.08148732036352158, -0.15595856308937073, 0.05675772204995155, -0.13372668623924255, 0.08178870379924774, -0.18908405303955078, -0.0035851674620062113, 0.0007482811342924833, 1.0004771947860718, -1.5672755241394043, -0.8596076369285583, -0.2151968777179718, 0.0, 0.0, 0.0, 0, 0, 0, 0, 0, 0, -1.5672755241394043, -0.8596076369285583, -0.2151968777179718
13904, 0.08141358196735382, -0.1545134037733078, 0.05685896798968315, 0.0036143457982689142, -0.06926991045475006, -0.0031175282783806324, -0.0032372011337429285, -0.00028029136592522264, 0.998500645160675, -1.5696510076522827, -0.8614981770515442, -0.2155826836824417, 0.0, 0.0, 0.0, 0, 0, 0, 0, 0, 0, -1.5696510076522827, -0.8614981770515442, -0.2155826836824417
13914, 0.08101725578308105, -0.15568982064723969, 0.056702885776758194, 0.042651642113924026, 0.19741952419281006, -0.04658352583646774, -0.0034395845141261816, -0.00023737722949590534, 0.9988212585449219, -1.572027325630188, -0.8633898496627808, -0.21596914529800415, 0.0, 0.0, 0.0, 0, 0, 0, 0, 0, 0, -1.572027325630188, -0.8633898496627808, -0.21596914529800415
13924, 0.08235656470060349, -0.15563426911830902, 0.05621526017785072, 0.11914060264825821, 0.31001120805740356, -0.022492514923214912, -0.0025628593284636736, -0.0010338942520320415, 1.0004512071609497, -1.574404239654541, -0.8652831315994263, -0.21635690331459045, 0.0, 0.0, 0.0, 0, 0, 0, 0, 0, 0, -1.574404239654541, -0.8652831315994263, -0.21635690331459045
13934, 0.08162407577037811, -0.15417666733264923, 0.05616546422243118, -0.2504193186759949, -0.3127360939979553, 0.06846247613430023, -0.004948916845023632, 0.0007660869741812348, 1.0000996589660645, -1.5767815113067627, -0.8671782612800598, -0.21674509346485138, 0.0, 0.0, 0.0, 0, 0, 0, 0, 0, 0, -1.5767815113067627, -0.8671782612800598, -0.21674509346485138
13944, 0.08160395920276642, -0.15329807996749878, 0.0568353533744812, -0.009058007039129734, -0.030543284490704536, -0.057547807693481445, -0.005252210423350334, -0.0006086563807912171, 0.9983625411987305, -1.5791599750518799, -0.8690748810768127, -0.2171330749988556, 0.0, 0.0, 0.0, 0, 0, 0, 0, 0, 0, -1.5791599750518799, -0.8690748810768127, -0.2171330749988556
13954, 0.08005496859550476, -0.15355940163135529, 0.05579407885670662, -0.17337408661842346, 0.20683979988098145, -0.13698504865169525, -0.0033968978095799685, -0.002665793988853693, 1.000404715538025, -1.5815407037734985, -0.8709730505943298, -0.2175217568874359, 0.0, 0.0, 0.0, 0, 0, 0, 0, 0, 0, -1.5815407037734985, -0.8709730505943298, -0.2175217568874359
13964, 0.08015816658735275, -0.1521182358264923, 0.05560320243239403, 0.056151073426008224, -0.13290952146053314, 0.06020518019795418, -0.0033864984288811684, -0.001542782294563949, 1.0012760162353516, -1.5839229822158813, -0.8728741407394409, -0.21791096031665802, 0.0, 0.0, 0.0, 0, 0, 0, 0, 0, 0, -1.5839229822158813, -0.8728741407394409, -0.21791096031665802
13974, 0.07894178479909897, -0.1520945131778717, 0.05481955036520958, -0.19572104513645172, -0.004160857293754816, -0.08987719565629959, -0.004523513372987509, 0.00033567205537110567, 1.0015746355056763, -1.586306095123291, -0.8747783899307251, -0.21829929947853088, 0.0, 0.0, 0.0, 0, 0, 0, 0, 0, 0, -1.586306095123291, -0.8747783899307251, -0.21829929947853088
13984, 0.07954941689968109, -0.15138253569602966, 0.055619724094867706, 0.2812533378601074, -0.024264264851808548, 0.0009301331592723727, -0.004578662104904652, 0.0013393496628850698, 0.9995488524436951, -1.5886906385421753, -0.8766845464706421, -0.2186862975358963, 0.0, 0.0, 0.0, 0, 0, 0, 0, 0, 0, -1.5886906385421753, -0.8766845464706421, -0.2186862975358963
13994, 0.07988064736127853, -0.15259097516536713, 0.05657202750444412, 0.00981978327035904, 0.26956066489219666, -0.021645493805408478, -0.004974034149199724, -0.0006235537002794445, 0.9991755485534668, -1.591077208518982, -0.8785913586616516, -0.21907269954681396, 0.0, 0.0, 0.0, 0, 0, 0, 0, 0, 0, -1.591077208518982, -0.8785913586616516, -0.21907269954681396
14004, 0.0807356908917427, -0.15115892887115479, 0.055896349251270294, 0.17416110634803772, -0.06585504114627838, -0.15766973793506622, -0.005458918400108814, -0.0019425901118665934, 1.0006335973739624, -1.593465805053711, -0.8804991245269775, -0.21945959329605103, 0.0, 0.0, 0.0, 0, 0, 0, 0, 0, 0, -1.593465805053711, -0.8804991245269775, -0.21945959329605103
14014, 0.08058464527130127, -0.15261003375053406, 0.05586203932762146, -0.019397130236029625, 0.1624811887741089, -0.08694197237491608, -0.004628994036465883, -0.0007797348662279546, 1.0008914470672607, -1.59585702419281, -0.8824092149734497, -0.21984677016735077, 0.0, 0.0, 0.0, 0, 0, 0, 0, 0, 0, -1.59585702419281, -0.8824092149734497, -0.21984677016735077
14024, 0.08091140538454056, -0.1521865427494049, 0.05509845167398453, 0.05344922095537186, -0.1769842505455017, 0.025185145437717438, -0.0030415488872677088, -0.0005824997206218541, 1.000172734260559, -1.5982505083084106, -0.8843218088150024, -0.2202335149049759, 0.0, 0.0, 0.0, 0, 0, 0, 0, 0, 0, -1.5982505083084106, -0.8843218088150024, -0.2202335149049759
14034, 0.08097308874130249, -0.15035492181777954, 0.05421537905931473, 0.07589095085859299, -0.08140832930803299, -0.10567113012075424, -0.002019196515902877, -0.0005997949629090726, 1.0000087022781372, -1.6006449460983276, -0.8862364888191223, -0.2206197828054428, 0.0, 0.0, 0.0, 0, 0, 0, 0, 0, 0, -1.6006449460983276, -0.8862364888191223, -0.2206197828054428
14044, 0.08103477209806442, -0.15036185085773468, 0.05401846021413803, -0.026377437636256218, 0.039855994284152985, 0.04967767000198364, -0.004249940626323223, -9.112578118219972e-05, 0.9997606873512268, -1.6030393838882446, -0.8881532549858093, -0.22100594639778137, 0.0, 0.0, 0.0, 0, 0, 0, 0, 0, 0, -1.6030393838882446, -0.8881532549858093, -0.22100594639778137
14054, 0.0810389369726181, -0.14915484189987183, 0.05515775457024574, -0.04582732170820236, 0.014248496852815151, 0.19423477351665497, -0.005194426979869604, -0.0008007127325981855, 0.9987614750862122, -1.6054344177246094, -0.8900719285011292, -0.22139233350753784, 0.0, 0.0, 0.0, 0, 0, 0, 0, 0, 0, -1.6054344177246094, -0.8900719285011292, -0.22139233350753784
14064, 0.08121343702077866, -0.15148644149303436, 0.05518605187535286, 0.02734595723450184, 0.32555216550827026, 0.11649888008832932, -0.0028182584792375565, -0.002294263569638133, 0.998467206954956, -1.6078314781188965, -0.8919925093650818, -0.22177954018115997, 0.0, 0.0, 0.0, 0, 0, 0, 0, 0, 0, -1.6078314781188965, -0.8919925093650818, -0.22177954018115997
14074, 0.08041328191757202, -0.15182222425937653, 0.05377471074461937, -0.10905571281909943, -0.024439271539449692, -0.2642380893230438, -0.0034928021486848593, -0.0011554001830518246, 1.002319097518921, -1.6102300882339478, -0.8939160704612732, -0.2221679389476776, 0.0, 0.0, 0.0, 0, 0, 0, 0, 0, 0, -1.6102300882339478, -0.8939160704612732, -0.2221679389476776
14084, 0.08027239888906479, -0.15077117085456848, 0.05379952862858772, -0.05396522954106331, -0.09295310080051422, 0.0998842716217041, -0.00393652031198144, 9.344824502477422e-05, 1.001792550086975, -1.6126295328140259, -0.8958427906036377, -0.22255589067935944, 0.0, 0.0, 0.0, 0, 0, 0, 0, 0, 0, -1.6126295328140259, -0.8958427906036377, -0.22255589067935944
14094, 0.08070486783981323, -0.15115895867347717, 0.053313884884119034, 0.10988496243953705, -0.013799569569528103, -0.08256296068429947, -0.0037782269064337015, -0.0001262438454432413, 0.9995307922363281, -1.6150301694869995, -0.897771418094635, -0.22294190526008606, 0.0, 0.0, 0.0, 0, 0, 0, 0, 0, 0, -1.6150301694869995, -0.897771418094635, -0.22294190526008606
14104, 0.08198858052492142, -0.1518668532371521, 0.053162798285484314, 0.07015872001647949, -0.05989476665854454, 0.020387861877679825, -0.004468399565666914, 0.0016834796406328678, 0.9994966387748718, -1.6174319982528687, -0.8997014760971069, -0.22332711517810822, 0.0, 0.0, 0.0, 0, 0, 0, 0, 0, 0, -1.6174319982528687, -0.8997014760971069, -0.22332711517810822
14114, 0.08238211274147034, -0.15202133357524872, 0.052424605935811996, 0.11048426479101181, -0.06566324084997177, -0.038806114345788956, -0.00505408039316535, 0.0010842180345207453, 1.000940203666687, -1.619835376739502, -0.9016322493553162, -0.22371263802051544, 0.0, 0.0, 0.0, 0, 0, 0, 0, 0, 0, -1.619835376739502, -0.9016322493553162, -0.22371263802051544
14124, 0.0812867060303688, -0.1516774594783783, 0.051019296050071716, -0.11483322083950043, 0.04464155435562134, -0.09925369173288345, -0.0035492312163114548, 0.0004471958091016859, 1.002557635307312, -1.6222410202026367, -0.9035632014274597, -0.22409777343273163, 0.0, 0.0, 0.0, 0, 0, 0, 0, 0, 0, -1.6222410202026367, -0.9035632014274597, -0.22409777343273163
14134, 0.08109411597251892, -0.15142962336540222, 0.051747389137744904, -0.03412164747714996, 0.17791053652763367, 0.07113827019929886, -0.003726042341440916, -0.0009607766987755895, 0.9995930194854736, -1.6246484518051147, -0.9054949283599854, -0.22448129951953888, 0.0, 0.0, 0.0, 0, 0, 0, 0, 0, 0, -1.6246484518051147, -0.9054949283599854, -0.22448129951953888
14144, 0.08048791438341141, -0.15369583666324615, 0.051441892981529236, -0.03595701977610588, 0.42755651473999023, 0.13331270217895508, -0.004288134165108204, 0.0003705445269588381, 0.9994703531265259, -1.6270569562911987, -0.9074283838272095, -0.22486399114131927, 0.0, 0.0, 0.0, 0, 0, 0, 0, 0, 0, -1.6270569562911987, -0.9074283838272095, -0.22486399114131927
14154, 0.07955949008464813, -0.1551080197095871, 0.052098121494054794, -0.09243180602788925, 0.08673322200775146, 0.17063327133655548, -0.0014931829646229744, 0.0013275508536025882, 0.9988890886306763, -1.6294667720794678, -0.9093633890151978, -0.22524723410606384, 0.0, 0.0, 0.0, 0, 0, 0, 0, 0, 0, -1.6294667720794678, -0.9093633890151978, -0.22524723410606384
14164, 0.08009571582078934, -0.157899871468544, 0.05327192321419716, 0.06779205054044724, 0.3351641297340393, 0.13740237057209015, -0.003937240224331617, -0.00024225885863415897, 0.998573899269104, -1.6318769454956055, -0.9112988710403442, -0.22563135623931885, 0.0, 0.0, 0.0, 0, 0, 0, 0, 0, 0, -1.6318769454956055, -0.9112988710403442, -0.22563135623931885
14174, 0.08071665465831757, -0.15728113055229187, 0.05349928140640259, 0.1609049290418625, -0.16728992760181427, -0.0213602427393198, -0.005889983382076025, -3.9060410927049816e-05, 1.000329852104187, -1.6342871189117432, -0.9132351279258728, -0.226016566157341, 0.0, 0.0, 0.0, 0, 0, 0, 0, 0, 0, -1.6342871189117432, -0.9132351279258728, -0.226016566157341
14184, 0.08064388483762741, -0.1579229235649109, 0.05225246772170067, -0.09709198027849197, 0.03188712149858475, -0.13418035209178925, -0.004767609294503927, -0.0005953198997303843, 0.9982083439826965, -1.6366990804672241, -0.9151729941368103, -0.22640226781368256, 0.0, 0.0, 0.0, 0, 0, 0, 0, 0, 0, -1.6366990804672241, -0.9151729941368103, -0.22640226781368256
14194, 0.08033372461795807, -0.15960325300693512, 0.053465403616428375, -0.007283843122422695, 0.26312723755836487, 0.20622076094150543, -0.004011527169495821, 0.00010546071280259639, 0.9981080889701843, -1.6391135454177856, -0.9171126484870911, -0.22678853571414948, 0.0, 0.0, 0.0, 0, 0, 0, 0, 0, 0, -1.6391135454177856, -0.9171126484870911, -0.22678853571414948
14204, 0.0796157643198967, -0.16078883409500122, 0.0532875582575798, -0.04468127712607384, 0.243943989276886, -0.04133656248450279, -0.0038405638188123703, -0.00017920065147336572, 0.9991533160209656, -1.6415295600891113, -0.9190539121627808, -0.22717629373073578, 0.0, 0.0, 0.0, 0, 0, 0, 0, 0, 0, -1.6415295600891113, -0.9190539121627808, -0.22717629373073578
14214, 0.07953215390443802, -0.16046640276908875, 0.05255592614412308, -0.08637525141239166, 0.008779405616223812, -0.005376393906772137, -0.005264506209641695, -0.0017918607918545604, 0.9982578158378601, -1.643946647644043, -0.9209965467453003, -0.22756534814834595, 0.0, 0.0, 0.0, 0, 0, 0, 0, 0, 0, -1.643946647644043, -0.9209965467453003, -0.22756534814834595
14224, 0.07912438362836838, -0.1603691726922989, 0.05120403319597244, 0.02173086814582348, -0.04569161310791969, -0.1287108212709427, -0.005840069614350796, -0.0022407846990972757, 0.997154712677002, -1.6463654041290283, -0.9229413270950317, -0.22795569896697998, 0.0, 0.0, 0.0, 0, 0, 0, 0, 0, 0, -1.6463654041290283, -0.9229413270950317, -0.22795569896697998
14234, 0.08035626262426376, -0.16121050715446472, 0.051664840430021286, 0.05659103766083717, 0.13236315548419952, 0.126348078250885, -0.004166495520621538, -0.0007562051177956164, 1.000289797782898, -1.6487867832183838, -0.9248892664909363, -0.22834813594818115, 0.0, 0.0, 0.0, 0, 0, 0, 0, 0, 0, -1.6487867832183838, -0.9248892664909363, -0.22834813594818115
14244, 0.07995811849832535, -0.1605091243982315, 0.05163344740867615, 0.15063084661960602, 0.049971289932727814, 0.08524512499570847, -0.00479156244546175, -0.0014441086677834392, 0.9980884790420532, -1.6512103080749512, -0.92684006690979, -0.22874173521995544, 0.0, 0.0, 0.0, 0, 0, 0, 0, 0, 0, -1.6512103080749512, -0.92684006690979, -0.22874173521995544
14254, 0.0792311578989029, -0.15757766366004944, 0.05149782821536064, -0.037793293595314026, -0.1610778421163559, -0.014389433898031712, -0.004978625103831291, 0.00019256604718975723, 0.9986357688903809, -1.6536356210708618, -0.9287933707237244, -0.2291358858346939, 0.0, 0.0, 0.0, 0, 0, 0, 0, 0, 0, -1.6536356210708618, -0.9287933707237244, -0.2291358858346939
14264, 0.08103451877832413, -0.15445517003536224, 0.052627336233854294, 0.20394361019134521, -0.3433348834514618, 0.1219596117734909, -0.003303057746961713, -0.00038685547770000994, 0.9992040395736694, -1.6560629606246948, -0.9307488203048706, -0.2295311987400055, 0.0, 0.0, 0.0, 0, 0, 0, 0, 0, 0, -1.6560629606246948, -0.9307488203048706, -0.2295311987400055
14274, 0.08099342882633209, -0.15463072061538696, 0.05307398736476898, -0.04965522140264511, -0.05950935184955597, -0.016263024881482124, -0.004078742582350969, -0.0006640625069849193, 1.000213623046875, -1.658491611480713, -0.9327059388160706, -0.22992748022079468, 0.0, 0.0, 0.0, 0, 0, 0, 0, 0, 0, -1.658491611480713, -0.9327059388160706, -0.22992748022079468
14284, 0.08077062666416168, -0.15540985763072968, 0.05219306796789169, -0.09571491926908493, 0.3311382234096527, -0.18021653592586517, -0.004175510723143816, -0.0020282110199332237, 1.0007128715515137, -1.6609212160110474, -0.9346650838851929, -0.23032408952713013, 0.0, 0.0, 0.0, 0, 0, 0, 0, 0, 0, -1.6609212160110474, -0.9346650838851929, -0.23032408952713013
14294, 0.08138267695903778, -0.1565064787864685, 0.0514008030295372, 0.13652512431144714, 0.10918296128511429, -0.08755817264318466, -0.0038676245603710413, -0.0023873893078416586, 1.0003416538238525, -1.6633522510528564, -0.9366270303726196, -0.2307203859090805, 0.0, 0.0, 0.0, 0, 0, 0, 0, 0, 0, -1.6633522510528564, -0.9366270303726196, -0.2307203859090805
14304, 0.08118962496519089, -0.15889109671115875, 0.05136088281869888, -0.025325721129775047, 0.20773892104625702, -0.036657944321632385, -0.0023696189746260643, -0.0017187056364491582, 0.9988608360290527, -1.665784478187561, -0.9385924935340881, -0.2311164140701294, 0.0, 0.0, 0.0, 0, 0, 0, 0, 0, 0, -1.665784478187561, -0.9385924935340881, -0.2311164140701294
14314, 0.07960384339094162, -0.15841957926750183, 0.05227365717291832, -0.20187096297740936, -0.15945832431316376, 0.24707145988941193, -0.005633970722556114, -0.0007069854764267802, 1.000916600227356, -1.6682173013687134, -0.9405613541603088, -0.23151268064975739, 0.0, 0.0, 0.0, 0, 0, 0, 0, 0, 0, -1.6682173013687134, -0.9405613541603088, -0.23151268064975739
14324, 0.07959619164466858, -0.16007034480571747, 0.05196812376379967, -0.10984794050455093, 0.38159969449043274, 0.021412042900919914, -0.002148921135812998, -0.0016001202166080475, 1.0004504919052124, -1.6706514358520508, -0.9425327181816101, -0.23190872371196747, 0.0, 0.0, 0.0, 0, 0, 0, 0, 0, 0, -1.6706514358520508, -0.9425327181816101, -0.23190872371196747
14334, 0.07950858771800995, -0.1607222706079483, 0.05312826856970787, -0.042488567531108856, 0.04478154703974724, 0.035285599529743195, -0.002239363268017769, -0.0024495108518749475, 1.000664234161377, -1.6730865240097046, -0.9445065855979919, -0.23230399191379547, 0.0, 0.0, 0.0, 0, 0, 0, 0, 0, 0, -1.6730865240097046, -0.9445065855979919, -0.23230399191379547
14344, 0.07969494163990021, -0.16136014461517334, 0.054504845291376114, 0.011083094403147697, 0.17855232954025269, 0.1324661672115326, -0.005027467850595713, -0.0023816132452338934, 1.0001505613327026, -1.6755212545394897, -0.946483850479126, -0.23269867897033691, 0.0, 0.0, 0.0, 0, 0, 0, 0, 0, 0, -1.6755212545394897, -0.946483850479126, -0.23269867897033691
14354, 0.08063855767250061, -0.16226619482040405, 0.05465270206332207, 0.1332194060087204, 0.23926092684268951, 0.060730718076229095, -0.004242351744323969, -0.0007355590350925922, 1.0000962018966675, -1.6779567003250122, -0.9484647512435913, -0.23309288918972015, 0.0, 0.0, 0.0, 0, 0, 0, 0, 0, 0, -1.6779567003250122, -0.9484647512435913, -0.23309288918972015
14364, 0.0808357447385788, -0.16042159497737885, 0.05433384329080582, 0.2194521129131317, -0.3142783045768738, 0.17905540764331818, -0.002164882142096758, -7.043422374408692e-05, 0.9973467588424683, -1.6803936958312988, -0.9504484534263611, -0.23348701000213623, 0.0, 0.0, 0.0, 0, 0, 0, 0, 0, 0, -1.6803936958312988, -0.9504484534263611, -0.23348701000213623
14374, 0.08103451132774353, -0.16201363503932953, 0.05464084446430206, 0.10908832401037216, 0.05060360208153725, 0.10269045829772949, -0.0018553504487499595, -0.0019445315701887012, 0.9986592531204224, -1.6828309297561646, -0.9524340033531189, -0.23388241231441498, 0.0, 0.0, 0.0, 0, 0, 0, 0, 0, 0, -1.6828309297561646, -0.9524340033531189, -0.23388241231441498
14384, 0.08241398632526398, -0.1622602492570877, 0.05439911410212517, 0.17392072081565857, -0.10221317410469055, 0.08870288729667664, -0.0031725987792015076, -0.001441948232240975, 0.9986569881439209, -1.685267448425293, -0.9544219970703125, -0.2342798411846161, 0.0, 0.0, 0.0, 0, 0, 0, 0, 0, 0, -1.685267448425293, -0.9544219970703125, -0.2342798411846161
14394, 0.08208229392766953, -0.1641562432050705, 0.054699528962373734, -0.10753338783979416, 0.3185424506664276, -0.017322152853012085, -0.004651975352317095, 0.0008905515423975885, 1.0006473064422607, -1.6877036094665527, -0.9564129710197449, -0.23467864096164703, 0.0, 0.0, 0.0, 0, 0, 0, 0, 0, 0, -1.6877036094665527, -0.9564129710197449, -0.23467864096164703
14404, 0.08141013234853745, -0.1654859036207199, 0.05592942610383034, -0.1067773625254631, 0.2528970241546631, 0.22020840644836426, -0.0036475013475865126, 5.26071889908053e-05, 1.0010523796081543, -1.6901406049728394, -0.958405613899231, -0.23507778346538544, 0.0, 0.0, 0.0, 0, 0, 0, 0, 0, 0, -1.6901406049728394, -0.958405613899231, -0.23507778346538544
14414, 0.08149148523807526, -0.16335773468017578, 0.056095581501722336, 0.06344953179359436, -0.2858497202396393, 0.1718374490737915, -0.005094129126518965, 0.00011790839198511094, 1.001718521118164, -1.692578673362732, -0.9603992700576782, -0.23547619581222534, 0.0, 0.0, 0.0, 0, 0, 0, 0, 0, 0, -1.692578673362732, -0.9603992700576782, -0.23547619581222534
14424, 0.08183693140745163, -0.16238051652908325, 0.05557329207658768, 0.09885893017053604, 0.034201961010694504, 0.03808865323662758, -0.005483704153448343, -0.0005763599183410406, 0.997734785079956, -1.6950181722640991, -0.9623942971229553, -0.23587356507778168, 0.0, 0.0, 0.0, 0, 0, 0, 0, 0, 0, -1.6950181722640991, -0.9623942971229553, -0.23587356507778168
14434, 0.08147557824850082, -0.1609749048948288, 0.05533640459179878, -0.03245805948972702, -0.07209189981222153, -0.11014830321073532, -0.002889659022912383, -0.0026287646032869816, 0.999995768070221, -1.6974596977233887, -0.9643911719322205, -0.2362714409828186, 0.0, 0.0, 0.0, 0, 0, 0, 0, 0, 0, -1.6974596977233887, -0.9643911719322205, -0.2362714409828186
14444, 0.08208823204040527, -0.16092558205127716, 0.05568419396877289, -0.16903246939182281, 0.1228988841176033, -0.0674063190817833, -0.0018485678592696786, -0.0006377117824740708, 1.0003184080123901, -1.6999024152755737, -0.9663910269737244, -0.2366703599691391, 0.0, 0.0, 0.0, 0, 0, 0, 0, 0, 0, -1.6999024152755737, -0.9663910269737244, -0.2366703599691391
14454, 0.08186375349760056, -0.15978696942329407, 0.05531538277864456, -0.1085163876414299, -0.06565634161233902, -0.11882229894399643, -0.004645781125873327, -0.0015293961623683572, 0.9997421503067017, -1.7023447751998901, -0.9683938026428223, -0.23706914484500885, 0.0, 0.0, 0.0, 0, 0, 0, 0, 0, 0, -1.7023447751998901, -0.9683938026428223, -0.23706914484500885
14464, 0.0817476287484169, -0.16021735966205597, 0.056255683302879333, -0.08185795694589615, 0.18415039777755737, 0.2488190084695816, -0.005854255985468626, -0.00013543743989430368, 1.0000507831573486, -1.7047877311706543, -0.9703990817070007, -0.23746800422668457, 0.0, 0.0, 0.0, 0, 0, 0, 0, 0, 0, -1.7047877311706543, -0.9703990817070007, -0.23746800422668457
14474, 0.08196764439344406, -0.16121496260166168, 0.05447281152009964, 0.17989151179790497, -0.030101973563432693, -0.30919310450553894, -0.003376335371285677, -0.00020872846653219312, 0.9997067451477051, -1.7072328329086304, -0.9724065661430359, -0.2378673106431961, 0.0, 0.0, 0.0, 0, 0, 0, 0, 0, 0, -1.7072328329086304, -0.9724065661430359, -0.2378673106431961
14484, 0.08243026584386826, -0.1601996123790741, 0.05298968032002449, 0.2048061043024063, -0.10264965146780014, -0.01698777638375759, -0.003022996708750725, -0.0028025773353874683, 1.0016402006149292, -1.7096796035766602, -0.9744157791137695, -0.23826688528060913, 0.0, 0.0, 0.0, 0, 0, 0, 0, 0, 0, -1.7096796035766602, -0.9744157791137695, -0.23826688528060913
14494, 0.08257514238357544, -0.15900543332099915, 0.052265144884586334, 0.06335864961147308, -0.12453850358724594, -0.1804850995540619, -0.0055517652072012424, -0.0034821152221411467, 1.0019158124923706, -1.7121268510818481, -0.9764277935028076, -0.23866593837738037, 0.0, 0.0, 0.0, 0, 0, 0, 0, 0, 0, -1.7121268510818481, -0.9764277935028076, -0.23866593837738037
14504, 0.0826110988855362, -0.1588430553674698, 0.05142436549067497, 0.08663467317819595, 0.08278826624155045, 0.03400925546884537, -0.004711214918643236, -0.0017602666048333049, 1.0003412961959839, -1.7145756483078003, -0.9784438610076904, -0.23906362056732178, 0.0, 0.0, 0.0, 0, 0, 0, 0, 0, 0, -1.7145756483078003, -0.9784438610076904, -0.23906362056732178
14514, 0.08286602795124054, -0.1609106808900833, 0.052058931440114975, -0.025900399312376976, 0.47292599081993103, 0.19941869378089905, -0.004008622840046883, 0.0008819266222417355, 0.9998277425765991, -1.7170264720916748, -0.9804636240005493, -0.239460289478302, 0.0, 0.0, 0.0, 0, 0, 0, 0, 0, 0, -1.7170264720916748, -0.9804636240005493, -0.239460289478302
14524, 0.08357638120651245, -0.16139532625675201, 0.05189449340105057, 0.03669240325689316, -0.09727014601230621, -0.1903710514307022, -0.004335899371653795, 0.0016241654520854354, 1.0013490915298462, -1.719478726387024, -0.9824851155281067, -0.23985673487186432, 0.0, 0.0, 0.0, 0, 0, 0, 0, 0, 0, -1.719478726387024, -0.9824851155281067, -0.23985673487186432
14534, 0.08412684500217438, -0.1624511331319809, 0.05279792845249176, 0.03139057010412216, 0.077798992395401, -0.0692654550075531, -0.005437515676021576, -0.0012678535422310233, 1.0008705854415894, -1.721932291984558, -0.9845069050788879, -0.2402525693178177, 0.0, 0.0, 0.0, 0, 0, 0, 0, 0, 0, -1.721932291984558, -0.9845069050788879, -0.2402525693178177
14544, 0.0838775634765625, -0.16055889427661896, 0.05162500590085983, 0.004514194559305906, -0.30856284499168396, -0.09264212846755981, -0.004916077479720116, -0.0020901034586131573, 1.0007562637329102, -1.7243878841400146, -0.9865302443504333, -0.24064745008945465, 0.0, 0.0, 0.0, 0, 0, 0, 0, 0, 0, -1.7243878841400146, -0.9865302443504333, -0.24064745008945465
14554, 0.08409582823514938, -0.15744350850582123, 0.05134307220578194, 0.01812458224594593, -0.3000375032424927, 0.06677696853876114, -0.005575309973210096, -0.0007341122254729271, 1.0005334615707397, -1.7268458604812622, -0.9885566830635071, -0.24104155600070953, 0.0, 0.0, 0.0, 0, 0, 0, 0, 0, 0, -1.7268458604812622, -0.9885566830635071, -0.24104155600070953
14564, 0.08395563066005707, -0.158220112323761, 0.05129215493798256, 0.00851732213050127, 0.26505953073501587, -0.11540044844150543, -0.00329609215259552, -0.0015455177053809166, 0.999943196773529, -1.7293061017990112, -0.9905859231948853, -0.24143506586551666, 0.0, 0.0, 0.0, 0, 0, 0, 0, 0, 0, -1.7293061017990112, -0.9905859231948853, -0.24143506586551666
14574, 0.08497556298971176, -0.1583928018808365, 0.051307808607816696, 0.12550653517246246, 0.06023819372057915, 0.058468904346227646, -0.0034804840106517076, 0.0002738953335210681, 0.9998534321784973, -1.731768012046814, -0.992617666721344, -0.24182842671871185, 0.0, 0.0, 0.0, 0, 0, 0, 0, 0, 0, -1.731768012046814, -0.992617666721344, -0.24182842671871185
14584, 0.08580467104911804, -0.1601724624633789, 0.05039910972118378, 0.005637741181999445, 0.1454300582408905, -0.25482162833213806, -0.0029993453063070774, 0.00044463863014243543, 0.9986721277236938, -1.7342307567596436, -0.9946513772010803, -0.24222198128700256, 0.0, 0.0, 0.0, 0, 0, 0, 0, 0, 0, -1.7342307567596436, -0.9946513772010803, -0.24222198128700256
14594, 0.08585871011018753, -0.16118037700653076, 0.05005078390240669, 0.09436757862567902, 0.09911394864320755, -0.1375095099210739, -0.002968359272927046, 0.0002513877407182008, 0.9982581734657288, -1.7366939783096313, -0.9966861605644226, -0.2426162213087082, 0.0, 0.0, 0.0, 0, 0, 0, 0, 0, 0, -1.7366939783096313, -0.9966861605644226, -0.2426162213087082
14604, 0.086778923869133, -0.1600102335214615, 0.051580626517534256, 0.07002069801092148, -0.18635255098342896, -0.023917503654956818, -0.0043285624124109745, -0.003645723219960928, 0.9966704249382019, -1.739157795906067, -0.9987223148345947, -0.24301192164421082, 0.0, 0.0, 0.0, 0, 0, 0, 0, 0, 0, -1.739157795906067, -0.9987223148345947, -0.24301192164421082
14614, 0.08778255432844162, -0.15903767943382263, 0.05199239030480385, 0.01568259485065937, 0.10414372384548187, 0.16781802475452423, -0.003175306599587202, -0.002311947988346219, 0.9992989897727966, -1.7416226863861084, -1.000761866569519, -0.2434099167585373, 0.0, 0.0, 0.0, 0, 0, 0, 0, 0, 0, -1.7416226863861084, -1.000761866569519, -0.2434099167585373
14624, 0.0886194184422493, -0.15720918774604797, 0.051876094192266464, 0.07691904157400131, -0.22495979070663452, -0.003178984159603715, -0.004302294459193945, 0.0008688897942192852, 0.999805212020874, -1.7440885305404663, -1.0028055906295776, -0.2438095211982727, 0.0, 0.0, 0.0, 0, 0, 0, 0, 0, 0, -1.7440885305404663, -1.0028055906295776, -0.2438095211982727
14634, 0.08780939877033234, -0.1584356129169464, 0.05128118395805359, -0.035714201629161835, 0.27729856967926025, -0.06288085877895355, -0.003301022108644247, 0.0006073962431401014, 0.9975292086601257, -1.7465554475784302, -1.0048514604568481, -0.24420952796936035, 0.0, 0.0, 0.0, 0, 0, 0, 0, 0, 0, -1.7465554475784302, -1.0048514604568481, -0.24420952796936035
14644, 0.08824807405471802, -0.15851734578609467, 0.05030731111764908, 0.018200717866420746, 0.07588287442922592, -0.2023649364709854, -0.0021907843183726072, -0.00037337798858061433, 0.998462975025177, -1.7490233182907104, -1.006898045539856, -0.24461089074611664, 0.0, 0.0, 0.0, 0, 0, 0, 0, 0, 0, -1.7490233182907104, -1.006898045539856, -0.24461089074611664
14654, 0.0883236676454544, -0.15956252813339233, 0.0489395447075367, 0.058866143226623535, 0.2707839608192444, -0.11775171011686325, -0.004654527176171541, 0.0011546993628144264, 0.9998261332511902, -1.7514911890029907, -1.0089458227157593, -0.2450142204761505, 0.0, 0.0, 0.0, 0, 0, 0, 0, 0, 0, -1.7514911890029907, -1.0089458227157593, -0.2450142204761505
14664, 0.08819199353456497, -0.16030563414096832, 0.04963532090187073, -0.11584687232971191, 0.10899721831083298, 0.04644877091050148, -0.004727341700345278, 0.00028471980476751924, 0.9991561770439148, -1.7539597749710083, -1.0109946727752686, -0.24541853368282318, 0.0, 0.0, 0.0, 0, 0, 0, 0, 0, 0, -1.7539597749710083, -1.0109946727752686, -0.24541853368282318
14674, 0.08770177513360977, -0.16182446479797363, 0.04803551360964775, -0.16207332909107208, 0.2160969227552414, -0.3635105490684509, -0.0024675349704921246, -0.0008695126743987203, 1.0016099214553833, -1.7564301490783691, -1.0130443572998047, -0.24582314491271973, 0.0, 0.0, 0.0, 0, 0, 0, 0, 0, 0, -1.7564301490783691, -1.0130443572998047, -0.24582314491271973
14684, 0.08739335089921951, -0.1651759296655655, 0.04806344583630562, 0.05018990859389305, 0.4351508319377899, 0.13713040947914124, -0.0021057105623185635, 0.000889281858690083, 1.001490831375122, -1.7589013576507568, -1.015095591545105, -0.24622705578804016, 0.0, 0.0, 0.0, 0, 0, 0, 0, 0, 0, -1.7589013576507568, -1.015095591545105, -0.24622705578804016
14694, 0.08783038705587387, -0.1661337912082672, 0.046302247792482376, -0.06300351023674011, 0.1770932823419571, -0.16167956590652466, -0.004091412760317326, -0.0005178118590265512, 1.0000613927841187, -1.7613720893859863, -1.0171482563018799, -0.24662946164608002, 0.0, 0.0, 0.0, 0, 0, 0, 0, 0, 0, -1.7613720893859863, -1.0171482563018799, -0.24662946164608002
14704, 0.08748205006122589, -0.16459207236766815, 0.04570884257555008, -0.14957363903522491, -0.45422452688217163, 0.04094025492668152, -0.004554159007966518, -0.002586905611678958, 0.9982635974884033, -1.763843297958374, -1.019202470779419, -0.24703124165534973, 0.0, 0.0, 0.0, 0, 0, 0, 0, 0, 0, -1.763843297958374, -1.019202470779419, -0.24703124165534973
14714, 0.08789044618606567, -0.1631515920162201, 0.04588320851325989, 0.008830353617668152, -0.1936635673046112, 0.10197611898183823, -0.006038806866854429, -0.0015490137739107013, 0.9995274543762207, -1.7663159370422363, -1.0212596654891968, -0.24743391573429108, 0.0, 0.0, 0.0, 0, 0, 0, 0, 0, 0, -1.7663159370422363, -1.0212596654891968, -0.24743391573429108
14724, 0.08791086822748184, -0.16633197665214539, 0.0462188757956028, 0.12918780744075775, 0.3408886194229126, 0.013758108019828796, -0.003956410102546215, -0.001648032572120428, 1.0013881921768188, -1.7687908411026, -1.0233203172683716, -0.24783772230148315, 0.0, 0.0, 0.0, 0, 0, 0, 0, 0, 0, -1.7687908411026, -1.0233203172683716, -0.24783772230148315
14734, 0.08767383545637131, -0.16867154836654663, 0.04585130885243416, -0.02616114728152752, 0.18852519989013672, -0.11508405953645706, -0.00330625893548131, -0.0026995576918125153, 0.9987629055976868, -1.7712675333023071, -1.0253840684890747, -0.24824120104312897, 0.0, 0.0, 0.0, 0, 0, 0, 0, 0, 0, -1.7712675333023071, -1.0253840684890747, -0.24824120104312897
14744, 0.0876704528927803, -0.16876934468746185, 0.04641585424542427, -0.10105780512094498, 0.08294743299484253, -0.048334017395973206, -0.002980154938995838, -0.0014988748589530587, 0.9965214729309082, -1.7737449407577515, -1.0274513959884644, -0.24864473938941956, 0.0, 0.0, 0.0, 0, 0, 0, 0, 0, 0, -1.7737449407577515, -1.0274513959884644, -0.24864473938941956
14754, 0.08573170751333237, -0.16868485510349274, 0.04721610248088837, -0.20629049837589264, 0.04228874295949936, -0.017079917713999748, -0.0026562707498669624, -0.0006316617364063859, 1.0001816749572754, -1.776222586631775, -1.029522180557251, -0.24905060231685638, 0.0, 0.0, 0.0, 0, 0, 0, 0, 0, 0, -1.776222586631775, -1.029522180557251, -0.24905060231685638
14764, 0.08630374073982239, -0.16746070981025696, 0.046166934072971344, 0.07193402945995331, -0.044561002403497696, -0.18465016782283783, -0.004482659045606852, -0.0012173927389085293, 0.9997530579566956, -1.7787002325057983, -1.0315954685211182, -0.2494581639766693, 0.0, 0.0, 0.0, 0, 0, 0, 0, 0, 0, -1.7787002325057983, -1.0315954685211182, -0.2494581639766693
14774, 0.08702672272920609, -0.1670934408903122, 0.04699278622865677, 0.15575775504112244, -0.019270295277237892, 0.1257888525724411, -0.003967786207795143, -0.0006160985794849694, 1.0006682872772217, -1.7811784744262695, -1.0336710214614868, -0.24986591935157776, 0.0, 0.0, 0.0, 0, 0, 0, 0, 0, 0, -1.7811784744262695, -1.0336710214614868, -0.24986591935157776
14784, 0.08631157130002975, -0.1684601902961731, 0.04744882136583328, 0.03348100557923317, 0.14213122427463531, 0.1801978349685669, -0.002214831067249179, -0.0017744597280398011, 0.9989895224571228, -1.7836579084396362, -1.035749077796936, -0.25027352571487427, 0.0, 0.0, 0.0, 0, 0, 0, 0, 0, 0, -1.7836579084396362, -1.035749077796936, -0.25027352571487427
14794, 0.08790647238492966, -0.16801130771636963, 0.04706825688481331, 0.25862187147140503, 0.04085199162364006, 0.13519544899463654, -0.005031144246459007, -0.0004099592624697834, 0.9992331862449646, -1.7861377000808716, -1.037829875946045, -0.2506813406944275, 0.0, 0.0, 0.0, 0, 0, 0, 0, 0, 0, -1.7861377000808716, -1.037829875946045, -0.2506813406944275
14804, 0.08689532428979874, -0.16674049198627472, 0.04681233689188957, -0.013670350424945354, -0.39315471053123474, -0.07069458067417145, -0.005767244845628738, -0.0005652584368363023, 1.0016475915908813, -1.7886184453964233, -1.0399131774902344, -0.25108999013900757, 0.0, 0.0, 0.0, 0, 0, 0, 0, 0, 0, -1.7886184453964233, -1.0399131774902344, -0.25108999013900757
14814, 0.08668698370456696, -0.16655397415161133, 0.04687581583857536, 0.02147481217980385, 0.1472606211900711, -0.020067214965820312, -0.003962751477956772, 0.0009758551022969186, 1.0026789903640747, -1.7911016941070557, -1.0419983863830566, -0.25149813294410706, 0.0, 0.0, 0.0, 0, 0, 0, 0, 0, 0, -1.7911016941070557, -1.0419983863830566, -0.25149813294410706
14824, 0.08729160577058792, -0.16757315397262573, 0.04583584889769554, 0.13997212052345276, 0.10968828946352005, -0.12402185797691345, -0.0029351413249969482, -0.0001729395444272086, 1.0018959045410156, -1.7935868501663208, -1.044084906578064, -0.251904159784317, 0.0, 0.0, 0.0, 0, 0, 0, 0, 0, 0, -1.7935868501663208, -1.044084906578064, -0.251904159784317
14834, 0.08651592582464218, -0.1687934845685959, 0.0455850251019001, -0.1748657077550888, 0.044028058648109436, -0.1918405145406723, -0.0026392810977995396, 0.001181341358460486, 0.9984542727470398, -1.7960721254348755, -1.0461723804473877, -0.2523082494735718, 0.0, 0.0, 0.0, 0, 0, 0, 0, 0, 0, -1.7960721254348755, -1.0461723804473877, -0.2523082494735718
14844, 0.0879688560962677, -0.16956232488155365, 0.04652916267514229, 0.25122252106666565, 0.22635510563850403, 0.2498861849308014, -0.0034969577100127935, -0.001272514695301652, 0.9989122152328491, -1.7985570430755615, -1.0482608079910278, -0.2527123987674713, 0.0, 0.0, 0.0, 0, 0, 0, 0, 0, 0, -1.7985570430755615, -1.0482608079910278, -0.2527123987674713
14854, 0.08749445527791977, -0.17106670141220093, 0.046686846762895584, 0.04691826179623604, 0.1722106635570526, 0.10652542859315872, -0.005177898332476616, -0.0014248962979763746, 1.0007604360580444, -1.8010423183441162, -1.0503507852554321, -0.2531176209449768, 0.0, 0.0, 0.0, 0, 0, 0, 0, 0, 0, -1.8010423183441162, -1.0503507852554321, -0.2531176209449768
14864, 0.0879044160246849, -0.17180640995502472, 0.04547589644789696, 0.1011766567826271, -0.1056559756398201, -0.18203964829444885, -0.004276870749890804, -0.0035387210082262754, 0.9990211725234985, -1.803529143333435, -1.0524437427520752, -0.25352299213409424, 0.0, 0.0, 0.0, 0, 0, 0, 0, 0, 0, -1.803529143333435, -1.0524437427520752, -0.25352299213409424
14874, 0.08690425008535385, -0.17180302739143372, 0.044912151992321014, -0.1961958408355713, -0.029586514458060265, -0.15994687378406525, -0.0043433536775410175, -0.002740659285336733, 0.9990783333778381, -1.8060176372528076, -1.054540753364563, -0.25392845273017883, 0.0, 0.0, 0.0, 0, 0, 0, 0, 0, 0, -1.8060176372528076, -1.054540753364563, -0.25392845273017883
14884, 0.08692122995853424, -0.1721974015235901, 0.04384522885084152, 0.13967126607894897, 0.2766401767730713, -0.0034801242873072624, -0.0035138772800564766, -0.0018778385128825903, 0.9987624883651733, -1.8085072040557861, -1.0566421747207642, -0.2543346881866455, 0.0, 0.0, 0.0, 0, 0, 0, 0, 0, 0, -1.8085072040557861, -1.0566421747207642, -0.2543346881866455
14894, 0.08742361515760422, -0.17339473962783813, 0.044335003942251205, 0.1369946300983429, 0.2407296895980835, 0.2782776951789856, -0.0028112938161939383, -0.00047816388541832566, 1.0000077486038208, -1.810997486114502, -1.0587471723556519, -0.2547418773174286, 0.0, 0.0, 0.0, 0, 0, 0, 0, 0, 0, -1.810997486114502, -1.0587471723556519, -0.2547418773174286
14904, 0.08756077289581299, -0.17248930037021637, 0.04295802861452103, -0.02516721747815609, 0.06696177273988724, -0.1965196430683136, -0.0015468992060050368, -0.0022977283224463463, 0.9994661808013916, -1.8134878873825073, -1.0608550310134888, -0.2551497220993042, 0.0, 0.0, 0.0, 0, 0, 0, 0, 0, 0, -1.8134878873825073, -1.0608550310134888, -0.2551497220993042
14914, 0.08836604654788971, -0.17183177173137665, 0.04365179315209389, 0.10021056234836578, -0.016856271773576736, 0.06851185858249664, -0.00374035001732409, -0.001333738211542368, 0.9983866810798645, -1.8159775733947754, -1.062965989112854, -0.2555580735206604, 0.0, 0.0, 0.0, 0, 0, 0, 0, 0, 0, -1.8159775733947754, -1.062965989112854, -0.2555580735206604
14924, 0.08782914280891418, -0.1718297153711319, 0.04384149610996246, -0.06282474845647812, 0.05985459312796593, 0.024733833968639374, -0.004562465939670801, -4.389349214761751e-06, 0.998310387134552, -1.8184670209884644, -1.065079927444458, -0.2559674084186554, 0.0, 0.0, 0.0, 0, 0, 0, 0, 0, 0, -1.8184670209884644, -1.065079927444458, -0.2559674084186554
14934, 0.08791504800319672, -0.17168714106082916, 0.04343403875827789, 0.09612038731575012, 0.1471838504076004, -0.10910795629024506, -0.006517773028463125, -0.0014660625020042062, 0.9978973865509033, -1.8209574222564697, -1.067196011543274, -0.2563781440258026, 0.0, 0.0, 0.0, 0, 0, 0, 0, 0, 0, -1.8209574222564697, -1.067196011543274, -0.2563781440258026
14944, 0.08867266774177551, -0.16796305775642395, 0.044022995978593826, 0.096281498670578, -0.4819782078266144, 0.18588268756866455, -0.006145881488919258, -0.0007609132444486022, 0.9991962313652039, -1.8234502077102661, -1.0693144798278809, -0.2567906081676483, 0.0, 0.0, 0.0, 0, 0, 0, 0, 0, 0, -1.8234502077102661, -1.0693144798278809, -0.2567906081676483
14954, 0.08912216871976852, -0.16633836925029755, 0.043963927775621414, 0.03453166037797928, -0.041648510843515396, 0.09928485751152039, -0.0052582016214728355, -0.0010440631303936243, 0.9994596242904663, -1.8259459733963013, -1.071435570716858, -0.2572043538093567, 0.0, 0.0, 0.0, 0, 0, 0, 0, 0, 0, -1.8259459733963013, -1.071435570716858, -0.2572043538093567
14964, 0.0887712687253952, -0.16601087152957916, 0.04413880780339241, -0.10808702558279037, 0.1000315472483635, -0.003669996513053775, -0.0033021371345967054, -0.00027370575116947293, 0.9995778203010559, -1.828444242477417, -1.0735589265823364, -0.25761863589286804, 0.0, 0.0, 0.0, 0, 0, 0, 0, 0, 0, -1.828444242477417, -1.0735589265823364, -0.25761863589286804
14974, 0.08903921395540237, -0.1673354059457779, 0.043633412569761276, 0.03965475782752037, 0.18296363949775696, -0.09998641908168793, -0.0018823904683813453, -1.2877058907179162e-05, 1.0003395080566406, -1.8309435844421387, -1.0756843090057373, -0.25803324580192566, 0.0, 0.0, 0.0, 0, 0, 0, 0, 0, 0, -1.8309435844421387, -1.0756843090057373, -0.25803324580192566
14984, 0.0898442342877388, -0.16862832009792328, 0.04506111145019531, 0.05131816118955612, 0.1016092374920845, 0.12803015112876892, -0.002786071738228202, -0.0018829837208613753, 0.9996814727783203, -1.8334425687789917, -1.077811360359192, -0.2584478259086609, 0.0, 0.0, 0.0, 0, 0, 0, 0, 0, 0, -1.8334425687789917, -1.077811360359192, -0.2584478259086609
14994, 0.08981871604919434, -0.16937674582004547, 0.04555334895849228, -0.0005465061985887587, 0.15497153997421265, 0.04951590672135353, -0.002726526465266943, -0.002921793144196272, 0.9990819096565247, -1.835941195487976, -1.079940676689148, -0.25886234641075134, 0.0, 0.0, 0.0, 0, 0, 0, 0, 0, 0, -1.835941195487976, -1.079940676689148, -0.25886234641075134
15004, 0.08899737149477005, -0.17046672105789185, 0.04379792511463165, -0.15080255270004272, 0.17517821490764618, -0.28489962220191956, -0.003187474561855197, -0.000449910934548825, 0.9990519881248474, -1.8384398221969604, -1.0820735692977905, -0.2592773139476776, 0.0, 0.0, 0.0, 0, 0, 0, 0, 0, 0, -1.8384398221969604, -1.0820735692977905, -0.2592773139476776
15014, 0.08927122503519058, -0.1718607246875763, 0.044273920357227325, -0.04460880905389786, 0.14306296408176422, -0.18194739520549774, -0.0033853480126708746, -0.0018813478527590632, 1.001121997833252, -1.8409384489059448, -1.084209680557251, -0.25969308614730835, 0.0, 0.0, 0.0, 0, 0, 0, 0, 0, 0, -1.8409384489059448, -1.084209680557251, -0.25969308614730835
15024, 0.08889641612768173, -0.1722659021615982, 0.04499600827693939, -0.04188888520002365, 0.028113877400755882, -0.03435760363936424, -0.004820287227630615, -0.002535961801186204, 1.001147747039795, -1.8434373140335083, -1.086348533630371, -0.26010891795158386, 0.0, 0.0, 0.0, 0, 0, 0, 0, 0, 0, -1.8434373140335083, -1.086348533630371, -0.26010891795158386
15034, 0.08768528699874878, -0.17257192730903625, 0.04445047676563263, -0.13263875246047974, 0.07105013728141785, -0.008155296556651592, -0.0030581604223698378, -0.000921921047847718, 0.9999339580535889, -1.8459372520446777, -1.0884910821914673, -0.2605239152908325, 0.0, 0.0, 0.0, 0, 0, 0, 0, 0, 0, -1.8459372520446777, -1.0884910821914673, -0.2605239152908325
15044, 0.08700726926326752, -0.17120037972927094, 0.04352666810154915, 0.07094607502222061, -0.059682440012693405, -0.018626190721988678, -0.004094295669347048, 0.00011661638563964516, 1.0012985467910767, -1.8484379053115845, -1.090636968612671, -0.2609383165836334, 0.0, 0.0, 0.0, 0, 0, 0, 0, 0, 0, -1.8484379053115845, -1.090636968612671, -0.2609383165836334
15054, 0.08798213303089142, -0.17191360890865326, 0.04382617026567459, 0.1930759698152542, 0.19696784019470215, 0.05746336653828621, -0.005972833372652531, -0.000504304189234972, 1.001156210899353, -1.850939154624939, -1.0927848815917969, -0.2613520324230194, 0.0, 0.0, 0.0, 0, 0, 0, 0, 0, 0, -1.850939154624939, -1.0927848815917969, -0.2613520324230194
15064, 0.08742121607065201, -0.17199480533599854, 0.044804345816373825, -0.11373988538980484, 0.060221605002880096, 0.10114580392837524, -0.006144416518509388, -0.0021380321122705936, 1.0003279447555542, -1.8534424304962158, -1.0949347019195557, -0.2617645859718323, 0.0, 0.0, 0.0, 0, 0, 0, 0, 0, 0, -1.8534424304962158, -1.0949347019195557, -0.2617645859718323
15074, 0.08733373880386353, -0.17274832725524902, 0.04555068537592888, -0.0044728973880410194, 0.10240782797336578, -0.020751992240548134, -0.0033723993692547083, -0.001674651401117444, 0.9992201924324036, -1.855948805809021, -1.0970872640609741, -0.26217642426490784, 0.0, 0.0, 0.0, 0, 0, 0, 0, 0, 0, -1.855948805809021, -1.0970872640609741, -0.26217642426490784
15084, 0.08743534237146378, -0.17467191815376282, 0.047037139534950256, -0.004567478317767382, 0.18889030814170837, 0.2289031445980072, -0.003795321797952056, -0.000281768967397511, 1.0004063844680786, -1.8584569692611694, -1.0992431640625, -0.26258841156959534, 0.0, 0.0, 0.0, 0, 0, 0, 0, 0, 0, -1.8584569692611694, -1.0992431640625, -0.26258841156959534
15094, 0.08759874850511551, -0.17265738546848297, 0.046049632132053375, 0.0455813966691494, -0.28399112820625305, -0.17227664589881897, -0.0031142770312726498, -0.00023687850625719875, 1.000265121459961, -1.8609659671783447, -1.1014015674591064, -0.2630004286766052, 0.0, 0.0, 0.0, 0, 0, 0, 0, 0, 0, -1.8609659671783447, -1.1014015674591064, -0.2630004286766052
15104, 0.08741636574268341, -0.17247314751148224, 0.04587596654891968, -0.006619903724640608, 0.029612984508275986, -0.002090837573632598, -0.0036722503136843443, -0.00014176619879435748, 1.0000369548797607, -1.8634753227233887, -1.1035618782043457, -0.2634119391441345, 0.0, 0.0, 0.0, 0, 0, 0, 0, 0, 0, -1.8634753227233887, -1.1035618782043457, -0.2634119391441345
15114, 0.08741636574268341, -0.17247314751148224, 0.04587596654891968, -0.1084543764591217, 0.08327099680900574, -0.2039133608341217, -0.004432057496160269, -0.00202009454369545, 0.9981896281242371, -1.8662358522415161, -1.105940341949463, -0.2638643980026245, 0.0, 0.0, 0.0, 0, 0, 0, 0, 0, 0, -1.8662358522415161, -1.105940341949463, -0.2638643980026245
15124, 0.08725716918706894, -0.1696683168411255, 0.0465010367333889, -0.002458395902067423, -0.15725703537464142, 0.005035745445638895, -0.0030477733816951513, -0.0018780165119096637, 0.9984305500984192, -1.868746280670166, -1.1081053018569946, -0.2642766833305359, 0.0, 0.0, 0.0, 0, 0, 0, 0, 0, 0, -1.868746280670166, -1.1081053018569946, -0.2642766833305359
15134, 0.08725716918706894, -0.1696683168411255, 0.0465010367333889, -0.08049038052558899, -0.21259716153144836, -0.05486772209405899, -0.0017189047066494823, -0.00337507133372128, 0.9990653395652771, -1.8712571859359741, -1.1102737188339233, -0.26469045877456665, 0.0, 0.0, 0.0, 0, 0, 0, 0, 0, 0, -1.8712571859359741, -1.1102737188339233, -0.26469045877456665
15144, 0.08665305376052856, -0.16985946893692017, 0.04621460661292076, 0.08208788186311722, -0.05180889368057251, -0.024663250893354416, -0.002576628001406789, -0.0015702765667811036, 1.000226378440857, -1.873767375946045, -1.1124460697174072, -0.2651052474975586, 0.0, 0.0, 0.0, 0, 0, 0, 0, 0, 0, -1.873767375946045, -1.1124460697174072, -0.2651052474975586
15154, 0.08665305376052856, -0.16985946893692017, 0.04621460661292076, 0.07823503017425537, -0.3053036332130432, 0.15734906494617462, -0.00590862613171339, -0.00045655298163183033, 1.0001143217086792, -1.8762770891189575, -1.1146221160888672, -0.2655203938484192, 0.0, 0.0, 0.0, 0, 0, 0, 0, 0, 0, -1.8762770891189575, -1.1146221160888672, -0.2655203938484192
15164, 0.08650702238082886, -0.16954877972602844, 0.04528943821787834, 0.23386000096797943, -0.0031695484649389982, -0.19018511474132538, -0.003400673158466816, -0.001056135632097721, 1.0005578994750977, -1.8787881135940552, -1.1168006658554077, -0.2659352719783783, 0.0, 0.0, 0.0, 0, 0, 0, 0, 0, 0, -1.8787881135940552, -1.1168006658554077, -0.2659352719783783
15174, 0.08650702238082886, -0.16954877972602844, 0.04528943821787834, 0.0015305266715586185, -0.2548787593841553, -0.031105872243642807, -0.0035244522150605917, -0.002092355862259865, 0.9974133968353271, -1.881300687789917, -1.1189817190170288, -0.2663501799106598, 0.0, 0.0, 0.0, 0, 0, 0, 0, 0, 0, -1.881300687789917, -1.1189817190170288, -0.2663501799106598
15184, 0.08501922339200974, -0.1671474426984787, 0.045119717717170715, -0.19061535596847534, -0.13755975663661957, 0.03305928781628609, -0.00500341784209013, -0.0023887320421636105, 0.9996007084846497, -1.8838139772415161, -1.1211659908294678, -0.2667665183544159, 0.0, 0.0, 0.0, 0, 0, 0, 0, 0, 0, -1.8838139772415161, -1.1211659908294678, -0.2667665183544159
