timeTick, roll, pitch, yaw, gyroX, gyroY, gyroZ, accX, accY, accZ, stateX, stateY, stateZ, target_x, target_y, target_z, otX, otY, otZ, otRoll, otPitch, otYaw, kalX, kalY, kalZ
13640, 0.04067334905266762, -0.01258163433521986, 0.13845719397068024, 0, 0, 0, 0, 0, 0, 0, 0, 0, 0, 0, 0, 0, 0, 0, 0, 0, 0, 0, 0, 0
13650, 0.04065754637122154, -0.013198728673160076, 0.1374765783548355, 0.07478238642215729, 0.04894576594233513, -0.032883141189813614, -0.0024687391705811024, -0.00639193644747138, 0.9992631077766418, -1.031949520111084, -2.5240800380706787, -0.01400848664343357, 0.0, 0.0, 0.0, 0, 0, 0, 0, 0, 0, -1.031949520111084, -2.5240800380706787, -0.01400848664343357
13660, 0.040215399116277695, -0.014082228764891624, 0.13686233758926392, -0.003256439696997404, 0.271615594625473, 0.012705031782388687, -0.003250956302508712, -0.004095158539712429, 0.9998790621757507, -1.0338714122772217, -2.5290584564208984, -0.014034569263458252, 0.0, 0.0, 0.0, 0, 0, 0, 0, 0, 0, -1.0338714122772217, -2.5290584564208984, -0.014034569263458252
13670, 0.039044249802827835, -0.014784037135541439, 0.13690564036369324, -0.25480344891548157, 0.20247125625610352, 0.001455318764783442, -0.0033864686265587807, -0.004296165890991688, 1.0014514923095703, -1.0357956886291504, -2.5340428352355957, -0.014061427675187588, 0.0, 0.0, 0.0, 0, 0, 0, 0, 0, 0, -1.0357956886291504, -2.5340428352355957, -0.014061427675187588
13680, 0.03975144401192665, -0.012576509267091751, 0.13656757771968842, 0.0798577293753624, -0.3160710036754608, -0.15745273232460022, -0.002117622410878539, -0.004256619606167078, 1.0009596347808838, -1.0377225875854492, -2.539031744003296, -0.014087937772274017, 0.0, 0.0, 0.0, 0, 0, 0, 0, 0, 0, -1.0377225875854492, -2.539031744003296, -0.014087937772274017
13690, 0.0405036062002182, -0.011786521412432194, 0.13722389936447144, 0.11520466208457947, -0.07684635370969772, -0.09180603176355362, -0.0025708116590976715, -0.0038560405373573303, 1.0011156797409058, -1.0396519899368286, -2.544025421142578, -0.01411323994398117, 0.0, 0.0, 0.0, 0, 0, 0, 0, 0, 0, -1.0396519899368286, -2.544025421142578, -0.01411323994398117
13700, 0.0401335135102272, -0.012447651475667953, 0.13828346133232117, -0.07992614805698395, 0.029234101995825768, 0.13098032772541046, -0.003422854235395789, -0.005916473921388388, 0.9994109272956848, -1.0415834188461304, -2.5490238666534424, -0.01413744781166315, 0.0, 0.0, 0.0, 0, 0, 0, 0, 0, 0, -1.0415834188461304, -2.5490238666534424, -0.01413744781166315
13710, 0.03992296755313873, -0.010018639266490936, 0.13760612905025482, -0.10699989646673203, -0.23324334621429443, -0.09059594571590424, -0.004011844284832478, -0.005930547136813402, 0.9986028075218201, -1.0435174703598022, -2.554027557373047, -0.014161144383251667, 0.0, 0.0, 0.0, 0, 0, 0, 0, 0, 0, -1.0435174703598022, -2.554027557373047, -0.014161144383251667
13720, 0.03884926438331604, -0.010994011536240578, 0.1370270550251007, -0.13088582456111908, 0.15572023391723633, -0.06303788721561432, -0.0011717663146555424, -0.004223462659865618, 1.0002305507659912, -1.045454740524292, -2.559037446975708, -0.014185595326125622, 0.0, 0.0, 0.0, 0, 0, 0, 0, 0, 0, -1.045454740524292, -2.559037446975708, -0.014185595326125622
13730, 0.037980079650878906, -0.010376800782978535, 0.13737280666828156, -0.23680120706558228, -0.13939303159713745, -0.047608476132154465, -0.001710765645839274, -0.003872332163155079, 0.9997754096984863, -1.0473945140838623, -2.5640530586242676, -0.014210852794349194, 0.0, 0.0, 0.0, 0, 0, 0, 0, 0, 0, -1.0473945140838623, -2.5640530586242676, -0.014210852794349194
13740, 0.03873390331864357, -0.0106711620464921, 0.13785962760448456, 0.09395671635866165, -0.022632043808698654, 0.06129338592290878, -0.0012835711240768433, -0.005053031723946333, 1.0005499124526978, -1.0493357181549072, -2.569073438644409, -0.014236333779990673, 0.0, 0.0, 0.0, 0, 0, 0, 0, 0, 0, -1.0493357181549072, -2.569073438644409, -0.014236333779990673
13750, 0.040209896862506866, -0.009453203529119492, 0.13742560148239136, 0.2521044611930847, -0.11993216723203659, -0.037866584956645966, -0.0015512702520936728, -0.003829904831945896, 1.0005465745925903, -1.0512781143188477, -2.574098825454712, -0.014261528849601746, 0.0, 0.0, 0.0, 0, 0, 0, 0, 0, 0, -1.0512781143188477, -2.574098825454712, -0.014261528849601746
13760, 0.03920546919107437, -0.008423319086432457, 0.13760177791118622, -0.13498470187187195, 0.003031848231330514, 0.0065809013321995735, -0.002003147965297103, -0.002954102586954832, 1.0011627674102783, -1.0532217025756836, -2.579129457473755, -0.014286115765571594, 0.0, 0.0, 0.0, 0, 0, 0, 0, 0, 0, -1.0532217025756836, -2.579129457473755, -0.014286115765571594
13770, 0.038530949503183365, -0.009444311261177063, 0.13658784329891205, -0.06405559927225113, 0.21577273309230804, -0.18512174487113953, -0.001274381298571825, -0.004765378311276436, 0.9992408752441406, -1.0551666021347046, -2.5841641426086426, -0.014309979043900967, 0.0, 0.0, 0.0, 0, 0, 0, 0, 0, 0, -1.0551666021347046, -2.5841641426086426, -0.014309979043900967
13780, 0.03812175989151001, -0.009165466763079166, 0.1368219405412674, -0.08862920105457306, -0.1058376282453537, 0.06629921495914459, -0.002643961925059557, -0.004849810153245926, 0.9999643564224243, -1.0571130514144897, -2.589203119277954, -0.014333432540297508, 0.0, 0.0, 0.0, 0, 0, 0, 0, 0, 0, -1.0571130514144897, -2.589203119277954, -0.014333432540297508
13790, 0.03851040080189705, -0.009324557147920132, 0.13773168623447418, 0.16956110298633575, 0.04564104601740837, 0.12142977863550186, -0.0036998155992478132, -0.0036450244951993227, 1.0008469820022583, -1.0590611696243286, -2.5942471027374268, -0.01435717660933733, 0.0, 0.0, 0.0, 0, 0, 0, 0, 0, 0, -1.0590611696243286, -2.5942471027374268, -0.01435717660933733
13800, 0.038073185831308365, -0.0083933025598526, 0.13856251537799835, -0.09628094732761383, 0.04515174403786659, 0.2245710790157318, -0.003064966993406415, -0.0063749151304364204, 0.9994363188743591, -1.0610120296478271, -2.5992958545684814, -0.014380855485796928, 0.0, 0.0, 0.0, 0, 0, 0, 0, 0, 0, -1.0610120296478271, -2.5992958545684814, -0.014380855485796928
13810, 0.037545252591371536, -0.007622151169925928, 0.13835009932518005, -0.14469313621520996, -0.050700653344392776, -0.0769103467464447, -0.0013085732934996486, -0.005116352345794439, 1.0023059844970703, -1.062965989112854, -2.6043500900268555, -0.01440468616783619, 0.0, 0.0, 0.0, 0, 0, 0, 0, 0, 0, -1.062965989112854, -2.6043500900268555, -0.01440468616783619
13820, 0.03797801584005356, -0.0075031365267932415, 0.13884061574935913, 0.0258091501891613, -0.016331074759364128, -0.006062657106667757, -0.0021465010941028595, -0.006380686070770025, 0.9976092576980591, -1.0649222135543823, -2.609410285949707, -0.014428124763071537, 0.0, 0.0, 0.0, 0, 0, 0, 0, 0, 0, -1.0649222135543823, -2.609410285949707, -0.014428124763071537
13830, 0.03778788819909096, -0.00785183347761631, 0.13821710646152496, -0.10323752462863922, 0.011751153506338596, -0.1179543063044548, -0.002361940685659647, -0.0030786909628659487, 0.998018741607666, -1.0668803453445435, -2.6144769191741943, -0.014451497234404087, 0.0, 0.0, 0.0, 0, 0, 0, 0, 0, 0, -1.0668803453445435, -2.6144769191741943, -0.014451497234404087
13840, 0.037961196154356, -0.005300793331116438, 0.13767404854297638, -0.06340385228395462, -0.20593717694282532, -0.0489777997136116, -8.32466030260548e-05, -0.0027869082987308502, 0.9987317323684692, -1.0688403844833374, -2.61954927444458, -0.014476618729531765, 0.0, 0.0, 0.0, 0, 0, 0, 0, 0, 0, -1.0688403844833374, -2.61954927444458, -0.014476618729531765
13850, 0.038556989282369614, -0.0051918900571763515, 0.13914218544960022, 0.10200868546962738, 0.10106545686721802, 0.3456571400165558, -0.000695141323376447, -0.0022533421870321035, 0.9996264576911926, -1.0708014965057373, -2.6246254444122314, -0.014503464102745056, 0.0, 0.0, 0.0, 0, 0, 0, 0, 0, 0, -1.0708014965057373, -2.6246254444122314, -0.014503464102745056
13860, 0.03870727866888046, -0.005325698293745518, 0.13861554861068726, -0.05003511533141136, 0.11992305517196655, -0.03374394774436951, -0.002197174122557044, -0.004803781397640705, 0.9991759061813354, -1.0727630853652954, -2.629704713821411, -0.014531191438436508, 0.0, 0.0, 0.0, 0, 0, 0, 0, 0, 0, -1.0727630853652954, -2.629704713821411, -0.014531191438436508
13870, 0.03902413696050644, -0.003993859980255365, 0.1385909467935562, -0.12304115295410156, -0.02333036996424198, 0.07397924363613129, -0.001698260777629912, -0.0063729966059327126, 0.9989836812019348, -1.07472562789917, -2.6347880363464355, -0.014559347182512283, 0.0, 0.0, 0.0, 0, 0, 0, 0, 0, 0, -1.07472562789917, -2.6347880363464355, -0.014559347182512283
13880, 0.03866172954440117, -0.00424146419391036, 0.13899165391921997, -0.07361157238483429, 0.046006109565496445, 0.0016183822881430387, -1.0082566404889803e-05, -0.003914895001798868, 0.9980433583259583, -1.0766898393630981, -2.6398773193359375, -0.014588096179068089, 0.0, 0.0, 0.0, 0, 0, 0, 0, 0, 0, -1.0766898393630981, -2.6398773193359375, -0.014588096179068089
13890, 0.03851407393813133, -0.00435945950448513, 0.13988979160785675, 0.05786331743001938, 0.04880010709166527, 0.3234669864177704, 0.00015758084191475064, -0.004055958241224289, 0.9998193979263306, -1.0786550045013428, -2.644972562789917, -0.014618179760873318, 0.0, 0.0, 0.0, 0, 0, 0, 0, 0, 0, -1.0786550045013428, -2.644972562789917, -0.014618179760873318
13900, 0.038800936192274094, -0.0032306681387126446, 0.1415574699640274, 0.035987772047519684, -0.04980270192027092, 0.3511623740196228, -0.0006385467131622136, -0.004180012736469507, 0.998629093170166, -1.0806201696395874, -2.6500725746154785, -0.014649663120508194, 0.0, 0.0, 0.0, 0, 0, 0, 0, 0, 0, -1.0806201696395874, -2.6500725746154785, -0.014649663120508194
13910, 0.03908200189471245, -0.004071921110153198, 0.14141765236854553, -0.01190005149692297, -0.051013462245464325, 0.02089187316596508, -0.0031150702852755785, -0.004021836444735527, 1.0003292560577393, -1.082585334777832, -2.655177354812622, -0.014682024717330933, 0.0, 0.0, 0.0, 0, 0, 0, 0, 0, 0, -1.082585334777832, -2.655177354812622, -0.014682024717330933
13920, 0.03877255693078041, -0.006518547888845205, 0.14284150302410126, -0.04971122741699219, 0.1369408667087555, 0.09377983212471008, -0.0028398996219038963, -0.0033670440316200256, 0.9997425079345703, -1.0845519304275513, -2.6602869033813477, -0.014714924618601799, 0.0, 0.0, 0.0, 0, 0, 0, 0, 0, 0, -1.0845519304275513, -2.6602869033813477, -0.014714924618601799
13930, 0.03842444345355034, -0.004771404433995485, 0.14188162982463837, -0.12025558948516846, -0.30939775705337524, -0.2456488311290741, -0.0024365107528865337, -0.0038600186817348003, 1.000504493713379, -1.0865211486816406, -2.665400981903076, -0.014747954905033112, 0.0, 0.0, 0.0, 0, 0, 0, 0, 0, 0, -1.0865211486816406, -2.665400981903076, -0.014747954905033112
13940, 0.038274601101875305, -0.005145583767443895, 0.14242154359817505, 0.0012165731750428677, 0.17001058161258698, 0.13640889525413513, -0.003400445217266679, -0.004328579641878605, 0.9995273351669312, -1.0884928703308105, -2.6705193519592285, -0.014780933037400246, 0.0, 0.0, 0.0, 0, 0, 0, 0, 0, 0, -1.0884928703308105, -2.6705193519592285, -0.014780933037400246
13950, 0.03854385018348694, -0.005108320154249668, 0.14239180088043213, -0.023076899349689484, 0.07547002285718918, 0.07548371702432632, -0.002883665729314089, -0.00422962661832571, 0.9990310668945312, -1.0904672145843506, -2.675642490386963, -0.014813886024057865, 0.0, 0.0, 0.0, 0, 0, 0, 0, 0, 0, -1.0904672145843506, -2.675642490386963, -0.014813886024057865
13960, 0.03896573558449745, -0.0020564959850162268, 0.14277377724647522, 0.011081268079578876, -0.48913052678108215, 0.13124002516269684, -0.003916027024388313, -0.004600150510668755, 0.9988773465156555, -1.092444658279419, -2.6807706356048584, -0.014847459271550179, 0.0, 0.0, 0.0, 0, 0, 0, 0, 0, 0, -1.092444658279419, -2.6807706356048584, -0.014847459271550179
13970, 0.03935486823320389, -0.0012896483531221747, 0.1419675052165985, 0.09166479110717773, -0.21875719726085663, -0.049100592732429504, -0.0020964702125638723, -0.004747002851217985, 0.9998078346252441, -1.0944252014160156, -2.685903549194336, -0.014882217161357403, 0.0, 0.0, 0.0, 0, 0, 0, 0, 0, 0, -1.0944252014160156, -2.685903549194336, -0.014882217161357403
13980, 0.03805631771683693, -0.0014499162789434195, 0.1408456414937973, -0.08217713981866837, -0.061311084777116776, -0.05563705787062645, 0.00019481140770949423, -0.004263999871909618, 1.0006952285766602, -1.096408724784851, -2.6910414695739746, -0.01491789985448122, 0.0, 0.0, 0.0, 0, 0, 0, 0, 0, 0, -1.096408724784851, -2.6910414695739746, -0.01491789985448122
13990, 0.03778301551938057, -0.0044794827699661255, 0.14099009335041046, 0.03524352237582207, 0.3734440207481384, 0.1209450513124466, 0.0018300805240869522, -0.004519826266914606, 1.0017690658569336, -1.0983936786651611, -2.6961846351623535, -0.014953495003283024, 0.0, 0.0, 0.0, 0, 0, 0, 0, 0, 0, -1.0983936786651611, -2.6961846351623535, -0.014953495003283024
14000, 0.036902811378240585, -0.0029640737920999527, 0.1402077078819275, -0.2502860128879547, -0.3574123680591583, 0.08979026973247528, -0.0006367117748595774, -0.006717180833220482, 1.0003396272659302, -1.1003780364990234, -2.7013325691223145, -0.01498821284621954, 0.0, 0.0, 0.0, 0, 0, 0, 0, 0, 0, -1.1003780364990234, -2.7013325691223145, -0.01498821284621954
14010, 0.0375724658370018, -0.0021241679787635803, 0.14137017726898193, 0.09782449156045914, -0.06131938472390175, 0.13525152206420898, -0.0025563063099980354, -0.004622913897037506, 0.9993959069252014, -1.1023615598678589, -2.706486463546753, -0.015022015199065208, 0.0, 0.0, 0.0, 0, 0, 0, 0, 0, 0, -1.1023615598678589, -2.706486463546753, -0.015022015199065208
14020, 0.037449516355991364, -0.0019367843633517623, 0.142787903547287, -0.06009133905172348, 0.09001423418521881, 0.28232428431510925, -0.002360280603170395, -0.0035820009652525187, 0.9999670386314392, -1.1043461561203003, -2.711646556854248, -0.015055814757943153, 0.0, 0.0, 0.0, 0, 0, 0, 0, 0, 0, -1.1043461561203003, -2.711646556854248, -0.015055814757943153
14030, 0.03688374534249306, -0.0016905947122722864, 0.14235274493694305, -0.10297910124063492, -0.01433741394430399, -0.003016776405274868, -0.0016092450823634863, -0.004518596455454826, 1.0005247592926025, -1.1063328981399536, -2.7168118953704834, -0.015090030618011951, 0.0, 0.0, 0.0, 0, 0, 0, 0, 0, 0, -1.1063328981399536, -2.7168118953704834, -0.015090030618011951
14040, 0.03683072328567505, -0.00226855231449008, 0.14360052347183228, -0.00025174429174512625, 0.047803644090890884, 0.0502520352602005, -0.002180274110287428, -0.00346112297847867, 0.9999584555625916, -1.1083216667175293, -2.7219817638397217, -0.015124278143048286, 0.0, 0.0, 0.0, 0, 0, 0, 0, 0, 0, -1.1083216667175293, -2.7219817638397217, -0.015124278143048286
14050, 0.03665931895375252, -0.0017598567064851522, 0.14406928420066833, 0.051180314272642136, -0.14414779841899872, 0.07583209872245789, -0.003958770073950291, -0.004070775117725134, 1.0006568431854248, -1.1103122234344482, -2.727156162261963, -0.015158494934439659, 0.0, 0.0, 0.0, 0, 0, 0, 0, 0, 0, -1.1103122234344482, -2.727156162261963, -0.015158494934439659
14060, 0.03735465183854103, -0.0018539958400651813, 0.14475609362125397, 0.10473687201738358, 0.1420205980539322, 0.23492243885993958, 0.0005308813415467739, -0.00392094487324357, 0.9982883334159851, -1.1123054027557373, -2.732335090637207, -0.015192367136478424, 0.0, 0.0, 0.0, 0, 0, 0, 0, 0, 0, -1.1123054027557373, -2.732335090637207, -0.015192367136478424
14070, 0.037257615476846695, -0.0018291485030204058, 0.1439434438943863, 0.08426766097545624, 0.06245742738246918, -0.0037412194069474936, -0.0001225876621901989, -0.004403670784085989, 0.9989026188850403, -1.1145000457763672, -2.738037109375, -0.01523001492023468, 0.0, 0.0, 0.0, 0, 0, 0, 0, 0, 0, -1.1145000457763672, -2.738037109375, -0.01523001492023468
14080, 0.03690233454108238, 0.0005509481416083872, 0.14220842719078064, -0.029468204826116562, -0.2758099138736725, -0.27502065896987915, -0.0006827354081906378, -0.005014483816921711, 0.999576210975647, -1.1164952516555786, -2.7432258129119873, -0.015265400521457195, 0.0, 0.0, 0.0, 0, 0, 0, 0, 0, 0, -1.1164952516555786, -2.7432258129119873, -0.015265400521457195
14090, 0.036401692777872086, 0.0013994683977216482, 0.14229443669319153, -0.13648243248462677, -0.11655619740486145, 0.004868818912655115, -0.0012508747167885303, -0.0035335810389369726, 0.9985049962997437, -1.1184909343719482, -2.748419761657715, -0.015301443636417389, 0.0, 0.0, 0.0, 0, 0, 0, 0, 0, 0, -1.1184909343719482, -2.748419761657715, -0.015301443636417389
14100, 0.03553111478686333, 0.0027475133538246155, 0.14228250086307526, -0.17000164091587067, -0.24955709278583527, -0.08686808496713638, -0.0032454784959554672, -0.0039083692245185375, 1.001102328300476, -1.1204878091812134, -2.7536187171936035, -0.015338219702243805, 0.0, 0.0, 0.0, 0, 0, 0, 0, 0, 0, -1.1204878091812134, -2.7536187171936035, -0.015338219702243805
14110, 0.03629228100180626, 0.0026064252015203238, 0.14267762005329132, 0.06186363473534584, 0.0019371755188331008, -0.09219933301210403, -0.002133260713890195, -0.004821925889700651, 1.0014538764953613, -1.1224867105484009, -2.758822202682495, -0.015375330112874508, 0.0, 0.0, 0.0, 0, 0, 0, 0, 0, 0, -1.1224867105484009, -2.758822202682495, -0.015375330112874508
14120, 0.037083908915519714, 0.0032631345093250275, 0.14297457039356232, 0.13242411613464355, -0.03686277195811272, 0.12427017092704773, -0.00011195490515092388, -0.004949748981744051, 0.999065637588501, -1.124488115310669, -2.7640304565429688, -0.015411349944770336, 0.0, 0.0, 0.0, 0, 0, 0, 0, 0, 0, -1.124488115310669, -2.7640304565429688, -0.015411349944770336
14130, 0.03610030561685562, 0.005533580668270588, 0.14324840903282166, -0.14330856502056122, -0.4093133807182312, 0.08782309293746948, -0.0011559677077457309, -0.007248422130942345, 1.0001660585403442, -1.1264907121658325, -2.7692441940307617, -0.015446682460606098, 0.0, 0.0, 0.0, 0, 0, 0, 0, 0, 0, -1.1264907121658325, -2.7692441940307617, -0.015446682460606098
14140, 0.03567099571228027, 0.0031271895859390497, 0.14404624700546265, -0.009488853625953197, 0.1540277749300003, 0.03785274177789688, -0.0019575529731810093, -0.006136583164334297, 1.000129222869873, -1.1284937858581543, -2.7744643688201904, -0.015482098795473576, 0.0, 0.0, 0.0, 0, 0, 0, 0, 0, 0, -1.1284937858581543, -2.7744643688201904, -0.015482098795473576
14150, 0.03703141584992409, 0.002441722434014082, 0.1437803953886032, 0.1418117731809616, 0.10299649834632874, -0.07669567316770554, -0.0011329720728099346, -0.0029187826439738274, 1.0001178979873657, -1.1304982900619507, -2.779691696166992, -0.015517383813858032, 0.0, 0.0, 0.0, 0, 0, 0, 0, 0, 0, -1.1304982900619507, -2.779691696166992, -0.015517383813858032
14160, 0.03711337968707085, 0.0010766822379082441, 0.1450185775756836, -0.04746655002236366, 0.3852059543132782, 0.09377365559339523, -0.002842646325007081, -0.0045148879289627075, 0.9997634291648865, -1.1325045824050903, -2.784924030303955, -0.015552551485598087, 0.0, 0.0, 0.0, 0, 0, 0, 0, 0, 0, -1.1325045824050903, -2.784924030303955, -0.015552551485598087
14170, 0.03788322955369949, 0.0036495912354439497, 0.1449962854385376, 0.04890483617782593, -0.29228681325912476, -0.06739658862352371, -0.0037788504268974066, -0.0042475126683712006, 0.9989207983016968, -1.1345131397247314, -2.790160894393921, -0.015587599016726017, 0.0, 0.0, 0.0, 0, 0, 0, 0, 0, 0, -1.1345131397247314, -2.790160894393921, -0.015587599016726017
14180, 0.03784097731113434, 0.002677484415471554, 0.1447116583585739, 0.013025612570345402, 0.1810699999332428, -0.06491265445947647, -0.0020250908564776182, -0.00446668965741992, 0.9993149638175964, -1.1365249156951904, -2.7954025268554688, -0.015623199753463268, 0.0, 0.0, 0.0, 0, 0, 0, 0, 0, 0, -1.1365249156951904, -2.7954025268554688, -0.015623199753463268
14190, 0.03758116811513901, 0.0017331624403595924, 0.1442531943321228, -0.030121291056275368, 0.14476032555103302, -0.0426168255507946, -0.0036039859987795353, -0.003911315463483334, 0.9993361234664917, -1.1385395526885986, -2.8006491661071777, -0.01565992645919323, 0.0, 0.0, 0.0, 0, 0, 0, 0, 0, 0, -1.1385395526885986, -2.8006491661071777, -0.01565992645919323
14200, 0.037681493908166885, 0.0016780460719019175, 0.14495448768138885, -0.06081957742571831, -0.0270627960562706, 0.09791018813848495, -0.0016890517435967922, -0.005212502088397741, 0.9976397752761841, -1.140556812286377, -2.805900812149048, -0.015697505325078964, 0.0, 0.0, 0.0, 0, 0, 0, 0, 0, 0, -1.140556812286377, -2.805900812149048, -0.015697505325078964
14210, 0.03782135620713234, 0.0024745590053498745, 0.1459614336490631, 0.008058778010308743, -0.028628353029489517, 0.10151495784521103, -0.002484407974407077, -0.004898344166576862, 0.9992513656616211, -1.1425766944885254, -2.811157703399658, -0.015736494213342667, 0.0, 0.0, 0.0, 0, 0, 0, 0, 0, 0, -1.1425766944885254, -2.811157703399658, -0.015736494213342667
14220, 0.0396830216050148, 0.003828500397503376, 0.14728879928588867, 0.31339672207832336, -0.2080496847629547, 0.09365803003311157, -0.0020257241558283567, -0.004478666000068188, 0.9983944892883301, -1.1445987224578857, -2.816420316696167, -0.015776993706822395, 0.0, 0.0, 0.0, 0, 0, 0, 0, 0, 0, -1.1445987224578857, -2.816420316696167, -0.015776993706822395
14230, 0.03971632197499275, 0.003815854899585247, 0.14691878855228424, 0.0028144430834800005, -0.011100277304649353, 0.07990135252475739, -0.0014828965067863464, -0.005057663656771183, 0.9986982345581055, -1.1466232538223267, -2.821688175201416, -0.01581859588623047, 0.0, 0.0, 0.0, 0, 0, 0, 0, 0, 0, -1.1466232538223267, -2.821688175201416, -0.01581859588623047
14240, 0.03953245282173157, 0.004403494298458099, 0.1477491855621338, -0.005432918202131987, -0.02016543410718441, 0.19205883145332336, -0.0008560610003769398, -0.0044245002791285515, 0.9987741708755493, -1.14864981174469, -2.826961040496826, -0.015861494466662407, 0.0, 0.0, 0.0, 0, 0, 0, 0, 0, 0, -1.14864981174469, -2.826961040496826, -0.015861494466662407
14250, 0.039994943886995316, 0.002933938056230545, 0.14756619930267334, 0.14837932586669922, 0.3895703852176666, -0.04865144193172455, -0.0017656830605119467, -0.004722990561276674, 1.0003870725631714, -1.1506778001785278, -2.8322391510009766, -0.01590556651353836, 0.0, 0.0, 0.0, 0, 0, 0, 0, 0, 0, -1.1506778001785278, -2.8322391510009766, -0.01590556651353836
14260, 0.03980320319533348, 0.0015214669983834028, 0.1471841037273407, 0.007706074509769678, 0.19874468445777893, -0.04349508881568909, -0.003920283634215593, -0.0031539718620479107, 1.0003982782363892, -1.1527073383331299, -2.837522029876709, -0.01595008745789528, 0.0, 0.0, 0.0, 0, 0, 0, 0, 0, 0, -1.1527073383331299, -2.837522029876709, -0.01595008745789528
14270, 0.039911091327667236, 0.0020292503759264946, 0.14646172523498535, 0.023184845224022865, 0.0593867190182209, -0.11044877022504807, -0.0038258181884884834, -0.002917337231338024, 0.9996302127838135, -1.1547396183013916, -2.8428092002868652, -0.015994247049093246, 0.0, 0.0, 0.0, 0, 0, 0, 0, 0, 0, -1.1547396183013916, -2.8428092002868652, -0.015994247049093246
14280, 0.039635252207517624, 0.0010484472149983048, 0.14735667407512665, -0.09077566862106323, 0.2156585454940796, 0.3034695088863373, -0.0033768031280487776, -0.005883821751922369, 1.0006240606307983, -1.156775712966919, -2.848100185394287, -0.01603812351822853, 0.0, 0.0, 0.0, 0, 0, 0, 0, 0, 0, -1.156775712966919, -2.848100185394287, -0.01603812351822853
14290, 0.03859711065888405, 0.00042474677320569754, 0.1471688598394394, -0.0889357179403305, 0.02184961922466755, 0.05127314478158951, -0.004975905176252127, -0.004095479380339384, 0.9996768236160278, -1.1588153839111328, -2.853395938873291, -0.01608170010149479, 0.0, 0.0, 0.0, 0, 0, 0, 0, 0, 0, -1.1588153839111328, -2.853395938873291, -0.01608170010149479
14300, 0.03730344399809837, -0.0007663987926207483, 0.14640510082244873, -0.14810626208782196, 0.10551141202449799, -0.22266989946365356, -0.003555149771273136, -0.0035828533582389355, 0.9993703961372375, -1.1608589887619019, -2.8586971759796143, -0.016124876216053963, 0.0, 0.0, 0.0, 0, 0, 0, 0, 0, 0, -1.1608589887619019, -2.8586971759796143, -0.016124876216053963
14310, 0.037260472774505615, -0.0016533428570255637, 0.14678658545017242, 0.03390871360898018, 0.1841270625591278, 0.047370560467243195, -0.004961681552231312, -0.005792840849608183, 0.9988131523132324, -1.1629070043563843, -2.8640027046203613, -0.016168225556612015, 0.0, 0.0, 0.0, 0, 0, 0, 0, 0, 0, -1.1629070043563843, -2.8640027046203613, -0.016168225556612015
14320, 0.03804832696914673, 0.00011080584954470396, 0.14463011920452118, 0.22030705213546753, -0.32713064551353455, -0.17179782688617706, -0.004061672370880842, -0.005783940199762583, 0.9988301396369934, -1.164959192276001, -2.8693132400512695, -0.01621248945593834, 0.0, 0.0, 0.0, 0, 0, 0, 0, 0, 0, -1.164959192276001, -2.8693132400512695, -0.01621248945593834
14330, 0.037965964525938034, 0.0005180853186175227, 0.14419841766357422, 0.09675265848636627, -0.12445076555013657, 0.03199583664536476, -0.0020175452809780836, -0.003741061082109809, 0.9998890161514282, -1.167015790939331, -2.8746299743652344, -0.016257820650935173, 0.0, 0.0, 0.0, 0, 0, 0, 0, 0, 0, -1.167015790939331, -2.8746299743652344, -0.016257820650935173
14340, 0.03894434869289398, 0.001316698850132525, 0.14419277012348175, -0.003764333436265588, -0.17832811176776886, -0.12074200809001923, -0.0026195873506367207, -0.0032243954483419657, 1.0004446506500244, -1.1690757274627686, -2.8799519538879395, -0.016303736716508865, 0.0, 0.0, 0.0, 0, 0, 0, 0, 0, 0, -1.1690757274627686, -2.8799519538879395, -0.016303736716508865
14350, 0.039294302463531494, 0.0023092583287507296, 0.14338158071041107, 0.07318446040153503, -0.1404636651277542, -0.006003309041261673, -0.003105353331193328, -0.004583846777677536, 1.000943899154663, -1.171138048171997, -2.8852779865264893, -0.016349682584404945, 0.0, 0.0, 0.0, 0, 0, 0, 0, 0, 0, -1.171138048171997, -2.8852779865264893, -0.016349682584404945
14360, 0.0398283414542675, 0.0020643637981265783, 0.143692746758461, 0.06322328001260757, 0.06924315541982651, 0.04358871653676033, -0.0029727511573582888, -0.005176966544240713, 0.9986517429351807, -1.1732029914855957, -2.890608549118042, -0.016395073384046555, 0.0, 0.0, 0.0, 0, 0, 0, 0, 0, 0, -1.1732029914855957, -2.890608549118042, -0.016395073384046555
14370, 0.04009788855910301, 0.0016160081140697002, 0.14322131872177124, -0.08515561372041702, -0.014928528107702732, -0.08679888397455215, -0.0013867850648239255, -0.005175316706299782, 0.9989760518074036, -1.1752707958221436, -2.895944595336914, -0.016440629959106445, 0.0, 0.0, 0.0, 0, 0, 0, 0, 0, 0, -1.1752707958221436, -2.895944595336914, -0.016440629959106445
14380, 0.03950934484601021, 0.0003640052455011755, 0.1445002555847168, -0.10906316339969635, 0.255445271730423, 0.12147924304008484, -0.001141143380664289, -0.004706550855189562, 1.0002007484436035, -1.1773407459259033, -2.9012863636016846, -0.01648741029202938, 0.0, 0.0, 0.0, 0, 0, 0, 0, 0, 0, -1.1773407459259033, -2.9012863636016846, -0.01648741029202938
14390, 0.04014797508716583, 0.0005001092213205993, 0.14342869818210602, 0.16572967171669006, -0.03819260373711586, -0.23416823148727417, -0.0014256905997171998, -0.004317820072174072, 0.9984318017959595, -1.1794121265411377, -2.9066338539123535, -0.01653476059436798, 0.0, 0.0, 0.0, 0, 0, 0, 0, 0, 0, -1.1794121265411377, -2.9066338539123535, -0.01653476059436798
14400, 0.03972793370485306, 0.00011996191460639238, 0.14374834299087524, -0.17589543759822845, 0.029135946184396744, 0.004788378719240427, -0.0035901053342968225, -0.0032505413983017206, 0.9987816214561462, -1.1814848184585571, -2.9119863510131836, -0.016582747921347618, 0.0, 0.0, 0.0, 0, 0, 0, 0, 0, 0, -1.1814848184585571, -2.9119863510131836, -0.016582747921347618
14410, 0.039396677166223526, -0.00024230625422205776, 0.14400364458560944, -0.06258627772331238, 0.05305520445108414, -0.03340601921081543, -0.0029671022202819586, -0.00324687990359962, 0.9978609681129456, -1.183559775352478, -2.9173433780670166, -0.016632182523608208, 0.0, 0.0, 0.0, 0, 0, 0, 0, 0, 0, -1.183559775352478, -2.9173433780670166, -0.016632182523608208
14420, 0.03930866718292236, 0.0007971295272000134, 0.14208771288394928, -0.09266355633735657, -0.11798951774835587, -0.23954147100448608, -0.0022715353406965733, -0.006205226294696331, 0.9995187520980835, -1.1856379508972168, -2.9227042198181152, -0.016683286055922508, 0.0, 0.0, 0.0, 0, 0, 0, 0, 0, 0, -1.1856379508972168, -2.9227042198181152, -0.016683286055922508
14430, 0.0395888052880764, 0.0013076975010335445, 0.14063337445259094, 0.07913937419652939, -0.048246800899505615, -0.12305296957492828, -0.0025709664914757013, -0.005499967373907566, 1.0000011920928955, -1.1877186298370361, -2.928070306777954, -0.01673564687371254, 0.0, 0.0, 0.0, 0, 0, 0, 0, 0, 0, -1.1877186298370361, -2.928070306777954, -0.01673564687371254
14440, 0.04015174135565758, 0.00252070021815598, 0.1419893354177475, 0.12539584934711456, -0.23947685956954956, 0.1863880306482315, -0.004563961178064346, -0.0033706186804920435, 1.0002602338790894, -1.189801812171936, -2.9334425926208496, -0.016788510605692863, 0.0, 0.0, 0.0, 0, 0, 0, 0, 0, 0, -1.189801812171936, -2.9334425926208496, -0.016788510605692863
14450, 0.04116417467594147, 0.001928208046592772, 0.14266006648540497, 0.15810129046440125, 0.023541664704680443, -0.09915661811828613, -0.004022211767733097, -0.004356410354375839, 0.9998741745948792, -1.1918885707855225, -2.9388201236724854, -0.016841448843479156, 0.0, 0.0, 0.0, 0, 0, 0, 0, 0, 0, -1.1918885707855225, -2.9388201236724854, -0.016841448843479156
14460, 0.040481701493263245, -0.0005265758954919875, 0.1427992731332779, -0.12835074961185455, 0.24699945747852325, -0.0722191110253334, -0.0026890088338404894, -0.0035900920629501343, 1.0005848407745361, -1.1939795017242432, -2.944202184677124, -0.016894392669200897, 0.0, 0.0, 0.0, 0, 0, 0, 0, 0, 0, -1.1939795017242432, -2.944202184677124, -0.016894392669200897
14470, 0.04162602499127388, 0.00043885354534722865, 0.14361311495304108, 0.013024827465415001, -0.25067397952079773, 0.03916410356760025, -0.0027368448209017515, -0.004068718291819096, 1.0008163452148438, -1.1960738897323608, -2.9495887756347656, -0.016947230324149132, 0.0, 0.0, 0.0, 0, 0, 0, 0, 0, 0, -1.1960738897323608, -2.9495887756347656, -0.016947230324149132
14480, 0.04174958914518356, 0.001461995067074895, 0.14409318566322327, -0.05000295490026474, -0.14075146615505219, -0.010896329768002033, -0.0008804688695818186, -0.0032268164213746786, 1.0007208585739136, -1.1981709003448486, -2.95497989654541, -0.016999410465359688, 0.0, 0.0, 0.0, 0, 0, 0, 0, 0, 0, -1.1981709003448486, -2.95497989654541, -0.016999410465359688
14490, 0.042069025337696075, 0.0020211483351886272, 0.14538146555423737, 0.023767365142703056, -0.02331608533859253, 0.10943853110074997, -0.0022133071906864643, -0.002904627937823534, 0.9991740584373474, -1.2002698183059692, -2.9603753089904785, -0.01705077476799488, 0.0, 0.0, 0.0, 0, 0, 0, 0, 0, 0, -1.2002698183059692, -2.9603753089904785, -0.01705077476799488
14500, 0.04316992685198784, 0.0037364717572927475, 0.14572758972644806, 0.2518230378627777, -0.3729935586452484, 0.0944770872592926, -0.0023638452403247356, -0.004105422645807266, 1.000723123550415, -1.202370285987854, -2.9657745361328125, -0.017102167010307312, 0.0, 0.0, 0.0, 0, 0, 0, 0, 0, 0, -1.202370285987854, -2.9657745361328125, -0.017102167010307312
14510, 0.04218914732336998, 0.005231530871242285, 0.1438482254743576, 0.01413733884692192, -0.1457224190235138, -0.3050127923488617, -0.003981193993240595, -0.004229674115777016, 0.9995013475418091, -1.2044730186462402, -2.971177816390991, -0.017153648659586906, 0.0, 0.0, 0.0, 0, 0, 0, 0, 0, 0, -1.2044730186462402, -2.971177816390991, -0.017153648659586906
14520, 0.04109096899628639, 0.004934833850711584, 0.1433662474155426, 0.008037099614739418, 0.13226251304149628, 0.003374936757609248, -0.0011652879184111953, -0.0044365134090185165, 0.998455822467804, -1.2065788507461548, -2.976585626602173, -0.017204994335770607, 0.0, 0.0, 0.0, 0, 0, 0, 0, 0, 0, -1.2065788507461548, -2.976585626602173, -0.017204994335770607
14530, 0.04177827015519142, 0.005746633280068636, 0.14308194816112518, 0.12028300017118454, -0.17843903601169586, -0.08349323272705078, 2.6229223294649273e-05, -0.0036199279129505157, 0.9995580911636353, -1.208687424659729, -2.9819982051849365, -0.01725717820227146, 0.0, 0.0, 0.0, 0, 0, 0, 0, 0, 0, -1.208687424659729, -2.9819982051849365, -0.01725717820227146
14540, 0.041380345821380615, 0.004701395519077778, 0.14370454847812653, 0.004852429497987032, 0.18200112879276276, 0.2501680254936218, -0.0013885247753933072, -0.003163472283631563, 0.9991083741188049, -1.21079683303833, -2.9874155521392822, -0.01731053553521633, 0.0, 0.0, 0.0, 0, 0, 0, 0, 0, 0, -1.21079683303833, -2.9874155521392822, -0.01731053553521633
14550, 0.04003813490271568, 0.005931856110692024, 0.14328697323799133, -0.2129630446434021, 0.03159726411104202, -0.011098482646048069, -0.0006313868798315525, -0.006433458998799324, 1.0005204677581787, -1.2129069566726685, -2.992837429046631, -0.01736479625105858, 0.0, 0.0, 0.0, 0, 0, 0, 0, 0, 0, -1.2129069566726685, -2.992837429046631, -0.01736479625105858
14560, 0.040748048573732376, 0.005536166485399008, 0.14308443665504456, 0.10717929899692535, 0.09104830026626587, 0.07666053622961044, -0.0007894557202234864, -0.006090922746807337, 0.9997695684432983, -1.2150181531906128, -2.998264789581299, -0.017419278621673584, 0.0, 0.0, 0.0, 0, 0, 0, 0, 0, 0, -1.2150181531906128, -2.998264789581299, -0.017419278621673584
14570, 0.04168861359357834, 0.007830067537724972, 0.143650621175766, 0.06064985692501068, -0.2731652855873108, 0.09565893560647964, -0.0029850397258996964, -0.0033388957381248474, 0.9987351298332214, -1.217130184173584, -3.0036988258361816, -0.017473649233579636, 0.0, 0.0, 0.0, 0, 0, 0, 0, 0, 0, -1.217130184173584, -3.0036988258361816, -0.017473649233579636
14580, 0.04229828342795372, 0.008492257446050644, 0.14402706921100616, 0.06881590932607651, 0.05445241183042526, 0.05211155489087105, -0.003522925777360797, -0.005958019755780697, 0.9991564750671387, -1.2192440032958984, -3.009138345718384, -0.017528705298900604, 0.0, 0.0, 0.0, 0, 0, 0, 0, 0, 0, -1.2192440032958984, -3.009138345718384, -0.017528705298900604
14590, 0.04273999109864235, 0.006713633891195059, 0.14540386199951172, 0.043972164392471313, 0.37241482734680176, 0.070724718272686, -0.0014780809869989753, -0.00649361964315176, 0.998149573802948, -1.2213610410690308, -3.0145833492279053, -0.017585063353180885, 0.0, 0.0, 0.0, 0, 0, 0, 0, 0, 0, -1.2213610410690308, -3.0145833492279053, -0.017585063353180885
14600, 0.04205897077918053, 0.006130367983132601, 0.14420098066329956, -0.10842671990394592, 0.05935818329453468, -0.17267091572284698, 0.0008935004589147866, -0.004742306191474199, 1.0010393857955933, -1.223480463027954, -3.0200350284576416, -0.017643040046095848, 0.0, 0.0, 0.0, 0, 0, 0, 0, 0, 0, -1.223480463027954, -3.0200350284576416, -0.017643040046095848
14610, 0.04168461635708809, 0.007248526904731989, 0.1443372368812561, -0.07396955043077469, -0.1038290336728096, -0.04523599147796631, -0.002322975778952241, -0.003916395828127861, 0.9993285536766052, -1.2256004810333252, -3.0254931449890137, -0.017701542004942894, 0.0, 0.0, 0.0, 0, 0, 0, 0, 0, 0, -1.2256004810333252, -3.0254931449890137, -0.017701542004942894
14620, 0.041711416095495224, 0.008376963436603546, 0.14497028291225433, 0.0879233255982399, -0.11683250218629837, 0.19104383885860443, -0.0025796224363148212, -0.00469588628038764, 0.9978037476539612, -1.2277212142944336, -3.0309560298919678, -0.01775982789695263, 0.0, 0.0, 0.0, 0, 0, 0, 0, 0, 0, -1.2277212142944336, -3.0309560298919678, -0.01775982789695263
14630, 0.04190801829099655, 0.00798137579113245, 0.14607109129428864, 0.056372106075286865, -0.030304308980703354, 0.27130770683288574, -0.002275473205372691, -0.0044052437879145145, 1.0008245706558228, -1.229844093322754, -3.036423683166504, -0.017819205299019814, 0.0, 0.0, 0.0, 0, 0, 0, 0, 0, 0, -1.229844093322754, -3.036423683166504, -0.017819205299019814
14640, 0.04161311313509941, 0.008681532926857471, 0.144436314702034, -0.20758090913295746, -0.13585017621517181, -0.31536704301834106, -0.00247742491774261, -0.0030306337866932154, 0.9992538094520569, -1.2319695949554443, -3.041896343231201, -0.017879312857985497, 0.0, 0.0, 0.0, 0, 0, 0, 0, 0, 0, -1.2319695949554443, -3.041896343231201, -0.017879312857985497
14650, 0.04161015525460243, 0.007692825514823198, 0.1440335065126419, -0.03164757415652275, 0.06494589149951935, 0.00893403496593237, -0.0019706871826201677, -0.002905449829995632, 0.9994485378265381, -1.2340975999832153, -3.0473735332489014, -0.017939480021595955, 0.0, 0.0, 0.0, 0, 0, 0, 0, 0, 0, -1.2340975999832153, -3.0473735332489014, -0.017939480021595955
14660, 0.04128347709774971, 0.009108304977416992, 0.14438621699810028, 0.05240890011191368, -0.2823121249675751, 0.09070488810539246, -0.00264662760309875, -0.005210822448134422, 1.0000436305999756, -1.2362277507781982, -3.052854299545288, -0.018000178039073944, 0.0, 0.0, 0.0, 0, 0, 0, 0, 0, 0, -1.2362277507781982, -3.052854299545288, -0.018000178039073944
14670, 0.041922856122255325, 0.007809772156178951, 0.14532874524593353, 0.2456778585910797, 0.1574869304895401, 0.27226534485816956, -6.090972601668909e-05, -0.005180041305720806, 1.0010820627212524, -1.2383602857589722, -3.0583395957946777, -0.018061093986034393, 0.0, 0.0, 0.0, 0, 0, 0, 0, 0, 0, -1.2383602857589722, -3.0583395957946777, -0.018061093986034393
14680, 0.04249148070812225, 0.00716507900506258, 0.14410877227783203, 0.03284170478582382, 0.02771407924592495, -0.18359044194221497, -0.0005232993862591684, -0.004083449952304363, 1.0008560419082642, -1.2404943704605103, -3.063830614089966, -0.018121354281902313, 0.0, 0.0, 0.0, 0, 0, 0, 0, 0, 0, -1.2404943704605103, -3.063830614089966, -0.018121354281902313
14690, 0.04203394055366516, 0.006896761246025562, 0.14477834105491638, -0.05720873922109604, -0.006012790836393833, 0.13565777242183685, -0.002672364469617605, -0.006338011473417282, 0.9996709227561951, -1.242629051208496, -3.069326877593994, -0.01818057894706726, 0.0, 0.0, 0.0, 0, 0, 0, 0, 0, 0, -1.242629051208496, -3.069326877593994, -0.01818057894706726
14700, 0.04243507608771324, 0.0066243745386600494, 0.14490558207035065, 0.05288388207554817, 0.14591555297374725, 0.06023946404457092, -0.0029218667186796665, -0.003855535527691245, 1.0003842115402222, -1.2447654008865356, -3.074828624725342, -0.018239563331007957, 0.0, 0.0, 0.0, 0, 0, 0, 0, 0, 0, -1.2447654008865356, -3.074828624725342, -0.018239563331007957
14710, 0.04241630434989929, 0.006989667192101479, 0.14463742077350616, -0.0925552025437355, 0.19838328659534454, -0.07825960218906403, -0.000867769937030971, -0.0059976596385240555, 0.9992871880531311, -1.2469044923782349, -3.080335855484009, -0.01829867996275425, 0.0, 0.0, 0.0, 0, 0, 0, 0, 0, 0, -1.2469044923782349, -3.080335855484009, -0.01829867996275425
14720, 0.04285244643688202, 0.008146857842803001, 0.14488954842090607, -0.05776415765285492, -0.16270038485527039, -0.17030304670333862, -0.0017880935920402408, -0.006632666103541851, 0.9969225525856018, -1.2490456104278564, -3.085848808288574, -0.018357951194047928, 0.0, 0.0, 0.0, 0, 0, 0, 0, 0, 0, -1.2490456104278564, -3.085848808288574, -0.018357951194047928
14730, 0.04338450729846954, 0.007017406169325113, 0.14368027448654175, 0.08873256295919418, 0.2442803978919983, -0.10186784714460373, -0.0030007935129106045, -0.004745511803776026, 0.9981166124343872, -1.2511881589889526, -3.0913686752319336, -0.018418751657009125, 0.0, 0.0, 0.0, 0, 0, 0, 0, 0, 0, -1.2511881589889526, -3.0913686752319336, -0.018418751657009125
14740, 0.04276252165436745, 0.006104037165641785, 0.14331769943237305, -0.12443853914737701, 0.06368576735258102, 0.04592793434858322, -0.004253797233104706, -0.0056390962563455105, 1.0009684562683105, -1.2533330917358398, -3.0968949794769287, -0.018481744453310966, 0.0, 0.0, 0.0, 0, 0, 0, 0, 0, 0, -1.2533330917358398, -3.0968949794769287, -0.018481744453310966
14750, 0.04244118556380272, 0.005099053028970957, 0.1438223421573639, -0.11801255494356155, 0.04265972599387169, -0.03010166436433792, -0.0029930497985333204, -0.0035056178458034992, 1.0012229681015015, -1.255481481552124, -3.1024272441864014, -0.01854533702135086, 0.0, 0.0, 0.0, 0, 0, 0, 0, 0, 0, -1.255481481552124, -3.1024272441864014, -0.01854533702135086
14760, 0.04254341498017311, 0.006253187544643879, 0.14351965487003326, 0.06183707341551781, -0.1675274670124054, -0.18672682344913483, -0.0029569175094366074, -0.0013487195828929543, 0.9981299638748169, -1.2576334476470947, -3.1079647541046143, -0.01860819384455681, 0.0, 0.0, 0.0, 0, 0, 0, 0, 0, 0, -1.2576334476470947, -3.1079647541046143, -0.01860819384455681
14770, 0.043306391686201096, 0.007862621918320656, 0.14323478937149048, 0.08768205344676971, -0.11761937290430069, -0.164910688996315, -0.0013535870239138603, -0.003556641284376383, 1.0019903182983398, -1.2597883939743042, -3.1135056018829346, -0.01867131143808365, 0.0, 0.0, 0.0, 0, 0, 0, 0, 0, 0, -1.2597883939743042, -3.1135056018829346, -0.01867131143808365
14780, 0.043702028691768646, 0.006837458349764347, 0.14410139620304108, 0.15760868787765503, 0.0775877982378006, -0.015583719126880169, -0.0021386127918958664, -0.003932315390557051, 1.000820517539978, -1.2619454860687256, -3.119049310684204, -0.018734466284513474, 0.0, 0.0, 0.0, 0, 0, 0, 0, 0, 0, -1.2619454860687256, -3.119049310684204, -0.018734466284513474
14790, 0.04331086948513985, 0.003653306048363447, 0.14415132999420166, 0.026349928230047226, 0.20508049428462982, 0.13122040033340454, -0.00322138168849051, -0.004885206930339336, 0.9991554617881775, -1.2641043663024902, -3.1245970726013184, -0.018796449527144432, 0.0, 0.0, 0.0, 0, 0, 0, 0, 0, 0, -1.2641043663024902, -3.1245970726013184, -0.018796449527144432
14800, 0.04288797825574875, 0.0032361363992094994, 0.1439961940050125, -0.0389116108417511, -0.03582567721605301, 0.07654641568660736, -0.0018623457290232182, -0.006367599591612816, 1.0005801916122437, -1.266265869140625, -3.130150079727173, -0.018858129158616066, 0.0, 0.0, 0.0, 0, 0, 0, 0, 0, 0, -1.266265869140625, -3.130150079727173, -0.018858129158616066
14810, 0.04300832375884056, 0.005479406099766493, 0.14430081844329834, 0.0007928794366307557, -0.34689146280288696, -0.008151060901582241, -0.0020385647658258677, -0.0036575051490217447, 0.9998655915260315, -1.2684299945831299, -3.135709047317505, -0.01891983486711979, 0.0, 0.0, 0.0, 0, 0, 0, 0, 0, 0, -1.2684299945831299, -3.135709047317505, -0.01891983486711979
14820, 0.043747179210186005, 0.003912557382136583, 0.1450258493423462, 0.06602326035499573, 0.29566723108291626, -0.0292349960654974, -0.003679736517369747, -0.0046711089089512825, 0.9995899200439453, -1.2705962657928467, -3.1412734985351562, -0.018981246277689934, 0.0, 0.0, 0.0, 0, 0, 0, 0, 0, 0, -1.2705962657928467, -3.1412734985351562, -0.018981246277689934
14830, 0.04305628314614296, 0.0027645230293273926, 0.1457177996635437, -0.055454619228839874, 0.18243995308876038, 0.2914153039455414, -0.002066489541903138, -0.004989889916032553, 0.9993289113044739, -1.2727652788162231, -3.1468429565429688, -0.01904269866645336, 0.0, 0.0, 0.0, 0, 0, 0, 0, 0, 0, -1.2727652788162231, -3.1468429565429688, -0.01904269866645336
14840, 0.043125756084918976, 0.0015457805711776018, 0.146418496966362, -0.014808074571192265, 0.18175318837165833, 0.22458858788013458, -0.00348911015316844, -0.005587866064161062, 1.0001832246780396, -1.274937391281128, -3.1524181365966797, -0.01910463534295559, 0.0, 0.0, 0.0, 0, 0, 0, 0, 0, 0, -1.274937391281128, -3.1524181365966797, -0.01910463534295559
14850, 0.04322391748428345, 0.002320940140634775, 0.14616192877292633, -0.03622443974018097, -0.012296798638999462, -0.09908942878246307, -0.002196718705818057, -0.0033709474373608828, 0.9996542930603027, -1.277112364768982, -3.1579995155334473, -0.0191668514162302, 0.0, 0.0, 0.0, 0, 0, 0, 0, 0, 0, -1.277112364768982, -3.1579995155334473, -0.0191668514162302
14860, 0.04271380975842476, 0.0011089186882600188, 0.14450813829898834, -0.15741197764873505, 0.18760821223258972, -0.25328654050827026, -0.002683002734556794, -0.0037368740886449814, 0.9983587265014648, -1.2792904376983643, -3.163585901260376, -0.019229132682085037, 0.0, 0.0, 0.0, 0, 0, 0, 0, 0, 0, -1.2792904376983643, -3.163585901260376, -0.019229132682085037
14870, 0.04193911701440811, 0.000948047440033406, 0.14521615207195282, -0.16914133727550507, -0.002782703610137105, 0.09393540024757385, 3.603415461839177e-05, -0.004182781092822552, 0.9998642802238464, -1.2814712524414062, -3.1691768169403076, -0.01929224468767643, 0.0, 0.0, 0.0, 0, 0, 0, 0, 0, 0, -1.2814712524414062, -3.1691768169403076, -0.01929224468767643
14880, 0.0419011190533638, 1.7758766261977144e-05, 0.14431452751159668, 0.09726574271917343, -0.10360369831323624, -0.17191585898399353, -0.0007068241247907281, -0.003884172299876809, 0.9998231530189514, -1.2838718891143799, -3.1753323078155518, -0.019362708553671837, 0.0, 0.0, 0.0, 0, 0, 0, 0, 0, 0, -1.2838718891143799, -3.1753323078155518, -0.019362708553671837
14890, 0.041876934468746185, -0.001934071071445942, 0.14570537209510803, 0.07856722921133041, 0.2148086279630661, 0.22787582874298096, -0.0026016775518655777, -0.005047422368079424, 1.000648856163025, -1.2860549688339233, -3.1809329986572266, -0.019427089020609856, 0.0, 0.0, 0.0, 0, 0, 0, 0, 0, 0, -1.2860549688339233, -3.1809329986572266, -0.019427089020609856
14900, 0.04222438484430313, -0.0015359856188297272, 0.14553000032901764, 0.14648102223873138, -0.09292630851268768, 0.3089294135570526, -0.0019122716039419174, -0.0064392294734716415, 1.0027161836624146, -1.2882393598556519, -3.1865389347076416, -0.01949124224483967, 0.0, 0.0, 0.0, 0, 0, 0, 0, 0, 0, -1.2882393598556519, -3.1865389347076416, -0.01949124224483967
14910, 0.04222438484430313, -0.0015359856188297272, 0.14553000032901764, 0.050361551344394684, -0.31521329283714294, 0.15513332188129425, -0.0029276753775775433, -0.005279059987515211, 0.999717652797699, -1.290644645690918, -3.1927125453948975, -0.019560208544135094, 0.0, 0.0, 0.0, 0, 0, 0, 0, 0, 0, -1.290644645690918, -3.1927125453948975, -0.019560208544135094
14920, 0.043359119445085526, -0.0006143702776171267, 0.1464434415102005, 0.058084599673748016, -0.06591783463954926, 0.09149365872144699, -0.002508856588974595, -0.004328660201281309, 0.9984742999076843, -1.2930529117584229, -3.1988937854766846, -0.019627965986728668, 0.0, 0.0, 0.0, 0, 0, 0, 0, 0, 0, -1.2930529117584229, -3.1988937854766846, -0.019627965986728668
14930, 0.04280446097254753, 6.570944606210105e-06, 0.14755764603614807, -0.03293232247233391, 0.025244738906621933, 0.17506970465183258, -0.001955954125151038, -0.006213848944753408, 0.9988537430763245, -1.2954643964767456, -3.2050817012786865, -0.019696639850735664, 0.0, 0.0, 0.0, 0, 0, 0, 0, 0, 0, -1.2954643964767456, -3.2050817012786865, -0.019696639850735664
14940, 0.04205581918358803, 0.0024160961620509624, 0.14807449281215668, -0.05706437677145004, -0.07084568589925766, -0.08905011415481567, -0.0030084161553531885, -0.001749343704432249, 1.0021812915802002, -1.297658920288086, -3.2107131481170654, -0.01975979283452034, 0.0, 0.0, 0.0, 0, 0, 0, 0, 0, 0, -1.297658920288086, -3.2107131481170654, -0.01975979283452034
14950, 0.04216521978378296, 0.00333044514991343, 0.14702226221561432, 0.02904876135289669, -0.18797847628593445, 0.16310042142868042, -0.0039680590853095055, -0.003076672088354826, 1.0000684261322021, -1.2998560667037964, -3.216348648071289, -0.019821874797344208, 0.0, 0.0, 0.0, 0, 0, 0, 0, 0, 0, -1.2998560667037964, -3.216348648071289, -0.019821874797344208
14960, 0.04208248853683472, 0.003837518161162734, 0.147624671459198, 0.06650063395500183, 0.14972053468227386, 0.014567775651812553, -0.0028503448702394962, -0.0061843073926866055, 0.9964619278907776, -1.3020567893981934, -3.221987724304199, -0.019883455708622932, 0.0, 0.0, 0.0, 0, 0, 0, 0, 0, 0, -1.3020567893981934, -3.221987724304199, -0.019883455708622932
14970, 0.04271913692355156, 0.0022447232622653246, 0.1467706561088562, 0.13078515231609344, 0.12446321547031403, -0.06143717095255852, -0.0024062530137598515, -0.004665739834308624, 0.9969730377197266, -1.3042608499526978, -3.2276322841644287, -0.019947336986660957, 0.0, 0.0, 0.0, 0, 0, 0, 0, 0, 0, -1.3042608499526978, -3.2276322841644287, -0.019947336986660957
14980, 0.041943229734897614, 0.0007620492251589894, 0.1473839282989502, -0.07005244493484497, 0.16112731397151947, -0.008367188274860382, -0.0012418583501130342, -0.003028595820069313, 1.0003684759140015, -1.3064674139022827, -3.2332825660705566, -0.020013956353068352, 0.0, 0.0, 0.0, 0, 0, 0, 0, 0, 0, -1.3064674139022827, -3.2332825660705566, -0.020013956353068352
14990, 0.04165785014629364, -0.0008200699230656028, 0.1491076797246933, 0.022961029782891273, -0.051442284137010574, -0.132907435297966, -0.0001577617513248697, -0.0058602988719940186, 1.000318169593811, -1.3086752891540527, -3.2389371395111084, -0.02008119411766529, 0.0, 0.0, 0.0, 0, 0, 0, 0, 0, 0, -1.3086752891540527, -3.2389371395111084, -0.02008119411766529
15000, 0.04187684506177902, -0.000304240791592747, 0.14899450540542603, 0.10659138858318329, 0.02861529216170311, 0.016452888026833534, -0.0010016919113695621, -0.006015364546328783, 1.000401496887207, -1.31088387966156, -3.2445974349975586, -0.02014811523258686, 0.0, 0.0, 0.0, 0, 0, 0, 0, 0, 0, -1.31088387966156, -3.2445974349975586, -0.02014811523258686
15010, 0.04050767421722412, -0.00024813541676849127, 0.14886653423309326, -0.029177764430642128, -0.011154034174978733, 0.21277868747711182, -0.0023114546202123165, -0.0039824433624744415, 1.000533938407898, -1.3130933046340942, -3.2502641677856445, -0.020214758813381195, 0.0, 0.0, 0.0, 0, 0, 0, 0, 0, 0, -1.3130933046340942, -3.2502641677856445, -0.020214758813381195
15020, 0.04073275998234749, -0.001469489885494113, 0.1489110291004181, 0.07698383182287216, 0.03857184574007988, 0.08141288161277771, -0.0035476163029670715, -0.0033794662449508905, 0.999258279800415, -1.3153048753738403, -3.2559356689453125, -0.020281106233596802, 0.0, 0.0, 0.0, 0, 0, 0, 0, 0, 0, -1.3153048753738403, -3.2559356689453125, -0.020281106233596802
15030, 0.0400073379278183, -0.0013920634519308805, 0.1503220647573471, -0.06595620512962341, -0.11564259231090546, -0.19234921038150787, -0.003401454770937562, -0.006993446499109268, 0.9999789595603943, -1.3175195455551147, -3.2616119384765625, -0.020347902551293373, 0.0, 0.0, 0.0, 0, 0, 0, 0, 0, 0, -1.3175195455551147, -3.2616119384765625, -0.020347902551293373
15040, 0.039799995720386505, -0.0012259219074621797, 0.15002481639385223, -0.0387372151017189, 0.001758445636369288, -0.04804475978016853, -0.0019476852612569928, -0.0063920170068740845, 1.0002411603927612, -1.3197375535964966, -3.2672946453094482, -0.020414743572473526, 0.0, 0.0, 0.0, 0, 0, 0, 0, 0, 0, -1.3197375535964966, -3.2672946453094482, -0.020414743572473526
15050, 0.03994998708367348, -0.00043575314339250326, 0.14929459989070892, -0.11676380038261414, -0.06318283081054688, 0.1415637731552124, -0.0024529106449335814, -0.005703989882022142, 0.9996452927589417, -1.321958065032959, -3.272984504699707, -0.020481137558817863, 0.0, 0.0, 0.0, 0, 0, 0, 0, 0, 0, -1.321958065032959, -3.272984504699707, -0.020481137558817863
15060, 0.04045214504003525, -0.0014962706482037902, 0.15033374726772308, 0.0801735445857048, 0.14628779888153076, 0.012638937681913376, -0.0011458131484687328, -0.003872500266879797, 0.999325156211853, -1.324180245399475, -3.2786808013916016, -0.0205477774143219, 0.0, 0.0, 0.0, 0, 0, 0, 0, 0, 0, -1.324180245399475, -3.2786808013916016, -0.0205477774143219
15070, 0.03992316126823425, -0.0015158997848629951, 0.14982755482196808, -0.13219396770000458, 0.02194594033062458, 0.054960206151008606, -0.001683892565779388, -0.003145652823150158, 1.0010324716567993, -1.3264039754867554, -3.284381628036499, -0.020614681765437126, 0.0, 0.0, 0.0, 0, 0, 0, 0, 0, 0, -1.3264039754867554, -3.284381628036499, -0.020614681765437126
15080, 0.038586392998695374, -0.0016560670919716358, 0.15013855695724487, 0.11245662719011307, -0.1281130313873291, 0.34661179780960083, -0.00196532323025167, -0.004844367504119873, 1.000852108001709, -1.3286291360855103, -3.290086507797241, -0.020681064575910568, 0.0, 0.0, 0.0, 0, 0, 0, 0, 0, 0, -1.3286291360855103, -3.290086507797241, -0.020681064575910568
15090, 0.038386549800634384, -0.002345373621210456, 0.15140098333358765, -0.24932552874088287, -0.11712449043989182, -0.20200911164283752, -0.004115687217563391, -0.003642457304522395, 0.9988610744476318, -1.3308566808700562, -3.2957959175109863, -0.020746950060129166, 0.0, 0.0, 0.0, 0, 0, 0, 0, 0, 0, -1.3308566808700562, -3.2957959175109863, -0.020746950060129166
15100, 0.03835843876004219, -0.0009846679167822003, 0.15050840377807617, 0.018588881939649582, 0.1176377534866333, 0.19996555149555206, -0.0030047670006752014, -0.0032114998903125525, 1.0004072189331055, -1.33308744430542, -3.3015098571777344, -0.02081320807337761, 0.0, 0.0, 0.0, 0, 0, 0, 0, 0, 0, -1.33308744430542, -3.3015098571777344, -0.02081320807337761
15110, 0.03803019970655441, -0.00033853627974167466, 0.15084177255630493, 0.03880477696657181, -0.3184926211833954, 0.05367327108979225, -0.00198083627037704, -0.005119360517710447, 1.000810146331787, -1.335321068763733, -3.3072280883789062, -0.020879268646240234, 0.0, 0.0, 0.0, 0, 0, 0, 0, 0, 0, -1.335321068763733, -3.3072280883789062, -0.020879268646240234
15120, 0.03762452304363251, 0.0007208078750409186, 0.14999136328697205, -0.14795666933059692, 0.2607148289680481, -0.08382588624954224, -0.002619609935209155, -0.0044114557094872, 1.0002590417861938, -1.337557315826416, -3.31295108795166, -0.0209445022046566, 0.0, 0.0, 0.0, 0, 0, 0, 0, 0, 0, -1.337557315826416, -3.31295108795166, -0.0209445022046566
15130, 0.036817517131567, -0.0007912272703833878, 0.15139813721179962, -0.06877876073122025, 0.13979597389698029, 0.3427715003490448, -0.003132048062980175, -0.004329269286245108, 1.002079725265503, -1.3397963047027588, -3.3186793327331543, -0.021008873358368874, 0.0, 0.0, 0.0, 0, 0, 0, 0, 0, 0, -1.3397963047027588, -3.3186793327331543, -0.021008873358368874
15140, 0.03698918595910072, 0.0001091358280973509, 0.15272939205169678, 0.0032361256889998913, 0.14244982600212097, 0.10397481918334961, -0.003704272210597992, -0.003834738628938794, 0.9996671676635742, -1.3420383930206299, -3.3244128227233887, -0.021072132512927055, 0.0, 0.0, 0.0, 0, 0, 0, 0, 0, 0, -1.3420383930206299, -3.3244128227233887, -0.021072132512927055
15150, 0.03667695075273514, 0.0003965873329434544, 0.1522541493177414, -0.0791516974568367, -0.013566205278038979, -0.15364311635494232, -0.0033201957121491432, -0.003908952698111534, 0.9999820590019226, -1.344283938407898, -3.330150842666626, -0.021135114133358, 0.0, 0.0, 0.0, 0, 0, 0, 0, 0, 0, -1.344283938407898, -3.330150842666626, -0.021135114133358
15160, 0.03697663173079491, 0.00035773051786236465, 0.15135939419269562, 0.10197316855192184, -0.12273604422807693, 0.03649667277932167, -0.0021314395125955343, -0.004951032809913158, 0.9980384111404419, -1.3465325832366943, -3.335893392562866, -0.021198470145463943, 0.0, 0.0, 0.0, 0, 0, 0, 0, 0, 0, -1.3465325832366943, -3.335893392562866, -0.021198470145463943
15170, 0.036818284541368484, 0.001394205610267818, 0.15028753876686096, -0.1809094250202179, 0.005293477326631546, -0.027286073192954063, -0.0021537551656365395, -0.005150922574102879, 0.996421754360199, -1.3487834930419922, -3.341641426086426, -0.021263116970658302, 0.0, 0.0, 0.0, 0, 0, 0, 0, 0, 0, -1.3487834930419922, -3.341641426086426, -0.021263116970658302
15180, 0.03717082738876343, 0.0037764047738164663, 0.1507761925458908, 0.011184189468622208, -0.17455895245075226, 0.06709572672843933, -0.0027125226333737373, -0.005169836338609457, 0.9982441663742065, -1.3510366678237915, -3.347395181655884, -0.021330488845705986, 0.0, 0.0, 0.0, 0, 0, 0, 0, 0, 0, -1.3510366678237915, -3.347395181655884, -0.021330488845705986
15190, 0.03608235716819763, 0.004991549998521805, 0.15028873085975647, 0.017754921689629555, 0.0018288801657035947, 0.10816746205091476, -0.0016833338886499405, -0.004853472113609314, 0.9978720545768738, -1.3532923460006714, -3.353154420852661, -0.021400323137640953, 0.0, 0.0, 0.0, 0, 0, 0, 0, 0, 0, -1.3532923460006714, -3.353154420852661, -0.021400323137640953
15200, 0.03469868004322052, 0.004111517686396837, 0.15055468678474426, 0.05201555788516998, 0.059224385768175125, -0.22101177275180817, -0.001330527476966381, -0.003909687977284193, 1.0000828504562378, -1.355549931526184, -3.3589189052581787, -0.021471893414855003, 0.0, 0.0, 0.0, 0, 0, 0, 0, 0, 0, -1.355549931526184, -3.3589189052581787, -0.021471893414855003
15210, 0.035263944417238235, 0.004053304437547922, 0.14979280531406403, -0.0852825939655304, -0.08925211429595947, 0.07108833640813828, -0.0017390319844707847, -0.0020569812040776014, 1.001125454902649, -1.357809066772461, -3.364687919616699, -0.02154405787587166, 0.0, 0.0, 0.0, 0, 0, 0, 0, 0, 0, -1.357809066772461, -3.364687919616699, -0.02154405787587166
15220, 0.034347303211688995, 0.004428652580827475, 0.14992840588092804, 0.04733671247959137, 0.004615741316229105, 0.08162254095077515, -0.0019887948874384165, -0.0020605248864740133, 1.0015569925308228, -1.360069990158081, -3.370459794998169, -0.021615400910377502, 0.0, 0.0, 0.0, 0, 0, 0, 0, 0, 0, -1.360069990158081, -3.370459794998169, -0.021615400910377502
15230, 0.034655243158340454, 0.00365132256411016, 0.1505734920501709, 0.16069218516349792, 0.14969785511493683, 0.2660723924636841, 0.0001610350445844233, -0.005251463036984205, 0.9995620846748352, -1.3623327016830444, -3.376234769821167, -0.021685320883989334, 0.0, 0.0, 0.0, 0, 0, 0, 0, 0, 0, -1.3623327016830444, -3.376234769821167, -0.021685320883989334
15240, 0.03618134930729866, 0.004512183368206024, 0.15094183385372162, -0.17497952282428741, -0.010478058829903603, -0.023379063233733177, 0.0002656710857991129, -0.004219934809952974, 0.9993937611579895, -1.3645961284637451, -3.382014513015747, -0.021754732355475426, 0.0, 0.0, 0.0, 0, 0, 0, 0, 0, 0, -1.3645961284637451, -3.382014513015747, -0.021754732355475426
15250, 0.03593425825238228, 0.005245697218924761, 0.1510043442249298, -0.0387238934636116, 0.05045067518949509, -0.03408365324139595, -0.0016547645209357142, -0.004759371280670166, 0.9986719489097595, -1.3668599128723145, -3.3877995014190674, -0.021824859082698822, 0.0, 0.0, 0.0, 0, 0, 0, 0, 0, 0, -1.3668599128723145, -3.3877995014190674, -0.021824859082698822
15260, 0.035659726709127426, 0.005575262941420078, 0.15015624463558197, 0.1754223108291626, -0.26308247447013855, 0.021154342219233513, -0.0027463531587272882, -0.004643613006919622, 0.9978749752044678, -1.3691250085830688, -3.393589735031128, -0.021896174177527428, 0.0, 0.0, 0.0, 0, 0, 0, 0, 0, 0, -1.3691250085830688, -3.393589735031128, -0.021896174177527428
15270, 0.03640567511320114, 0.005501023028045893, 0.15150123834609985, 0.17830133438110352, 0.05254298076033592, 0.2889535427093506, -0.0016506054671481252, -0.006677299737930298, 1.0002654790878296, -1.3713921308517456, -3.399385452270508, -0.021968955174088478, 0.0, 0.0, 0.0, 0, 0, 0, 0, 0, 0, -1.3713921308517456, -3.399385452270508, -0.021968955174088478
15280, 0.03772129490971565, 0.005548766814172268, 0.1513744741678238, -0.12517908215522766, 0.10637521743774414, -0.10787913203239441, -0.0025189302396029234, -0.005618025083094835, 1.0001238584518433, -1.3736613988876343, -3.4051873683929443, -0.02204231359064579, 0.0, 0.0, 0.0, 0, 0, 0, 0, 0, 0, -1.3736613988876343, -3.4051873683929443, -0.02204231359064579
15290, 0.03784552589058876, 0.005963555071502924, 0.1513894945383072, 0.055586110800504684, -0.3101571202278137, 0.0017399342032149434, -0.0027541618328541517, -0.004271311219781637, 0.9988846182823181, -1.3759331703186035, -3.4109954833984375, -0.02211579866707325, 0.0, 0.0, 0.0, 0, 0, 0, 0, 0, 0, -1.3759331703186035, -3.4109954833984375, -0.02211579866707325
15300, 0.037288226187229156, 0.008706408552825451, 0.15158873796463013, -0.15288423001766205, -0.09015407413244247, 0.0027471338398754597, -0.0017396439798176289, -0.003803112544119358, 0.999616265296936, -1.3782076835632324, -3.416808843612671, -0.022189905866980553, 0.0, 0.0, 0.0, 0, 0, 0, 0, 0, 0, -1.3782076835632324, -3.416808843612671, -0.022189905866980553
15310, 0.0375448614358902, 0.009157574735581875, 0.15282952785491943, -0.11059978604316711, 0.26382210850715637, 0.034553930163383484, -0.0024576045107096434, -0.0066087860614061356, 0.9996314644813538, -1.3804844617843628, -3.4226272106170654, -0.022264495491981506, 0.0, 0.0, 0.0, 0, 0, 0, 0, 0, 0, -1.3804844617843628, -3.4226272106170654, -0.022264495491981506
15320, 0.03678613528609276, 0.007453457918018103, 0.15127921104431152, -0.01593587175011635, -0.22246795892715454, -0.03646419197320938, -0.004410965833812952, -0.004312659148126841, 0.9991581439971924, -1.3827639818191528, -3.4284515380859375, -0.022339418530464172, 0.0, 0.0, 0.0, 0, 0, 0, 0, 0, 0, -1.3827639818191528, -3.4284515380859375, -0.022339418530464172
15330, 0.03663528338074684, 0.009078456088900566, 0.15117667615413666, -0.0440659262239933, 0.1027337983250618, 0.17631876468658447, -0.001977920066565275, -0.003579749958589673, 1.000713586807251, -1.385047197341919, -3.434281349182129, -0.022414974868297577, 0.0, 0.0, 0.0, 0, 0, 0, 0, 0, 0, -1.385047197341919, -3.434281349182129, -0.022414974868297577
15340, 0.03756707161664963, 0.009301172569394112, 0.15202611684799194, -0.05445309728384018, -0.14576898515224457, -0.062295977026224136, -0.002005872316658497, -0.005402013193815947, 1.0003955364227295, -1.387333631515503, -3.4401159286499023, -0.0224903654307127, 0.0, 0.0, 0.0, 0, 0, 0, 0, 0, 0, -1.387333631515503, -3.4401159286499023, -0.0224903654307127
15350, 0.0380484014749527, 0.00955329928547144, 0.15362957119941711, 0.10516008734703064, 0.029172884300351143, -0.02763960137963295, -0.0001447070826543495, -0.0046319118700921535, 0.9989197850227356, -1.3896218538284302, -3.445955753326416, -0.022565355524420738, 0.0, 0.0, 0.0, 0, 0, 0, 0, 0, 0, -1.3896218538284302, -3.445955753326416, -0.022565355524420738
15360, 0.03712213411927223, 0.007683972362428904, 0.15303216874599457, -0.10508456826210022, 0.3299972712993622, 0.013552908785641193, -0.0010830310638993979, -0.005447849165648222, 1.0001344680786133, -1.3919109106063843, -3.451801300048828, -0.022640857845544815, 0.0, 0.0, 0.0, 0, 0, 0, 0, 0, 0, -1.3919109106063843, -3.451801300048828, -0.022640857845544815
15370, 0.038109444081783295, 0.007185197900980711, 0.1551036685705185, -0.0999746099114418, -0.0612335167825222, 0.10226401686668396, -0.0015365094877779484, -0.003297216957435012, 1.0016409158706665, -1.3942008018493652, -3.4576523303985596, -0.022716239094734192, 0.0, 0.0, 0.0, 0, 0, 0, 0, 0, 0, -1.3942008018493652, -3.4576523303985596, -0.022716239094734192
15380, 0.03840899467468262, 0.006799641996622086, 0.15582433342933655, 0.17998407781124115, -0.126506045460701, -0.06693341583013535, -0.0026411202270537615, -0.005570527631789446, 0.9993078112602234, -1.3964921236038208, -3.463508129119873, -0.022790685296058655, 0.0, 0.0, 0.0, 0, 0, 0, 0, 0, 0, -1.3964921236038208, -3.463508129119873, -0.022790685296058655
15390, 0.03822565823793411, 0.006699849851429462, 0.15445472300052643, -0.005681576672941446, 0.16217772662639618, 0.1513288915157318, -0.0035159094259142876, -0.004905644338577986, 0.9986356496810913, -1.3987857103347778, -3.469369649887085, -0.022865144535899162, 0.0, 0.0, 0.0, 0, 0, 0, 0, 0, 0, -1.3987857103347778, -3.469369649887085, -0.022865144535899162
15400, 0.03878270462155342, 0.007352503947913647, 0.15436889231204987, -0.03318776190280914, -0.1652647852897644, -0.2012467235326767, -0.0034630880691111088, -0.004057719837874174, 1.0002093315124512, -1.4010823965072632, -3.4752368927001953, -0.02294057048857212, 0.0, 0.0, 0.0, 0, 0, 0, 0, 0, 0, -1.4010823965072632, -3.4752368927001953, -0.02294057048857212
15410, 0.037961412221193314, 0.00714091258123517, 0.15529492497444153, -0.02054571732878685, 0.0008724670624360442, -0.03459658846259117, -0.002071511233225465, -0.004250566475093365, 0.999524712562561, -1.403382420539856, -3.4811089038848877, -0.023016594350337982, 0.0, 0.0, 0.0, 0, 0, 0, 0, 0, 0, -1.403382420539856, -3.4811089038848877, -0.023016594350337982
15420, 0.038731977343559265, 0.007437922991812229, 0.15533801913261414, 0.018175100907683372, 0.13880248367786407, 0.03152743726968765, -0.0010816628346219659, -0.004886315669864416, 0.9984474182128906, -1.4056848287582397, -3.486985683441162, -0.023093169555068016, 0.0, 0.0, 0.0, 0, 0, 0, 0, 0, 0, -1.4056848287582397, -3.486985683441162, -0.023093169555068016
15430, 0.03821200877428055, 0.006322711240500212, 0.1554679572582245, -0.18319852650165558, -0.06788963079452515, -0.03864353522658348, -0.0019768921192735434, -0.004663201980292797, 0.9993962049484253, -1.4079890251159668, -3.492868185043335, -0.02317100763320923, 0.0, 0.0, 0.0, 0, 0, 0, 0, 0, 0, -1.4079890251159668, -3.492868185043335, -0.02317100763320923
15440, 0.03778237849473953, 0.006140615791082382, 0.1549087017774582, -0.02377511002123356, -0.1808890849351883, 0.06587556004524231, -0.0009739793022163212, -0.004490440245717764, 1.0001803636550903, -1.410294771194458, -3.498755931854248, -0.023249542340636253, 0.0, 0.0, 0.0, 0, 0, 0, 0, 0, 0, -1.410294771194458, -3.498755931854248, -0.023249542340636253
15450, 0.03855453059077263, 0.007435776758939028, 0.15325291454792023, 0.0858597606420517, 0.11669251322746277, -0.19102929532527924, -0.0031984029337763786, -0.005904661491513252, 1.0015356540679932, -1.4126020669937134, -3.5046489238739014, -0.023327795788645744, 0.0, 0.0, 0.0, 0, 0, 0, 0, 0, 0, -1.4126020669937134, -3.5046489238739014, -0.023327795788645744
15460, 0.038137007504701614, 0.006510771811008453, 0.15357409417629242, -0.1392696499824524, -0.043813589960336685, -0.1224694773554802, -0.0029094188939779997, -0.00591136422008276, 0.9982597231864929, -1.4149119853973389, -3.5105481147766113, -0.02340533770620823, 0.0, 0.0, 0.0, 0, 0, 0, 0, 0, 0, -1.4149119853973389, -3.5105481147766113, -0.02340533770620823
15470, 0.03715556859970093, 0.004753757268190384, 0.15306729078292847, -0.027510453015565872, 0.1401408165693283, 0.04914938285946846, -0.0015256184851750731, -0.0033394580241292715, 0.9983798265457153, -1.4172245264053345, -3.516453266143799, -0.023483268916606903, 0.0, 0.0, 0.0, 0, 0, 0, 0, 0, 0, -1.4172245264053345, -3.516453266143799, -0.023483268916606903
15480, 0.03746390342712402, 0.004718606825917959, 0.15290728211402893, -0.007015762384980917, -0.01640346460044384, -0.011280594393610954, -0.0032738344743847847, -0.00530602689832449, 0.9987842440605164, -1.419539451599121, -3.5223629474639893, -0.023562949150800705, 0.0, 0.0, 0.0, 0, 0, 0, 0, 0, 0, -1.419539451599121, -3.5223629474639893, -0.023562949150800705
15490, 0.03699556738138199, 0.005409694742411375, 0.15228059887886047, -0.0993327870965004, -0.13993264734745026, -0.02164326049387455, -0.0021919093560427427, -0.005898495204746723, 0.9983840584754944, -1.4218569993972778, -3.528278112411499, -0.02364414371550083, 0.0, 0.0, 0.0, 0, 0, 0, 0, 0, 0, -1.4218569993972778, -3.528278112411499, -0.02364414371550083
15500, 0.03647926077246666, 0.004371824208647013, 0.1527571976184845, -0.05891101434826851, 0.13696248829364777, 0.06205858662724495, -0.0042838482186198235, -0.005271886941045523, 0.9992226362228394, -1.4241775274276733, -3.5341997146606445, -0.02372673898935318, 0.0, 0.0, 0.0, 0, 0, 0, 0, 0, 0, -1.4241775274276733, -3.5341997146606445, -0.02372673898935318
15510, 0.03671792149543762, 0.002972265472635627, 0.15265004336833954, 0.0823327973484993, 0.17178267240524292, -0.2222796529531479, -0.0012540140887722373, -0.004001003690063953, 0.9981809258460999, -1.4265011548995972, -3.5401272773742676, -0.02381056733429432, 0.0, 0.0, 0.0, 0, 0, 0, 0, 0, 0, -1.4265011548995972, -3.5401272773742676, -0.02381056733429432
15520, 0.03742462024092674, 0.0014860584633424878, 0.1527840793132782, 0.11214501410722733, 0.29708027839660645, 0.2680817246437073, -0.001350095379166305, -0.004596266895532608, 0.9989719986915588, -1.4288265705108643, -3.546060085296631, -0.02389565110206604, 0.0, 0.0, 0.0, 0, 0, 0, 0, 0, 0, -1.4288265705108643, -3.546060085296631, -0.02389565110206604
15530, 0.03677116334438324, 0.0008644280023872852, 0.15336938202381134, 0.11064232885837555, 0.1252651810646057, -0.17850561439990997, -0.002581110456958413, -0.003422067267820239, 0.9999184608459473, -1.4311532974243164, -3.551997661590576, -0.023981848731637, 0.0, 0.0, 0.0, 0, 0, 0, 0, 0, 0, -1.4311532974243164, -3.551997661590576, -0.023981848731637
15540, 0.03719329088926315, 0.0002986106264870614, 0.1533118635416031, -0.059738513082265854, -0.10386766493320465, -0.0958586111664772, -0.0027610957622528076, -0.003576915943995118, 0.9994431138038635, -1.43348228931427, -3.5579395294189453, -0.024068783968687057, 0.0, 0.0, 0.0, 0, 0, 0, 0, 0, 0, -1.43348228931427, -3.5579395294189453, -0.024068783968687057
15550, 0.03651285171508789, -0.0007849152898415923, 0.1533273160457611, -0.2528535723686218, 0.20313575863838196, 0.07114109396934509, -0.003941679373383522, -0.005546029657125473, 1.0009592771530151, -1.4358142614364624, -3.5638856887817383, -0.024155912920832634, 0.0, 0.0, 0.0, 0, 0, 0, 0, 0, 0, -1.4358142614364624, -3.5638856887817383, -0.024155912920832634
15560, 0.03647107630968094, -0.001189307076856494, 0.15306706726551056, 0.051668986678123474, -0.04315793886780739, 0.0383184440433979, -0.0033470781054347754, -0.004327916074544191, 0.9998819828033447, -1.4381499290466309, -3.5698370933532715, -0.024242518469691277, 0.0, 0.0, 0.0, 0, 0, 0, 0, 0, 0, -1.4381499290466309, -3.5698370933532715, -0.024242518469691277
15570, 0.03669601306319237, -0.001981519628316164, 0.15307016670703888, 0.0016019310569390655, 0.0146607281640172, 0.06267617642879486, -7.536881457781419e-05, -0.004350854549556971, 1.0012942552566528, -1.440488576889038, -3.575793504714966, -0.024328656494617462, 0.0, 0.0, 0.0, 0, 0, 0, 0, 0, 0, -1.440488576889038, -3.575793504714966, -0.024328656494617462
15580, 0.03522389009594917, -0.0027517247945070267, 0.1522473841905594, -0.06021030619740486, -0.11993304640054703, -0.17657096683979034, -0.0013436800800263882, -0.004857205785810947, 1.0013666152954102, -1.4428281784057617, -3.581754684448242, -0.02441408671438694, 0.0, 0.0, 0.0, 0, 0, 0, 0, 0, 0, -1.4428281784057617, -3.581754684448242, -0.02441408671438694
15590, 0.034909654408693314, -0.0026717251166701317, 0.1512024998664856, 0.22450390458106995, 0.13521072268486023, 0.13472458720207214, -0.000711549655534327, -0.0037280493415892124, 1.0012032985687256, -1.4451682567596436, -3.587721109390259, -0.02449805848300457, 0.0, 0.0, 0.0, 0, 0, 0, 0, 0, 0, -1.4451682567596436, -3.587721109390259, -0.02449805848300457
15600, 0.03554467111825943, -0.0011126389726996422, 0.1520540565252304, 0.15855495631694794, -0.19814129173755646, 0.16644415259361267, -0.0031366832554340363, -0.0024220850318670273, 1.002021312713623, -1.447509765625, -3.5936920642852783, -0.024580176919698715, 0.0, 0.0, 0.0, 0, 0, 0, 0, 0, 0, -1.447509765625, -3.5936920642852783, -0.024580176919698715
15610, 0.03657345473766327, -0.0016272151842713356, 0.15284863114356995, 0.0608011819422245, 0.14530901610851288, -0.07385174185037613, -0.0026194306556135416, -0.0049067833460867405, 1.0012885332107544, -1.4498536586761475, -3.5996663570404053, -0.024660738185048103, 0.0, 0.0, 0.0, 0, 0, 0, 0, 0, 0, -1.4498536586761475, -3.5996663570404053, -0.024660738185048103
15620, 0.0353524275124073, -0.0010482073994353414, 0.15271979570388794, -0.024674687534570694, -0.28464075922966003, -0.021774236112833023, -0.002344482811167836, -0.0049782004207372665, 1.0021858215332031, -1.4522000551223755, -3.605645179748535, -0.024739965796470642, 0.0, 0.0, 0.0, 0, 0, 0, 0, 0, 0, -1.4522000551223755, -3.605645179748535, -0.024739965796470642
15630, 0.03591793775558472, 0.0004925556131638587, 0.15155158936977386, -0.04573877528309822, 0.048070792108774185, 0.1595972180366516, -0.0010119302896782756, -0.005261257756501436, 1.0022218227386475, -1.4545488357543945, -3.6116294860839844, -0.024817490950226784, 0.0, 0.0, 0.0, 0, 0, 0, 0, 0, 0, -1.4545488357543945, -3.6116294860839844, -0.024817490950226784
15640, 0.03633088618516922, 0.0014151013456285, 0.15357252955436707, -0.05088215693831444, 0.10889777541160583, -0.028913529589772224, -0.002037768019363284, -0.003695104969665408, 1.0004289150238037, -1.4568994045257568, -3.617619276046753, -0.024893280118703842, 0.0, 0.0, 0.0, 0, 0, 0, 0, 0, 0, -1.4568994045257568, -3.617619276046753, -0.024893280118703842
15650, 0.03666451573371887, 0.0017583956941962242, 0.15285329520702362, 0.06412911415100098, 0.09325121343135834, -0.14314448833465576, -0.0029282132163643837, -0.003968902863562107, 0.9991664886474609, -1.4592517614364624, -3.6236138343811035, -0.024968205019831657, 0.0, 0.0, 0.0, 0, 0, 0, 0, 0, 0, -1.4592517614364624, -3.6236138343811035, -0.024968205019831657
15660, 0.03666485846042633, 0.0006545991054736078, 0.15224817395210266, 0.10497631132602692, -0.05970121547579765, 0.12814359366893768, -0.0027262787334620953, -0.004841204266995192, 0.9999774694442749, -1.4616068601608276, -3.629612684249878, -0.0250435508787632, 0.0, 0.0, 0.0, 0, 0, 0, 0, 0, 0, -1.4616068601608276, -3.629612684249878, -0.0250435508787632
15670, 0.03773730620741844, 0.001047861878760159, 0.15288874506950378, -0.09200192242860794, 0.00872151181101799, 0.08330441266298294, -0.0018747745780274272, -0.0034220200031995773, 1.0009962320327759, -1.463964581489563, -3.6356163024902344, -0.025119254365563393, 0.0, 0.0, 0.0, 0, 0, 0, 0, 0, 0, -1.463964581489563, -3.6356163024902344, -0.025119254365563393
15680, 0.03728270158171654, 0.0010547145502641797, 0.15324553847312927, 0.13427914679050446, 0.27752819657325745, 0.03915030509233475, -0.003501622937619686, -0.003155057318508625, 1.0017234086990356, -1.4663246870040894, -3.6416244506835938, -0.025194257497787476, 0.0, 0.0, 0.0, 0, 0, 0, 0, 0, 0, -1.4663246870040894, -3.6416244506835938, -0.025194257497787476
15690, 0.03855521231889725, 0.0003702078538481146, 0.1528506875038147, 0.11128701269626617, 0.06942001730203629, 0.1525481641292572, -0.002645153785124421, -0.002153415698558092, 1.000571846961975, -1.468687653541565, -3.6476364135742188, -0.025267891585826874, 0.0, 0.0, 0.0, 0, 0, 0, 0, 0, 0, -1.468687653541565, -3.6476364135742188, -0.025267891585826874
15700, 0.039183132350444794, -0.0005381508381105959, 0.15485915541648865, 0.28263983130455017, -0.0159167367964983, 0.14455454051494598, -0.00213986705057323, -0.0037369902711361647, 0.9997947812080383, -1.4710534811019897, -3.653651475906372, -0.02534056454896927, 0.0, 0.0, 0.0, 0, 0, 0, 0, 0, 0, -1.4710534811019897, -3.653651475906372, -0.02534056454896927
15710, 0.03966149315237999, -0.00036682034260593355, 0.15518642961978912, -0.160112664103508, 0.1743766814470291, -0.03921368345618248, -0.0036350118461996317, -0.005245679523795843, 1.0002717971801758, -1.4734218120574951, -3.659670352935791, -0.02541319467127323, 0.0, 0.0, 0.0, 0, 0, 0, 0, 0, 0, -1.4734218120574951, -3.659670352935791, -0.02541319467127323
15720, 0.0393306165933609, -0.0009319111704826355, 0.15519753098487854, 0.1303185373544693, -0.08285681158304214, 0.11582235246896744, -0.0015788425225764513, -0.0044261072762310505, 0.9977670907974243, -1.475792646408081, -3.66569447517395, -0.025486238300800323, 0.0, 0.0, 0.0, 0, 0, 0, 0, 0, 0, -1.475792646408081, -3.66569447517395, -0.025486238300800323
15730, 0.03968903794884682, -0.002216784283518791, 0.15483014285564423, -0.09679324924945831, -0.06240642070770264, 0.025106465443968773, -0.0027110388036817312, -0.005538938567042351, 0.9984703063964844, -1.4781659841537476, -3.6717240810394287, -0.025560537353157997, 0.0, 0.0, 0.0, 0, 0, 0, 0, 0, 0, -1.4781659841537476, -3.6717240810394287, -0.025560537353157997
15740, 0.03969421982765198, -0.0027989319059997797, 0.15708819031715393, -0.06922567635774612, -0.09875459969043732, 0.0015347618609666824, -0.0020152453798800707, -0.0049792686477303505, 0.9998971223831177, -1.480541467666626, -3.6777591705322266, -0.025636466220021248, 0.0, 0.0, 0.0, 0, 0, 0, 0, 0, 0, -1.480541467666626, -3.6777591705322266, -0.025636466220021248
15750, 0.03882984817028046, -0.002738342387601733, 0.15610374510288239, -0.2114475965499878, 0.12817072868347168, 0.010200758464634418, -0.0019211164908483624, -0.00447051553055644, 1.0006366968154907, -1.4829192161560059, -3.683799982070923, -0.025713156908750534, 0.0, 0.0, 0.0, 0, 0, 0, 0, 0, 0, -1.4829192161560059, -3.683799982070923, -0.025713156908750534
15760, 0.03792542219161987, -0.0014012750471010804, 0.15599915385246277, 0.23213890194892883, -0.021244192495942116, 0.324469655752182, 0.00017645776097197086, -0.0023043870460242033, 0.999813973903656, -1.485298752784729, -3.689845561981201, -0.025789635255932808, 0.0, 0.0, 0.0, 0, 0, 0, 0, 0, 0, -1.485298752784729, -3.689845561981201, -0.025789635255932808
15770, 0.03806279972195625, -0.0007326599443331361, 0.15615499019622803, -0.035308822989463806, -0.2692016363143921, -0.08088735491037369, -0.00023220331058837473, -0.0031110295094549656, 0.9987461566925049, -1.4876790046691895, -3.695894479751587, -0.02586607076227665, 0.0, 0.0, 0.0, 0, 0, 0, 0, 0, 0, -1.4876790046691895, -3.695894479751587, -0.02586607076227665
15780, 0.037448205053806305, 0.0005371629376895726, 0.15637971460819244, -0.14982356131076813, 0.25338631868362427, 0.02584274299442768, 0.0001901186624309048, -0.001360036781989038, 1.0008026361465454, -1.49005925655365, -3.701946496963501, -0.025943003594875336, 0.0, 0.0, 0.0, 0, 0, 0, 0, 0, 0, -1.49005925655365, -3.701946496963501, -0.025943003594875336
15790, 0.035739824175834656, 0.0014850106090307236, 0.1558850109577179, -0.08882509171962738, -0.2737005352973938, 0.07394574582576752, -0.0008429441368207335, -0.0030833266209810972, 1.0000697374343872, -1.4924395084381104, -3.708001136779785, -0.026019927114248276, 0.0, 0.0, 0.0, 0, 0, 0, 0, 0, 0, -1.4924395084381104, -3.708001136779785, -0.026019927114248276
15800, 0.03524932265281677, 0.002283554058521986, 0.1568172574043274, -0.11999418586492538, -0.0294558834284544, -0.020048802718520164, 0.0004020100459456444, -0.00581719633191824, 0.9985082149505615, -1.49481999874115, -3.714059352874756, -0.02609688602387905, 0.0, 0.0, 0.0, 0, 0, 0, 0, 0, 0, -1.49481999874115, -3.714059352874756, -0.02609688602387905
15810, 0.03466176614165306, 0.00144012866076082, 0.1585298627614975, -0.06724517047405243, -0.13862214982509613, 0.03795266151428223, -0.00022700370755046606, -0.005885643884539604, 0.9998634457588196, -1.497200608253479, -3.720123291015625, -0.02617459185421467, 0.0, 0.0, 0.0, 0, 0, 0, 0, 0, 0, -1.497200608253479, -3.720123291015625, -0.02617459185421467
15820, 0.035271115601062775, 0.002629026537761092, 0.15833546221256256, 0.26812392473220825, -0.20832741260528564, 0.19062650203704834, -0.002178531838580966, -0.0049952492117881775, 0.9995546936988831, -1.4995813369750977, -3.72619366645813, -0.026252569630742073, 0.0, 0.0, 0.0, 0, 0, 0, 0, 0, 0, -1.4995813369750977, -3.72619366645813, -0.026252569630742073
15830, 0.036485329270362854, 0.005359459202736616, 0.15912608802318573, 0.10256897658109665, -0.06086744740605354, 0.33332183957099915, -0.00396178150549531, -0.0043359906412661076, 0.9988833069801331, -1.5019640922546387, -3.732269525527954, -0.02633087709546089, 0.0, 0.0, 0.0, 0, 0, 0, 0, 0, 0, -1.5019640922546387, -3.732269525527954, -0.02633087709546089
15840, 0.036445241421461105, 0.005881446413695812, 0.15894895792007446, 0.004038796294480562, -0.08530205488204956, 0.0981965884566307, -0.0005245984066277742, -0.00324324076063931, 0.999398410320282, -1.504349946975708, -3.7383503913879395, -0.02641020156443119, 0.0, 0.0, 0.0, 0, 0, 0, 0, 0, 0, -1.504349946975708, -3.7383503913879395, -0.02641020156443119
15850, 0.0359359011054039, 0.007760486099869013, 0.159213587641716, -0.15018858015537262, -0.27812832593917847, 0.18173955380916595, -0.0012755695497617126, -0.005117387976497412, 1.0017472505569458, -1.5067379474639893, -3.7444355487823486, -0.026490066200494766, 0.0, 0.0, 0.0, 0, 0, 0, 0, 0, 0, -1.5067379474639893, -3.7444355487823486, -0.026490066200494766
15860, 0.03649209439754486, 0.01022305153310299, 0.15946069359779358, 0.1169670894742012, -0.04479378089308739, 0.00800425186753273, -0.0013020022306591272, -0.004368198104202747, 1.0004258155822754, -1.5091270208358765, -3.75052547454834, -0.026569131761789322, 0.0, 0.0, 0.0, 0, 0, 0, 0, 0, 0, -1.5091270208358765, -3.75052547454834, -0.026569131761789322
15870, 0.03592652454972267, 0.009854226373136044, 0.16062764823436737, -0.009466125629842281, 0.0937541201710701, 0.08817300200462341, -0.0024909963831305504, -0.005156221333891153, 0.9989652633666992, -1.5115176439285278, -3.756620407104492, -0.026647398248314857, 0.0, 0.0, 0.0, 0, 0, 0, 0, 0, 0, -1.5115176439285278, -3.756620407104492, -0.026647398248314857
15880, 0.036507751792669296, 0.009981640614569187, 0.15913155674934387, 0.06115865707397461, 0.04470957815647125, -0.026768069714307785, -0.002843785798177123, -0.0066563431173563, 1.0002713203430176, -1.5139106512069702, -3.762721061706543, -0.026726018637418747, 0.0, 0.0, 0.0, 0, 0, 0, 0, 0, 0, -1.5139106512069702, -3.762721061706543, -0.026726018637418747
15890, 0.03612992540001869, 0.008557386696338654, 0.15825583040714264, 0.15434260666370392, -0.03650898486375809, -0.06953984498977661, -0.0024122430477291346, -0.0036665915977209806, 0.9992958903312683, -1.5163064002990723, -3.7688279151916504, -0.02680509351193905, 0.0, 0.0, 0.0, 0, 0, 0, 0, 0, 0, -1.5163064002990723, -3.7688279151916504, -0.02680509351193905
15900, 0.036791253834962845, 0.009361514821648598, 0.15891225636005402, 0.11032554507255554, 0.13543346524238586, 0.03299505263566971, -0.0005250584799796343, -0.004841054789721966, 0.9999356865882874, -1.5187042951583862, -3.774940013885498, -0.026884520426392555, 0.0, 0.0, 0.0, 0, 0, 0, 0, 0, 0, -1.5187042951583862, -3.774940013885498, -0.026884520426392555
15910, 0.03679277375340462, 0.00794373732060194, 0.15821054577827454, 0.11006369441747665, 0.004679401870816946, -0.03953508660197258, -0.0030438508838415146, -0.004110760986804962, 0.999089777469635, -1.521103858947754, -3.781057119369507, -0.026964327320456505, 0.0, 0.0, 0.0, 0, 0, 0, 0, 0, 0, -1.521103858947754, -3.781057119369507, -0.026964327320456505
15920, 0.03694184496998787, 0.01000579446554184, 0.15713857114315033, -0.1362334042787552, -0.04261333867907524, -0.10595983266830444, -0.0017987594474107027, -0.0036950779613107443, 0.9994270205497742, -1.523505449295044, -3.7871789932250977, -0.02704477310180664, 0.0, 0.0, 0.0, 0, 0, 0, 0, 0, 0, -1.523505449295044, -3.7871789932250977, -0.02704477310180664
15930, 0.03704157471656799, 0.010906246490776539, 0.15804067254066467, -0.06709116697311401, 0.06213251128792763, 0.037210844457149506, -5.205856723478064e-05, -0.0017251987010240555, 1.0001369714736938, -1.5259090662002563, -3.793304920196533, -0.02712586149573326, 0.0, 0.0, 0.0, 0, 0, 0, 0, 0, 0, -1.5259090662002563, -3.793304920196533, -0.02712586149573326
15940, 0.037700753659009933, 0.011773580685257912, 0.15730063617229462, 0.009794834069907665, -0.33123093843460083, 0.01956448331475258, -0.0007328283973038197, -0.003319105366244912, 1.0002106428146362, -1.5283135175704956, -3.799434185028076, -0.02720695175230503, 0.0, 0.0, 0.0, 0, 0, 0, 0, 0, 0, -1.5283135175704956, -3.799434185028076, -0.02720695175230503
15950, 0.03729728236794472, 0.013083904050290585, 0.157932847738266, 0.1169748455286026, -0.042843855917453766, -0.12073134630918503, -0.002600032137706876, -0.001442651730030775, 1.0014424324035645, -1.5307190418243408, -3.8055665493011475, -0.027287645265460014, 0.0, 0.0, 0.0, 0, 0, 0, 0, 0, 0, -1.5307190418243408, -3.8055665493011475, -0.027287645265460014
15960, 0.0381217896938324, 0.01336153969168663, 0.15738187730312347, 0.0750737190246582, -0.03900408372282982, -0.29966697096824646, -0.002409616019576788, -0.0037270886823534966, 1.0014961957931519, -1.5331268310546875, -3.811701774597168, -0.02736707031726837, 0.0, 0.0, 0.0, 0, 0, 0, 0, 0, 0, -1.5331268310546875, -3.811701774597168, -0.02736707031726837
15970, 0.03824855387210846, 0.01330966129899025, 0.15759608149528503, -0.03801024705171585, 0.04779130592942238, 0.015118351206183434, -0.0027719035279005766, -0.006038620136678219, 0.9991899728775024, -1.5355374813079834, -3.817841053009033, -0.027445130050182343, 0.0, 0.0, 0.0, 0, 0, 0, 0, 0, 0, -1.5355374813079834, -3.817841053009033, -0.027445130050182343
15980, 0.03842771425843239, 0.014671026729047298, 0.1572999507188797, 0.029363105073571205, 0.036846473813056946, 0.04140050709247589, -0.00017993304936680943, -0.004970396403223276, 1.001161813735962, -1.5379506349563599, -3.823986291885376, -0.02752315066754818, 0.0, 0.0, 0.0, 0, 0, 0, 0, 0, 0, -1.5379506349563599, -3.823986291885376, -0.02752315066754818
15990, 0.0378977432847023, 0.014377317391335964, 0.15672117471694946, -0.1162579283118248, 0.294577032327652, -0.07046367973089218, 0.0015547663206234574, -0.003127511590719223, 1.0019927024841309, -1.5403647422790527, -3.830137014389038, -0.027600470930337906, 0.0, 0.0, 0.0, 0, 0, 0, 0, 0, 0, -1.5403647422790527, -3.830137014389038, -0.027600470930337906
16000, 0.036169398576021194, 0.014127667061984539, 0.1557030975818634, -0.07384692877531052, -0.1919078379869461, 0.17963750660419464, -0.002706154016777873, -0.0019728895276784897, 1.0016849040985107, -1.542778491973877, -3.836291551589966, -0.027675900608301163, 0.0, 0.0, 0.0, 0, 0, 0, 0, 0, 0, -1.542778491973877, -3.836291551589966, -0.027675900608301163
16010, 0.03622060641646385, 0.013836956582963467, 0.15694421529769897, 0.1293080598115921, 0.018640432506799698, 0.04574832692742348, -0.002206226112321019, -0.005465802736580372, 0.9992628693580627, -1.5451939105987549, -3.84244966506958, -0.027750320732593536, 0.0, 0.0, 0.0, 0, 0, 0, 0, 0, 0, -1.5451939105987549, -3.84244966506958, -0.027750320732593536
16020, 0.03668389469385147, 0.013610387220978737, 0.15783926844596863, 0.08915866166353226, -0.0798347219824791, 0.12345433235168457, -0.002406846499070525, -0.003908498678356409, 0.9977561831474304, -1.5476120710372925, -3.8486123085021973, -0.02782529778778553, 0.0, 0.0, 0.0, 0, 0, 0, 0, 0, 0, -1.5476120710372925, -3.8486123085021973, -0.02782529778778553
16030, 0.037086669355630875, 0.015934819355607033, 0.15777109563350677, -0.08090674877166748, 0.16386735439300537, -0.08380820602178574, -0.002473981585353613, -0.0065060085617005825, 1.0017198324203491, -1.5500328540802002, -3.8547801971435547, -0.02790132910013199, 0.0, 0.0, 0.0, 0, 0, 0, 0, 0, 0, -1.5500328540802002, -3.8547801971435547, -0.02790132910013199
16040, 0.03682313859462738, 0.012822944670915604, 0.15753903985023499, -0.09279529750347137, 0.40064457058906555, 0.1960441768169403, -0.002327102003619075, -0.0067468625493347645, 0.9982525706291199, -1.5524563789367676, -3.8609542846679688, -0.027977416291832924, 0.0, 0.0, 0.0, 0, 0, 0, 0, 0, 0, -1.5524563789367676, -3.8609542846679688, -0.027977416291832924
16050, 0.03687163069844246, 0.011091729626059532, 0.15891262888908386, 0.11038962751626968, -0.07229340076446533, 0.0711015835404396, -0.0029456557240337133, -0.004783092997968197, 0.9999778866767883, -1.5548824071884155, -3.8671352863311768, -0.02805395983159542, 0.0, 0.0, 0.0, 0, 0, 0, 0, 0, 0, -1.5548824071884155, -3.8671352863311768, -0.02805395983159542
16060, 0.037087008357048035, 0.01424051821231842, 0.15743868052959442, 0.12036632746458054, -0.2502976059913635, -0.38402387499809265, -0.0015972168184816837, -0.005420719273388386, 0.9994069337844849, -1.5573114156723022, -3.873322010040283, -0.02813132479786873, 0.0, 0.0, 0.0, 0, 0, 0, 0, 0, 0, -1.5573114156723022, -3.873322010040283, -0.02813132479786873
16070, 0.037655215710401535, 0.013722643256187439, 0.15803290903568268, 0.09985554218292236, -0.1252097487449646, 0.139637291431427, -0.0011084695579484105, -0.004715572576969862, 1.0002437829971313, -1.55974280834198, -3.879514455795288, -0.0282087791711092, 0.0, 0.0, 0.0, 0, 0, 0, 0, 0, 0, -1.55974280834198, -3.879514455795288, -0.0282087791711092
16080, 0.038417208939790726, 0.015844138339161873, 0.15696944296360016, 0.016536489129066467, 0.11138113588094711, 0.13183635473251343, -0.0015690838918089867, -0.004994382616132498, 1.0006276369094849, -1.5621757507324219, -3.885712146759033, -0.028285937383770943, 0.0, 0.0, 0.0, 0, 0, 0, 0, 0, 0, -1.5621757507324219, -3.885712146759033, -0.028285937383770943
16090, 0.03856552392244339, 0.013644357211887836, 0.15851664543151855, -0.008418341167271137, -0.05445147678256035, 0.026067158207297325, -0.00213819881901145, -0.004536578431725502, 1.001692771911621, -1.564610481262207, -3.8919150829315186, -0.028362169861793518, 0.0, 0.0, 0.0, 0, 0, 0, 0, 0, 0, -1.564610481262207, -3.8919150829315186, -0.028362169861793518
16100, 0.039164237678050995, 0.01372138224542141, 0.15883179008960724, 0.060742009431123734, -0.06172924116253853, 0.09590456634759903, -0.0028973803855478764, -0.003532897215336561, 0.9996607303619385, -1.5670474767684937, -3.8981235027313232, -0.028437353670597076, 0.0, 0.0, 0.0, 0, 0, 0, 0, 0, 0, -1.5670474767684937, -3.8981235027313232, -0.028437353670597076
16110, 0.03903917595744133, 0.013008004985749722, 0.15950758755207062, -0.0690843015909195, 0.14361505210399628, 0.0425444170832634, -0.0010345776099711657, -0.006384062580764294, 0.9991148710250854, -1.5694869756698608, -3.904336929321289, -0.028512511402368546, 0.0, 0.0, 0.0, 0, 0, 0, 0, 0, 0, -1.5694869756698608, -3.904336929321289, -0.028512511402368546
16120, 0.03910597413778305, 0.011091507039964199, 0.16076312959194183, 0.050450343638658524, 0.12471550703048706, 0.20909972488880157, -0.0010888144606724381, -0.005935821682214737, 1.0000914335250854, -1.5719285011291504, -3.9105563163757324, -0.028588224202394485, 0.0, 0.0, 0.0, 0, 0, 0, 0, 0, 0, -1.5719285011291504, -3.9105563163757324, -0.028588224202394485
16130, 0.03905625268816948, 0.010827814228832722, 0.16057220101356506, 0.14122118055820465, -0.004735948052257299, 0.010600581765174866, -0.0011172413360327482, -0.00435328995808959, 1.000072717666626, -1.5743714570999146, -3.9167821407318115, -0.028663892298936844, 0.0, 0.0, 0.0, 0, 0, 0, 0, 0, 0, -1.5743714570999146, -3.9167821407318115, -0.028663892298936844
16140, 0.0388823039829731, 0.011348986066877842, 0.15961502492427826, -0.0779251679778099, 0.2104424238204956, 0.038107093423604965, -0.0013220211258158088, -0.00494398083537817, 0.9999504089355469, -1.5768159627914429, -3.923013687133789, -0.028739463537931442, 0.0, 0.0, 0.0, 0, 0, 0, 0, 0, 0, -1.5768159627914429, -3.923013687133789, -0.028739463537931442
16150, 0.03858787193894386, 0.009662509895861149, 0.16055288910865784, 0.11184203624725342, 0.06785285472869873, 0.3294849991798401, -0.0035663023591041565, -0.00506856432184577, 1.0000312328338623, -1.5792620182037354, -3.929250478744507, -0.028815152123570442, 0.0, 0.0, 0.0, 0, 0, 0, 0, 0, 0, -1.5792620182037354, -3.929250478744507, -0.028815152123570442
16160, 0.038048628717660904, 0.00995086133480072, 0.15977025032043457, -0.067610003054142, 0.14719271659851074, 0.007051515392959118, -0.003467172384262085, -0.005679952912032604, 0.9999493360519409, -1.581710934638977, -3.935493230819702, -0.028891034424304962, 0.0, 0.0, 0.0, 0, 0, 0, 0, 0, 0, -1.581710934638977, -3.935493230819702, -0.028891034424304962
16170, 0.03715795278549194, 0.007885204628109932, 0.16050171852111816, -0.22261688113212585, 0.4378814995288849, 0.13603733479976654, -0.0016471582930535078, -0.005794906057417393, 1.0008312463760376, -1.5841633081436157, -3.941742181777954, -0.028966689482331276, 0.0, 0.0, 0.0, 0, 0, 0, 0, 0, 0, -1.5841633081436157, -3.941742181777954, -0.028966689482331276
16180, 0.03731679543852806, 0.008329364471137524, 0.15908198058605194, 0.06844137609004974, -0.05631938576698303, -0.045987777411937714, 0.000321629224345088, -0.0056355539709329605, 1.0009740591049194, -1.5866178274154663, -3.947997570037842, -0.029041728004813194, 0.0, 0.0, 0.0, 0, 0, 0, 0, 0, 0, -1.5866178274154663, -3.947997570037842, -0.029041728004813194
16190, 0.03763262927532196, 0.008901027031242847, 0.16035938262939453, -0.27453556656837463, -0.15916281938552856, -0.03288378193974495, -0.0014241945464164019, -0.002652752446010709, 1.003401517868042, -1.5890729427337646, -3.954258680343628, -0.029115479439496994, 0.0, 0.0, 0.0, 0, 0, 0, 0, 0, 0, -1.5890729427337646, -3.954258680343628, -0.029115479439496994
16200, 0.03662046045064926, 0.008610592223703861, 0.16046464443206787, 0.08049597591161728, -0.05010291188955307, 0.09581728279590607, -0.0037756995297968388, -0.005608053412288427, 1.0029234886169434, -1.5915292501449585, -3.960524797439575, -0.02918657846748829, 0.0, 0.0, 0.0, 0, 0, 0, 0, 0, 0, -1.5915292501449585, -3.960524797439575, -0.02918657846748829
16210, 0.03630119562149048, 0.007708712015300989, 0.1614283323287964, -0.1287369430065155, 0.09313604235649109, 0.18905343115329742, -0.002601573010906577, -0.003424636786803603, 1.0010242462158203, -1.5939886569976807, -3.9667956829071045, -0.029254868626594543, 0.0, 0.0, 0.0, 0, 0, 0, 0, 0, 0, -1.5939886569976807, -3.9667956829071045, -0.029254868626594543
16220, 0.035867154598236084, 0.007332039065659046, 0.16100525856018066, 0.13115575909614563, -0.127497136592865, -0.044207822531461716, -0.0015278144273906946, -0.006384504027664661, 0.9993745684623718, -1.5964512825012207, -3.973071575164795, -0.029321914538741112, 0.0, 0.0, 0.0, 0, 0, 0, 0, 0, 0, -1.5964512825012207, -3.973071575164795, -0.029321914538741112
16230, 0.03636932373046875, 0.007480594329535961, 0.16081836819648743, -0.11054309457540512, 0.33595746755599976, -0.0014460304519161582, -0.0024633039720356464, -0.008648838847875595, 0.9974680542945862, -1.598915934562683, -3.979353904724121, -0.029389528557658195, 0.0, 0.0, 0.0, 0, 0, 0, 0, 0, 0, -1.598915934562683, -3.979353904724121, -0.029389528557658195
16240, 0.036645013839006424, 0.006812538485974073, 0.16119720041751862, 0.17971332371234894, -0.09299308061599731, 0.2542094886302948, -0.003708989592269063, -0.005372791551053524, 0.9998069405555725, -1.601383090019226, -3.9856441020965576, -0.029458820819854736, 0.0, 0.0, 0.0, 0, 0, 0, 0, 0, 0, -1.601383090019226, -3.9856441020965576, -0.029458820819854736
16250, 0.03622516989707947, 0.007217022590339184, 0.1616382598876953, 0.039891570806503296, 0.050452377647161484, -0.0652800053358078, -0.0040101055055856705, -0.0052183084189891815, 1.0013549327850342, -1.6038538217544556, -3.991941452026367, -0.029528994113206863, 0.0, 0.0, 0.0, 0, 0, 0, 0, 0, 0, -1.6038538217544556, -3.991941452026367, -0.029528994113206863
16260, 0.034731674939394, 0.007705652620643377, 0.16000822186470032, -0.0489746555685997, -0.2212640345096588, -0.26323196291923523, -0.001987926196306944, -0.006494044791907072, 1.000587821006775, -1.6063283681869507, -3.9982447624206543, -0.029598448425531387, 0.0, 0.0, 0.0, 0, 0, 0, 0, 0, 0, -1.6063283681869507, -3.9982447624206543, -0.029598448425531387
16270, 0.03562237322330475, 0.008281814865767956, 0.15985029935836792, 0.02489069290459156, -0.23145049810409546, 0.20058612525463104, 0.000549314368981868, -0.003890697145834565, 0.9976645708084106, -1.6088050603866577, -4.004554271697998, -0.029667677357792854, 0.0, 0.0, 0.0, 0, 0, 0, 0, 0, 0, -1.6088050603866577, -4.004554271697998, -0.029667677357792854
16280, 0.036659955978393555, 0.011217889375984669, 0.16135276854038239, 0.12251387536525726, -0.03858591988682747, 0.2681575417518616, 3.978086169809103e-05, -0.004106653388589621, 0.99837726354599, -1.6112819910049438, -4.010869026184082, -0.029738331213593483, 0.0, 0.0, 0.0, 0, 0, 0, 0, 0, 0, -1.6112819910049438, -4.010869026184082, -0.029738331213593483
16290, 0.03680421784520149, 0.00994693674147129, 0.16187985241413116, -0.0552697591483593, 0.08510277420282364, -0.11657243221998215, -0.0021814852952957153, -0.005711706355214119, 0.9991592764854431, -1.6137590408325195, -4.01718807220459, -0.029810605570673943, 0.0, 0.0, 0.0, 0, 0, 0, 0, 0, 0, -1.6137590408325195, -4.01718807220459, -0.029810605570673943
16300, 0.036282192915678024, 0.00989549607038498, 0.16131485998630524, 0.04319508373737335, -0.09690798074007034, 0.1256014108657837, -0.0013191357720643282, -0.003976318519562483, 0.9990972280502319, -1.616237759590149, -4.023512840270996, -0.02988371253013611, 0.0, 0.0, 0.0, 0, 0, 0, 0, 0, 0, -1.616237759590149, -4.023512840270996, -0.02988371253013611
16310, 0.036415331065654755, 0.009711417369544506, 0.16071783006191254, -0.1721290498971939, 0.2544325590133667, 0.02267736755311489, -0.0032664122991263866, -0.004937047604471445, 0.9996470212936401, -1.6187188625335693, -4.029842853546143, -0.02995750494301319, 0.0, 0.0, 0.0, 0, 0, 0, 0, 0, 0, -1.6187188625335693, -4.029842853546143, -0.02995750494301319
16320, 0.03657345473766327, 0.009792100638151169, 0.1605721265077591, 0.09953363984823227, 0.11002535372972488, 0.0584648959338665, -0.0022553051821887493, -0.0036289130803197622, 1.0013744831085205, -1.6212027072906494, -4.036177635192871, -0.030031442642211914, 0.0, 0.0, 0.0, 0, 0, 0, 0, 0, 0, -1.6212027072906494, -4.036177635192871, -0.030031442642211914
16330, 0.0365128293633461, 0.01055233832448721, 0.16050134599208832, 0.1349245309829712, 0.035267531871795654, 0.06661942601203918, -0.0028139587957412004, -0.0052145691588521, 1.000648856163025, -1.6236892938613892, -4.042517185211182, -0.030104557052254677, 0.0, 0.0, 0.0, 0, 0, 0, 0, 0, 0, -1.6236892938613892, -4.042517185211182, -0.030104557052254677
16340, 0.03728049620985985, 0.010133150964975357, 0.1609414517879486, -0.02059420756995678, -0.10564714670181274, -0.1283728927373886, -0.0016572735039517283, -0.003928779624402523, 1.000650405883789, -1.6261783838272095, -4.048861503601074, -0.03017658181488514, 0.0, 0.0, 0.0, 0, 0, 0, 0, 0, 0, -1.6261783838272095, -4.048861503601074, -0.03017658181488514
16350, 0.03724498301744461, 0.011106432415544987, 0.1602129340171814, -0.11653412878513336, 0.15488743782043457, -0.027759985998272896, -0.0008373036980628967, -0.007039451040327549, 1.0003525018692017, -1.6286693811416626, -4.055211067199707, -0.03024785965681076, 0.0, 0.0, 0.0, 0, 0, 0, 0, 0, 0, -1.6286693811416626, -4.055211067199707, -0.03024785965681076
16360, 0.036664027720689774, 0.008548558689653873, 0.1604067087173462, 0.05442094802856445, 0.04914357513189316, 0.18214495480060577, -0.0028362541925162077, -0.004168213810771704, 0.9998413920402527, -1.6311619281768799, -4.0615668296813965, -0.030319077894091606, 0.0, 0.0, 0.0, 0, 0, 0, 0, 0, 0, -1.6311619281768799, -4.0615668296813965, -0.030319077894091606
16370, 0.03685251995921135, 0.008843316696584225, 0.16079246997833252, 0.08250794559717178, -0.13338321447372437, 0.07504633069038391, -0.003159308573231101, -0.003809310495853424, 1.0003739595413208, -1.6336570978164673, -4.067928314208984, -0.030390402302145958, 0.0, 0.0, 0.0, 0, 0, 0, 0, 0, 0, -1.6336570978164673, -4.067928314208984, -0.030390402302145958
16380, 0.03660188987851143, 0.007876584306359291, 0.1621038019657135, 0.05831022933125496, -0.052711013704538345, -0.0150421978905797, -0.0032561332918703556, -0.0064114974811673164, 1.0010825395584106, -1.6361557245254517, -4.074294567108154, -0.03046136535704136, 0.0, 0.0, 0.0, 0, 0, 0, 0, 0, 0, -1.6361557245254517, -4.074294567108154, -0.03046136535704136
16390, 0.03609698265790939, 0.007814176380634308, 0.1617589145898819, -0.05499294772744179, 0.07259759306907654, 0.13850325345993042, -0.0023581923451274633, -0.006391874980181456, 1.0006637573242188, -1.6386574506759644, -4.080667018890381, -0.030531449243426323, 0.0, 0.0, 0.0, 0, 0, 0, 0, 0, 0, -1.6386574506759644, -4.080667018890381, -0.030531449243426323
16400, 0.03519162908196449, 0.007087453734129667, 0.16261902451515198, -0.2385989874601364, 0.19171854853630066, 0.11286503821611404, -0.0025769921485334635, -0.004653831943869591, 1.0006722211837769, -1.6411619186401367, -4.087045669555664, -0.030600735917687416, 0.0, 0.0, 0.0, 0, 0, 0, 0, 0, 0, -1.6411619186401367, -4.087045669555664, -0.030600735917687416
16410, 0.03347165510058403, 0.005589573178440332, 0.1618790626525879, -0.12188785523176193, -0.02517465502023697, -0.16063424944877625, -0.0009313242044299841, -0.005306289065629244, 1.0002564191818237, -1.6436690092086792, -4.093430519104004, -0.030669601634144783, 0.0, 0.0, 0.0, 0, 0, 0, 0, 0, 0, -1.6436690092086792, -4.093430519104004, -0.030669601634144783
16420, 0.03304070979356766, 0.00604665745049715, 0.16114704310894012, -0.004875301383435726, 0.29679059982299805, -0.013087229803204536, -0.001684236922301352, -0.004047846887260675, 1.0012563467025757, -1.646178126335144, -4.099820613861084, -0.030738145112991333, 0.0, 0.0, 0.0, 0, 0, 0, 0, 0, 0, -1.646178126335144, -4.099820613861084, -0.030738145112991333
16430, 0.03339684382081032, 0.004261098802089691, 0.16089105606079102, -0.11425846815109253, -0.09954864531755447, -0.01726967841386795, -0.0008585114846937358, -0.004977718461304903, 1.0004284381866455, -1.648688554763794, -4.106215476989746, -0.03080607019364834, 0.0, 0.0, 0.0, 0, 0, 0, 0, 0, 0, -1.648688554763794, -4.106215476989746, -0.03080607019364834
16440, 0.03346234932541847, 0.0059706368483603, 0.16197209060192108, 0.03732987493276596, 0.11731570214033127, -0.030088908970355988, -0.001055050757713616, -0.004014160018414259, 0.998601496219635, -1.6512000560760498, -4.11261510848999, -0.030873555690050125, 0.0, 0.0, 0.0, 0, 0, 0, 0, 0, 0, -1.6512000560760498, -4.11261510848999, -0.030873555690050125
16450, 0.033013954758644104, 0.0056662531569600105, 0.16155092418193817, -0.09871327131986618, -0.15686267614364624, -0.31695684790611267, -0.002998113865032792, -0.003625273471698165, 0.9983670711517334, -1.6537127494812012, -4.119019985198975, -0.03094196878373623, 0.0, 0.0, 0.0, 0, 0, 0, 0, 0, 0, -1.6537127494812012, -4.119019985198975, -0.03094196878373623
16460, 0.033234670758247375, 0.005423243157565594, 0.16076748073101044, -0.027485810220241547, 0.27697980403900146, -0.014481213875114918, -0.003679920919239521, -0.0019338995916768909, 1.0020514726638794, -1.656227946281433, -4.125428676605225, -0.03101157397031784, 0.0, 0.0, 0.0, 0, 0, 0, 0, 0, 0, -1.656227946281433, -4.125428676605225, -0.03101157397031784
16470, 0.033160656690597534, 0.003043640172109008, 0.1618875414133072, 0.1051102802157402, -0.03788904845714569, 0.10136669129133224, -0.0022603156976401806, -0.002535544103011489, 1.0039640665054321, -1.6587464809417725, -4.131840229034424, -0.031080158427357674, 0.0, 0.0, 0.0, 0, 0, 0, 0, 0, 0, -1.6587464809417725, -4.131840229034424, -0.031080158427357674
16480, 0.033797163516283035, 0.001861273543909192, 0.1625136435031891, 0.035344578325748444, 0.13240081071853638, -0.0507260337471962, -0.004335551522672176, -0.004409184679389, 0.9989312291145325, -1.6612679958343506, -4.1382551193237305, -0.031146205961704254, 0.0, 0.0, 0.0, 0, 0, 0, 0, 0, 0, -1.6612679958343506, -4.1382551193237305, -0.031146205961704254
16490, 0.03403473272919655, 0.0013104885583743453, 0.16216516494750977, -0.01655537262558937, 0.01855073869228363, -0.2649907171726227, -0.003247384913265705, -0.006443560589104891, 0.9989405870437622, -1.6637929677963257, -4.144674301147461, -0.031211741268634796, 0.0, 0.0, 0.0, 0, 0, 0, 0, 0, 0, -1.6637929677963257, -4.144674301147461, -0.031211741268634796
16500, 0.03386803716421127, 0.001955657498911023, 0.16110263764858246, 0.13525164127349854, -0.27954423427581787, 0.1825760304927826, -0.002280391287058592, -0.003951088059693575, 0.9999778270721436, -1.6663216352462769, -4.15109920501709, -0.03127836063504219, 0.0, 0.0, 0.0, 0, 0, 0, 0, 0, 0, -1.6663216352462769, -4.15109920501709, -0.03127836063504219
16510, 0.03408591449260712, 0.002456394722685218, 0.1617392748594284, 0.13114938139915466, -0.035200078040361404, -0.06542066484689713, -0.0015577235026285052, -0.0030753829050809145, 0.9994527697563171, -1.6688528060913086, -4.157529354095459, -0.0313456691801548, 0.0, 0.0, 0.0, 0, 0, 0, 0, 0, 0, -1.6688528060913086, -4.157529354095459, -0.0313456691801548
16520, 0.035673242062330246, 0.003997412044554949, 0.160818949341774, 0.12750446796417236, -0.34451824426651, 0.09847027063369751, -0.0016931702848523855, -0.003453576471656561, 1.0004233121871948, -1.6713857650756836, -4.163963317871094, -0.031413283199071884, 0.0, 0.0, 0.0, 0, 0, 0, 0, 0, 0, -1.6713857650756836, -4.163963317871094, -0.031413283199071884
16530, 0.03439787030220032, 0.005395337473601103, 0.16181038320064545, -0.11732755601406097, -0.041508905589580536, -0.24763792753219604, -0.004331287462264299, -0.003842728678137064, 0.9995515942573547, -1.6741745471954346, -4.171044826507568, -0.031487613916397095, 0.0, 0.0, 0.0, 0, 0, 0, 0, 0, 0, -1.6741745471954346, -4.171044826507568, -0.031487613916397095
16540, 0.03393425792455673, 0.0055676838383078575, 0.16164624691009521, 0.03829176723957062, 0.17115750908851624, -0.1854998767375946, -0.0018892342923209071, -0.004207896534353495, 1.0001840591430664, -1.6769670248031616, -4.178131580352783, -0.03156208246946335, 0.0, 0.0, 0.0, 0, 0, 0, 0, 0, 0, -1.6769670248031616, -4.178131580352783, -0.03156208246946335
16550, 0.03385242819786072, 0.00366435875184834, 0.16213394701480865, -0.08049893379211426, 0.05731327086687088, -0.16987381875514984, -0.0028724963776767254, -0.00376608083024621, 0.9997658133506775, -1.6769670248031616, -4.178131580352783, -0.03156208246946335, 0.0, 0.0, 0.0, 0, 0, 0, 0, 0, 0, -1.6797630786895752, -4.185223579406738, -0.03163684159517288
16560, 0.03385312110185623, 0.003155332989990711, 0.16200481355190277, 0.09024559706449509, 0.09778701514005661, 0.25548237562179565, 0.00046012664097361267, -0.004572262521833181, 0.9989929795265198, -1.6797630786895752, -4.185223579406738, -0.03163684159517288, 0.0, 0.0, 0.0, 0, 0, 0, 0, 0, 0, -1.6823070049285889, -4.191675186157227, -0.03170504793524742
16570, 0.0336151085793972, 0.00281984219327569, 0.16174623370170593, 0.13569238781929016, 0.011813152581453323, -0.1130175068974495, -0.0009341721888631582, -0.00424217339605093, 0.9990782737731934, -1.6823070049285889, -4.191675186157227, -0.03170504793524742, 0.0, 0.0, 0.0, 0, 0, 0, 0, 0, 0, -1.6848517656326294, -4.198131561279297, -0.03177409991621971
16580, 0.03286076709628105, -0.0007550634327344596, 0.16172099113464355, -0.15068575739860535, 0.45131802558898926, -0.13640832901000977, -0.0018673648592084646, -0.00487673282623291, 1.0031858682632446, -1.6848517656326294, -4.198131561279297, -0.03177409991621971, 0.0, 0.0, 0.0, 0, 0, 0, 0, 0, 0, -1.6873975992202759, -4.204592704772949, -0.03184298798441887
16590, 0.032822251319885254, -0.0009164090151898563, 0.16271215677261353, 0.09782996028661728, 0.09225155413150787, 0.05736522749066353, -0.0022148999851197004, -0.004220064729452133, 1.0005513429641724, -1.6873975992202759, -4.204592704772949, -0.03184298798441887, 0.0, 0.0, 0.0, 0, 0, 0, 0, 0, 0, -1.689945101737976, -4.211058616638184, -0.03190997987985611
16600, 0.03157288581132889, 0.000173107604496181, 0.16283349692821503, -0.20516113936901093, -0.13213442265987396, 0.14127445220947266, -0.0012243669480085373, -0.003481348278000951, 0.9992804527282715, -1.689945101737976, -4.211058616638184, -0.03190997987985611, 0.0, 0.0, 0.0, 0, 0, 0, 0, 0, 0, -1.6924943923950195, -4.217529296875, -0.03197642043232918
16610, 0.03257359564304352, 0.0009181565837934613, 0.16425280272960663, 0.04306526109576225, -0.036713797599077225, 0.2233869433403015, -0.0018527457723394036, -0.005750193726271391, 0.9981388449668884, -1.6924943923950195, -4.217529296875, -0.03197642043232918, 0.0, 0.0, 0.0, 0, 0, 0, 0, 0, 0, -1.6950453519821167, -4.22400426864624, -0.032044123858213425
16620, 0.032263580709695816, 0.0004000025801360607, 0.16498421132564545, -0.10528474301099777, 0.1763143688440323, 0.017107218503952026, -0.00046288513112813234, -0.007512214593589306, 0.9993177652359009, -1.6950453519821167, -4.22400426864624, -0.032044123858213425, 0.0, 0.0, 0.0, 0, 0, 0, 0, 0, 0, -1.6975977420806885, -4.230485439300537, -0.03211309760808945
16630, 0.0331968255341053, 0.000875761907082051, 0.1652398556470871, 0.07874979078769684, 0.010168971493840218, -0.24388836324214935, -0.00186230952385813, -0.00571579672396183, 0.9997565746307373, -1.6975977420806885, -4.230485439300537, -0.03211309760808945, 0.0, 0.0, 0.0, 0, 0, 0, 0, 0, 0, -1.7001514434814453, -4.236973762512207, -0.03218294307589531
16640, 0.03370317816734314, 0.00018302501121070236, 0.16593076288700104, 0.26185813546180725, 0.010034414939582348, 0.17734552919864655, -0.0013288073241710663, -0.004236133303493261, 0.9988933801651001, -1.7001514434814453, -4.236973762512207, -0.03218294307589531, 0.0, 0.0, 0.0, 0, 0, 0, 0, 0, 0, -1.7027069330215454, -4.243468284606934, -0.032253533601760864
16650, 0.03433425351977348, 0.0009339325479231775, 0.16539737582206726, 0.07977012544870377, -0.3619980812072754, -0.16774530708789825, -0.0010450870031490922, -0.0027743091341108084, 1.0003066062927246, -1.7027069330215454, -4.243468284606934, -0.032253533601760864, 0.0, 0.0, 0.0, 0, 0, 0, 0, 0, 0, -1.7052638530731201, -4.249967098236084, -0.03232463449239731
16660, 0.03482035547494888, 0.00045634867274202406, 0.16566309332847595, 0.2148427516222, -0.005855225957930088, 0.12411638349294662, 0.0008835989865474403, -0.004650499671697617, 0.9992058277130127, -1.7052638530731201, -4.249967098236084, -0.03232463449239731, 0.0, 0.0, 0.0, 0, 0, 0, 0, 0, 0, -1.707821249961853, -4.256470203399658, -0.032396022230386734
16670, 0.034136995673179626, -0.0023185706231743097, 0.1661371886730194, -0.05914008617401123, 0.23364123702049255, -0.03466154634952545, -0.0015231609577313066, -0.004922446329146624, 0.9982218146324158, -1.707821249961853, -4.256470203399658, -0.032396022230386734, 0.0, 0.0, 0.0, 0, 0, 0, 0, 0, 0, -1.7103787660598755, -4.262977600097656, -0.032468199729919434
16680, 0.03475583717226982, -0.0032881530933082104, 0.167759969830513, 0.2892511785030365, 0.11729170382022858, 0.39656901359558105, -0.002637333469465375, -0.005195785779505968, 0.9983705878257751, -1.7103787660598755, -4.262977600097656, -0.032468199729919434, 0.0, 0.0, 0.0, 0, 0, 0, 0, 0, 0, -1.712937593460083, -4.269490718841553, -0.03254172205924988
16690, 0.03433188796043396, -0.00207946146838367, 0.16893506050109863, -0.051930662244558334, -0.18261857330799103, 0.1252170354127884, -0.0024687270633876324, -0.004726490471512079, 0.9994208812713623, -1.712937593460083, -4.269490718841553, -0.03254172205924988, 0.0, 0.0, 0.0, 0, 0, 0, 0, 0, 0, -1.7154985666275024, -4.276009559631348, -0.032616518437862396
16700, 0.034397125244140625, -0.00045239223982207477, 0.17003965377807617, 0.00576476426795125, -0.35303378105163574, 0.09125618636608124, -0.002651575719937682, -0.0043072160333395, 1.001112461090088, -1.7154985666275024, -4.276009559631348, -0.032616518437862396, 0.0, 0.0, 0.0, 0, 0, 0, 0, 0, 0, -1.718061923980713, -4.282533168792725, -0.032691579312086105
16710, 0.03375574201345444, 0.0006047616479918361, 0.17059944570064545, -0.1928696632385254, 0.193381205201149, 0.10349272191524506, -0.0024114553816616535, -0.004858049564063549, 0.9985880851745605, -1.718061923980713, -4.282533168792725, -0.032691579312086105, 0.0, 0.0, 0.0, 0, 0, 0, 0, 0, 0, -1.7206279039382935, -4.289061546325684, -0.03276677429676056
16720, 0.03490491211414337, -0.0007810991373844445, 0.17102301120758057, 0.3009893298149109, 0.03324032574892044, -0.02307485044002533, -0.0018175033619627357, -0.004592297598719597, 1.0012767314910889, -1.7206279039382935, -4.289061546325684, -0.03276677429676056, 0.0, 0.0, 0.0, 0, 0, 0, 0, 0, 0, -1.7231959104537964, -4.295595645904541, -0.03284240514039993
16730, 0.03558794781565666, -0.00024140185269061476, 0.17102620005607605, 0.05141640082001686, -0.2121928334236145, -0.010319777764379978, -0.0025254387874156237, -0.005040544550865889, 1.0000571012496948, -1.7231959104537964, -4.295595645904541, -0.03284240514039993, 0.0, 0.0, 0.0, 0, 0, 0, 0, 0, 0, -1.7257657051086426, -4.302134990692139, -0.032917510718107224
16740, 0.03580749034881592, 0.001356387627311051, 0.16922074556350708, 0.06212250515818596, -0.051125239580869675, -0.17344576120376587, -0.0026999572291970253, -0.008523046039044857, 0.9986821413040161, -1.7257657051086426, -4.302134990692139, -0.032917510718107224, 0.0, 0.0, 0.0, 0, 0, 0, 0, 0, 0, -1.7283380031585693, -4.308680534362793, -0.03299275040626526
16750, 0.03596129268407822, 0.0026538586243987083, 0.17065496742725372, 0.018309438601136208, -0.18051858246326447, 0.08629749715328217, 0.0005644698976539075, -0.006044676527380943, 1.000259518623352, -1.7283380031585693, -4.308680534362793, -0.03299275040626526, 0.0, 0.0, 0.0, 0, 0, 0, 0, 0, 0, -1.7309119701385498, -4.315234184265137, -0.03306848555803299
16760, 0.036491621285676956, 0.0038925576955080032, 0.16993512213230133, 0.17452411353588104, -0.31751030683517456, -0.03007584437727928, -0.0019970410503447056, -0.0018987086368724704, 1.0014500617980957, -1.7309119701385498, -4.315234184265137, -0.03306848555803299, 0.0, 0.0, 0.0, 0, 0, 0, 0, 0, 0, -1.7334866523742676, -4.321793556213379, -0.03314339369535446
16770, 0.03581518679857254, 0.0024302953388541937, 0.17106792330741882, -0.1290716677904129, 0.1917995661497116, 0.15859557688236237, -0.00023811408027540892, 0.001253669848665595, 0.9989385604858398, -1.7334866523742676, -4.321793556213379, -0.03314339369535446, 0.0, 0.0, 0.0, 0, 0, 0, 0, 0, 0, -1.7360625267028809, -4.328354835510254, -0.03321804106235504
16780, 0.03669191896915436, 0.0013722579460591078, 0.1712062656879425, 0.07286060601472855, 0.08877739310264587, -0.056063212454319, -0.00035251473309472203, -0.002677055075764656, 0.998954713344574, -1.7360625267028809, -4.328354835510254, -0.03321804106235504, 0.0, 0.0, 0.0, 0, 0, 0, 0, 0, 0, -1.7386391162872314, -4.334917068481445, -0.03329336270689964
16790, 0.03659309819340706, -0.0011400646762922406, 0.1740739643573761, -0.005836643744260073, 0.40605562925338745, 0.3294175863265991, -0.0017312687123194337, -0.004130075220018625, 0.9979723691940308, -1.7386391162872314, -4.334917068481445, -0.03329336270689964, 0.0, 0.0, 0.0, 0, 0, 0, 0, 0, 0, -1.7412164211273193, -4.341482639312744, -0.03337012976408005
16800, 0.03671018034219742, -0.0017096922965720296, 0.1749979853630066, -0.06082656979560852, -0.018978925421833992, -0.039526987820863724, -0.0010120747610926628, -0.005192362237721682, 0.9979128837585449, -1.7412164211273193, -4.341482639312744, -0.03337012976408005, 0.0, 0.0, 0.0, 0, 0, 0, 0, 0, 0, -1.7437947988510132, -4.348052501678467, -0.03344893082976341
16810, 0.03590935468673706, -0.0015183590585365891, 0.17340116202831268, -0.06249210610985756, -0.06816895306110382, -0.050893425941467285, -0.0022746699396520853, -0.005488756578415632, 1.0011929273605347, -1.7437947988510132, -4.348052501678467, -0.03344893082976341, 0.0, 0.0, 0.0, 0, 0, 0, 0, 0, 0, -1.7463747262954712, -4.354628086090088, -0.033528707921504974
16820, 0.03509092330932617, -0.0020900671370327473, 0.17326335608959198, -0.08369138091802597, -0.12745647132396698, -0.016278930008411407, 0.00011690053361235186, -0.004101984668523073, 1.0033538341522217, -1.7463747262954712, -4.354628086090088, -0.033528707921504974, 0.0, 0.0, 0.0, 0, 0, 0, 0, 0, 0, -1.7489558458328247, -4.361208915710449, -0.03360701724886894
16830, 0.0340353325009346, -0.002518109977245331, 0.1740962713956833, -0.03598983958363533, -0.08798278123140335, 0.006441686302423477, 0.00024385460710618645, -0.005552676972001791, 0.9994698762893677, -1.7489558458328247, -4.361208915710449, -0.03360701724886894, 0.0, 0.0, 0.0, 0, 0, 0, 0, 0, 0, -1.7515373229980469, -4.367794990539551, -0.03368329256772995
16840, 0.03355352208018303, -0.004186807665973902, 0.17428655922412872, 0.006382134277373552, 0.2163865715265274, 0.10067220032215118, -0.0006549175013788044, -0.0044400631450116634, 0.9984424710273743, -1.7515373229980469, -4.367794990539551, -0.03368329256772995, 0.0, 0.0, 0.0, 0, 0, 0, 0, 0, 0, -1.7541189193725586, -4.374386310577393, -0.0337599515914917
16850, 0.03417505323886871, -0.007165915332734585, 0.17530924081802368, 0.014984612353146076, 0.2599828839302063, 0.04371592029929161, -0.0023046862334012985, -0.0028563414234668016, 1.0021189451217651, -1.7541189193725586, -4.374386310577393, -0.0337599515914917, 0.0, 0.0, 0.0, 0, 0, 0, 0, 0, 0, -1.7567013502120972, -4.380982398986816, -0.03383692353963852
16860, 0.03464984521269798, -0.004765788558870554, 0.17401187121868134, -0.0026657097041606903, -0.08613592386245728, 0.04815920069813728, -0.002039474667981267, -0.0026552462950348854, 0.9997197389602661, -1.7567013502120972, -4.380982398986816, -0.03383692353963852, 0.0, 0.0, 0.0, 0, 0, 0, 0, 0, 0, -1.759285569190979, -4.387581825256348, -0.03391308709979057
16870, 0.03426939994096756, -0.004063862841576338, 0.17305409908294678, -0.060494646430015564, 0.10063095390796661, -0.1905170977115631, -0.002877695020288229, -0.004663500003516674, 1.0004863739013672, -1.759285569190979, -4.387581825256348, -0.03391308709979057, 0.0, 0.0, 0.0, 0, 0, 0, 0, 0, 0, -1.7618716955184937, -4.3941850662231445, -0.033988919109106064
16880, 0.03408228978514671, -0.004421170800924301, 0.17234526574611664, -0.08216430991888046, 0.13412246108055115, -0.21646130084991455, -0.004903349094092846, -0.005696543026715517, 1.001934289932251, -1.7618716955184937, -4.3941850662231445, -0.033988919109106064, 0.0, 0.0, 0.0, 0, 0, 0, 0, 0, 0, -1.7644610404968262, -4.400793552398682, -0.03406393155455589
16890, 0.034252773970365524, -0.005884082056581974, 0.1735738068819046, -0.033855535089969635, -0.045259326696395874, 0.2651537358760834, -0.0020876338239759207, -0.006743315607309341, 1.0002882480621338, -1.7644610404968262, -4.400793552398682, -0.03406393155455589, 0.0, 0.0, 0.0, 0, 0, 0, 0, 0, 0, -1.7670540809631348, -4.407408237457275, -0.03413793444633484
16900, 0.03389374539256096, -0.007052663713693619, 0.17420388758182526, -0.07112184911966324, 0.07330947369337082, 0.1277332603931427, -0.0011104205623269081, -0.0033655527513474226, 1.0009090900421143, -1.7670540809631348, -4.407408237457275, -0.03413793444633484, 0.0, 0.0, 0.0, 0, 0, 0, 0, 0, 0, -1.7696490287780762, -4.414029121398926, -0.03421109914779663
16910, 0.03386850655078888, -0.008013034239411354, 0.17463333904743195, 0.0760582685470581, 0.1767304390668869, 0.05467604473233223, -0.0024607935920357704, -0.002402132609859109, 0.9997972249984741, -1.7696490287780762, -4.414029121398926, -0.03421109914779663, 0.0, 0.0, 0.0, 0, 0, 0, 0, 0, 0, -1.7722454071044922, -4.420654296875, -0.03428385406732559
16920, 0.03350706771016121, -0.006780905649065971, 0.1742996871471405, -0.10353819280862808, -0.08726651966571808, -0.0775345042347908, 0.000788286270108074, -0.0014919120585545897, 1.0010261535644531, -1.7722454071044922, -4.420654296875, -0.03428385406732559, 0.0, 0.0, 0.0, 0, 0, 0, 0, 0, 0, -1.7748430967330933, -4.427282333374023, -0.034356195479631424
16930, 0.03291429951786995, -0.0069948602467775345, 0.17479075491428375, -0.20175474882125854, 0.21471652388572693, 0.18724292516708374, -0.0008686293731443584, -0.0027210486587136984, 0.9981648325920105, -1.7748430967330933, -4.427282333374023, -0.034356195479631424, 0.0, 0.0, 0.0, 0, 0, 0, 0, 0, 0, -1.7774407863616943, -4.43391227722168, -0.03442840278148651
16940, 0.03302033245563507, -0.005712682381272316, 0.17564691603183746, -0.06182428076863289, -0.08143215626478195, 0.11871585994958878, -0.0004618882085196674, -0.004632006864994764, 0.9978888034820557, -1.7774407863616943, -4.43391227722168, -0.03442840278148651, 0.0, 0.0, 0.0, 0, 0, 0, 0, 0, 0, -1.7800387144088745, -4.440546035766602, -0.03450211510062218
