timeTick, roll, pitch, yaw, gyroX, gyroY, gyroZ, accX, accY, accZ, stateX, stateY, stateZ, target_x, target_y, target_z, otX, otY, otZ, otRoll, otPitch, otYaw, kalX, kalY, kalZ
12520, -0.0781562328338623, -0.03690620884299278, -0.007728200871497393, 0, 0, 0, 0, 0, 0, 0, 0, 0, 0, 0, 0, 0, 0, 0, 0, 0, 0, 0, 0, 0
12530, -0.07823847234249115, -0.039623916149139404, -0.006755375303328037, 0.042921338230371475, 0.09382390230894089, 0.1656418889760971, -0.0021399918477982283, -0.003721012733876705, 0.9992179274559021, -0.1942390501499176, -2.2746081352233887, -0.15195459127426147, 0.0, 0.0, 0.0, 0, 0, 0, 0, 0, 0, -0.1942390501499176, -2.2746081352233887, -0.15195459127426147
12540, -0.07673617452383041, -0.04012487828731537, -0.005381206050515175, 0.24892517924308777, -0.02913689985871315, 0.1455850601196289, -0.0018215257441625, -0.005525798536837101, 0.9976974725723267, -0.19456548988819122, -2.2792603969573975, -0.1522851586341858, 0.0, 0.0, 0.0, 0, 0, 0, 0, 0, 0, -0.19456548988819122, -2.2792603969573975, -0.1522851586341858
12550, -0.07681844383478165, -0.04103103652596474, -0.003925411496311426, 0.008268347010016441, 0.2627830505371094, 0.1181950494647026, -0.0015782183036208153, -0.0070169358514249325, 1.0000375509262085, -0.19489295780658722, -2.2839155197143555, -0.15261732041835785, 0.0, 0.0, 0.0, 0, 0, 0, 0, 0, 0, -0.19489295780658722, -2.2839155197143555, -0.15261732041835785
12560, -0.0769122987985611, -0.042916275560855865, -0.00552369374781847, -0.0628206878900528, 0.3226982355117798, -0.24599838256835938, 0.00031607551500201225, -0.0063086021691560745, 1.0011621713638306, -0.19522109627723694, -2.2885751724243164, -0.15295062959194183, 0.0, 0.0, 0.0, 0, 0, 0, 0, 0, 0, -0.19522109627723694, -2.2885751724243164, -0.15295062959194183
12570, -0.07740678638219833, -0.0426211878657341, -0.00580798601731658, 0.11072542518377304, 0.0032456570770591497, 0.09911520034074783, -0.0006621485808864236, -0.005865811835974455, 1.000479817390442, -0.19554926455020905, -2.2932400703430176, -0.15328377485275269, 0.0, 0.0, 0.0, 0, 0, 0, 0, 0, 0, -0.19554926455020905, -2.2932400703430176, -0.15328377485275269
12580, -0.07773633301258087, -0.04255412891507149, -0.0057612149976193905, -0.031101509928703308, 0.07334068417549133, -0.00507122278213501, -0.000812299083918333, -0.007581179961562157, 0.999096155166626, -0.19587679207324982, -2.297909736633301, -0.1536160409450531, 0.0, 0.0, 0.0, 0, 0, 0, 0, 0, 0, -0.19587679207324982, -2.297909736633301, -0.1536160409450531
12590, -0.0773233026266098, -0.044332582503557205, -0.004925981163978577, 0.06397903710603714, 0.44496774673461914, -0.04527436941862106, -0.0012987935915589333, -0.006705683656036854, 0.9990634322166443, -0.19620415568351746, -2.302584648132324, -0.15394805371761322, 0.0, 0.0, 0.0, 0, 0, 0, 0, 0, 0, -0.19620415568351746, -2.302584648132324, -0.15394805371761322
12600, -0.07780729234218597, -0.04198713228106499, -0.003824092447757721, -0.08811222016811371, -0.3639242947101593, -0.03234940767288208, 0.00045995201799087226, -0.00551572535187006, 1.0013903379440308, -0.1965319812297821, -2.307265281677246, -0.1542806774377823, 0.0, 0.0, 0.0, 0, 0, 0, 0, 0, 0, -0.1965319812297821, -2.307265281677246, -0.1542806774377823
12610, -0.07733539491891861, -0.04205668717622757, -0.003985190764069557, 0.08989894390106201, -0.12322644889354706, -0.032045625150203705, -0.0010005870135501027, -0.006600643042474985, 1.0019861459732056, -0.19685976207256317, -2.311950922012329, -0.1546132117509842, 0.0, 0.0, 0.0, 0, 0, 0, 0, 0, 0, -0.19685976207256317, -2.311950922012329, -0.1546132117509842
12620, -0.07781238853931427, -0.04394999146461487, -0.004484571982175112, -0.022355016320943832, 0.19698119163513184, -0.10124513506889343, -0.000568387215025723, -0.004191363696008921, 1.0014060735702515, -0.19718720018863678, -2.316641092300415, -0.15494441986083984, 0.0, 0.0, 0.0, 0, 0, 0, 0, 0, 0, -0.19718720018863678, -2.316641092300415, -0.15494441986083984
12630, -0.078187495470047, -0.04436682537198067, -0.004023308865725994, -0.0034054091665893793, 0.11555604636669159, 0.022738516330718994, -0.00030516591505147517, -0.006470823660492897, 0.9990107417106628, -0.19751480221748352, -2.3213350772857666, -0.15527412295341492, 0.0, 0.0, 0.0, 0, 0, 0, 0, 0, 0, -0.19751480221748352, -2.3213350772857666, -0.15527412295341492
12640, -0.07835625857114792, -0.042925845831632614, -0.004830802790820599, 0.07109236717224121, -0.26100805401802063, -0.17213581502437592, -0.0003724249836523086, -0.005573928356170654, 0.9996290802955627, -0.19784234464168549, -2.326033115386963, -0.15560349822044373, 0.0, 0.0, 0.0, 0, 0, 0, 0, 0, 0, -0.19784234464168549, -2.326033115386963, -0.15560349822044373
12650, -0.07897365093231201, -0.041156839579343796, -0.005058120936155319, 0.007018596865236759, -0.04812220484018326, -0.033354029059410095, -0.0015722489915788174, -0.005780851934105158, 1.0001897811889648, -0.19816961884498596, -2.330735921859741, -0.1559334397315979, 0.0, 0.0, 0.0, 0, 0, 0, 0, 0, 0, -0.19816961884498596, -2.330735921859741, -0.1559334397315979
12660, -0.07986443489789963, -0.042311228811740875, -0.0055439346469938755, -0.16521982848644257, 0.06942512094974518, -0.17855995893478394, -0.0018488942878320813, -0.006388292647898197, 1.0004462003707886, -0.19849711656570435, -2.3354432582855225, -0.15626369416713715, 0.0, 0.0, 0.0, 0, 0, 0, 0, 0, 0, -0.19849711656570435, -2.3354432582855225, -0.15626369416713715
12670, -0.08013515919446945, -0.04359623044729233, -0.004982432350516319, 0.07245589047670364, -0.007538107689470053, -0.11064218729734421, -0.00035370149998925626, -0.008608418516814709, 1.0012297630310059, -0.19882544875144958, -2.3401551246643066, -0.156593918800354, 0.0, 0.0, 0.0, 0, 0, 0, 0, 0, 0, -0.19882544875144958, -2.3401551246643066, -0.156593918800354
12680, -0.08096269518136978, -0.04419063404202461, -0.004875443875789642, -0.1195109561085701, 0.1836872398853302, 0.14709153771400452, -0.00014504110731650144, -0.005225496832281351, 1.0017365217208862, -0.19915436208248138, -2.3448727130889893, -0.15692336857318878, 0.0, 0.0, 0.0, 0, 0, 0, 0, 0, 0, -0.19915436208248138, -2.3448727130889893, -0.15692336857318878
12690, -0.08069752901792526, -0.04344606027007103, -0.005006748251616955, 0.037593986839056015, -0.0433323048055172, 0.017470117658376694, 0.001263874932192266, -0.0060388450510799885, 1.0003175735473633, -0.19948317110538483, -2.3495960235595703, -0.15725144743919373, 0.0, 0.0, 0.0, 0, 0, 0, 0, 0, 0, -0.19948317110538483, -2.3495960235595703, -0.15725144743919373
12700, -0.07985222339630127, -0.043019913136959076, -0.00485231401398778, 0.13373610377311707, 0.146742582321167, -0.017003055661916733, -0.0008673852425999939, -0.0064082397148013115, 0.998607873916626, -0.19981113076210022, -2.3543238639831543, -0.1575784534215927, 0.0, 0.0, 0.0, 0, 0, 0, 0, 0, 0, -0.19981113076210022, -2.3543238639831543, -0.1575784534215927
12710, -0.08064740151166916, -0.04362529143691063, -0.0038528400473296642, -0.09476791322231293, 0.08027729392051697, 0.3074706196784973, 0.000712057575583458, -0.005589757114648819, 0.9975772500038147, -0.20013825595378876, -2.359056234359741, -0.15790556371212006, 0.0, 0.0, 0.0, 0, 0, 0, 0, 0, 0, -0.20013825595378876, -2.359056234359741, -0.15790556371212006
12720, -0.0800936296582222, -0.04210614785552025, -0.005819505546241999, 0.07441379129886627, -0.2634734511375427, -0.2216273695230484, -0.0008052866905927658, -0.00418031495064497, 1.000156044960022, -0.20046482980251312, -2.36379337310791, -0.1582343578338623, 0.0, 0.0, 0.0, 0, 0, 0, 0, 0, 0, -0.20046482980251312, -2.36379337310791, -0.1582343578338623
12730, -0.0801781639456749, -0.04153063893318176, -0.004978012293577194, -0.06458678841590881, -0.04662865400314331, 0.10501524060964584, -0.001564039965160191, -0.006741082761436701, 1.0008476972579956, -0.2007906585931778, -2.3685343265533447, -0.1585644632577896, 0.0, 0.0, 0.0, 0, 0, 0, 0, 0, 0, -0.2007906585931778, -2.3685343265533447, -0.1585644632577896
12740, -0.08001255244016647, -0.04122335463762283, -0.004887969698756933, -0.015892887488007545, 0.06756184995174408, 0.09026321768760681, -0.0011163540184497833, -0.004600368905812502, 1.0006412267684937, -0.2011164128780365, -2.373279094696045, -0.1588945984840393, 0.0, 0.0, 0.0, 0, 0, 0, 0, 0, 0, -0.2011164128780365, -2.373279094696045, -0.1588945984840393
12750, -0.08007548004388809, -0.039642296731472015, -0.004021754022687674, -0.04086277633905411, -0.2630883753299713, 0.005198080558329821, -0.0010261150309816003, -0.0053556072525680065, 1.0010850429534912, -0.20147530734539032, -2.3785030841827393, -0.15925711393356323, 0.0, 0.0, 0.0, 0, 0, 0, 0, 0, 0, -0.20147530734539032, -2.3785030841827393, -0.15925711393356323
12760, -0.07997437566518784, -0.04071050137281418, -0.0034786153119057417, -0.09397461265325546, 0.31463390588760376, 0.11913245916366577, -0.0027070583309978247, -0.005056669935584068, 1.000998854637146, -0.20183463394641876, -2.3837318420410156, -0.15961861610412598, 0.0, 0.0, 0.0, 0, 0, 0, 0, 0, 0, -0.20183463394641876, -2.3837318420410156, -0.15961861610412598
12770, -0.08033138513565063, -0.03982549160718918, -0.005700547713786364, -0.05992277339100838, 0.08292817324399948, -0.2654845416545868, -0.001648020464926958, -0.0054713049903512, 1.0029171705245972, -0.20216231048107147, -2.388489007949829, -0.15994617342948914, 0.0, 0.0, 0.0, 0, 0, 0, 0, 0, 0, -0.20216231048107147, -2.388489007949829, -0.15994617342948914
12780, -0.07950282096862793, -0.041733745485544205, -0.00526411971077323, 0.16263151168823242, 0.1840163916349411, 0.11563385277986526, -0.001198138459585607, -0.00438293069601059, 1.001011848449707, -0.2024911493062973, -2.393249988555908, -0.1602717638015747, 0.0, 0.0, 0.0, 0, 0, 0, 0, 0, 0, -0.2024911493062973, -2.393249988555908, -0.1602717638015747
12790, -0.0790570080280304, -0.040625203400850296, -0.005848151631653309, 0.10263315588235855, -0.12470503151416779, -0.07751459628343582, -0.0011814943281933665, -0.005530618131160736, 1.0012277364730835, -0.20282061398029327, -2.3980143070220947, -0.16059543192386627, 0.0, 0.0, 0.0, 0, 0, 0, 0, 0, 0, -0.20282061398029327, -2.3980143070220947, -0.16059543192386627
12800, -0.07846119999885559, -0.04040896147489548, -0.005937593523412943, 0.024262012913823128, -0.14554676413536072, 0.010059886611998081, 0.00037819609860889614, -0.007091750856488943, 1.0017248392105103, -0.20315062999725342, -2.4027822017669678, -0.16091784834861755, 0.0, 0.0, 0.0, 0, 0, 0, 0, 0, 0, -0.20315062999725342, -2.4027822017669678, -0.16091784834861755
12810, -0.07778864353895187, -0.03876719996333122, -0.004667036235332489, 0.12917515635490417, -0.08188454806804657, 0.3801863491535187, -0.003402932081371546, -0.006588323041796684, 0.9998039603233337, -0.20348064601421356, -2.407555103302002, -0.16123895347118378, 0.0, 0.0, 0.0, 0, 0, 0, 0, 0, 0, -0.20348064601421356, -2.407555103302002, -0.16123895347118378
12820, -0.07759816199541092, -0.03794711455702782, -0.003978711552917957, 0.13627728819847107, -0.1869884878396988, -0.04219859838485718, -0.002453516935929656, -0.0039774575270712376, 0.9985854625701904, -0.20381169021129608, -2.4123334884643555, -0.16155950725078583, 0.0, 0.0, 0.0, 0, 0, 0, 0, 0, 0, -0.20381169021129608, -2.4123334884643555, -0.16155950725078583
12830, -0.076735720038414, -0.037076421082019806, -0.00431250873953104, 0.07508533447980881, 0.1581423133611679, 0.03786996752023697, -0.0013388287043198943, -0.003342750482261181, 0.9995734095573425, -0.20414504408836365, -2.4171156883239746, -0.16188077628612518, 0.0, 0.0, 0.0, 0, 0, 0, 0, 0, 0, -0.20414504408836365, -2.4171156883239746, -0.16188077628612518
12840, -0.0772174596786499, -0.03672127053141594, -0.003388094250112772, 0.10431516915559769, 0.07362444698810577, 0.13045790791511536, 0.0009295989293605089, -0.004300330765545368, 0.9995636343955994, -0.2044796496629715, -2.4219002723693848, -0.16220298409461975, 0.0, 0.0, 0.0, 0, 0, 0, 0, 0, 0, -0.2044796496629715, -2.4219002723693848, -0.16220298409461975
12850, -0.07846390455961227, -0.03768017515540123, -0.004128106404095888, -0.2262454628944397, 0.10522958636283875, -0.10193070769309998, 0.00045759891509078443, -0.005405000410974026, 1.0003029108047485, -0.2048138529062271, -2.426687479019165, -0.16252565383911133, 0.0, 0.0, 0.0, 0, 0, 0, 0, 0, 0, -0.2048138529062271, -2.426687479019165, -0.16252565383911133
12860, -0.07892771065235138, -0.03590397164225578, -0.003940393216907978, 0.06579325348138809, -0.377582311630249, -0.1028602346777916, 0.0002509390760678798, -0.00818293634802103, 0.9995672702789307, -0.2051469087600708, -2.431478261947632, -0.16284851729869843, 0.0, 0.0, 0.0, 0, 0, 0, 0, 0, 0, -0.2051469087600708, -2.431478261947632, -0.16284851729869843
12870, -0.07813049852848053, -0.035886071622371674, -0.0041515459306538105, 0.08466820418834686, 0.25901734828948975, 0.050908856093883514, -0.0021116917487233877, -0.008525156415998936, 0.9977585077285767, -0.20547904074192047, -2.436274290084839, -0.1631718873977661, 0.0, 0.0, 0.0, 0, 0, 0, 0, 0, 0, -0.20547904074192047, -2.436274290084839, -0.1631718873977661
12880, -0.07921335101127625, -0.036243218928575516, -0.0041342126205563545, -0.2909398674964905, 0.160134956240654, 0.025626888498663902, -0.002111290115863085, -0.006848020013421774, 0.999636709690094, -0.20581145584583282, -2.4410769939422607, -0.16349686682224274, 0.0, 0.0, 0.0, 0, 0, 0, 0, 0, 0, -0.20581145584583282, -2.4410769939422607, -0.16349686682224274
12890, -0.07850238680839539, -0.03544703871011734, -0.0046744742430746555, 0.04598110541701317, -0.040863774716854095, 0.004646969959139824, -0.0024214384611696005, -0.005200798623263836, 0.9989942312240601, -0.206145241856575, -2.4458858966827393, -0.16382326185703278, 0.0, 0.0, 0.0, 0, 0, 0, 0, 0, 0, -0.206145241856575, -2.4458858966827393, -0.16382326185703278
12900, -0.07865728437900543, -0.03455446660518646, -0.003989305347204208, -0.02591485157608986, -0.19715666770935059, 0.0790419727563858, -0.001976577565073967, -0.004563846625387669, 0.9999816417694092, -0.20648057758808136, -2.4506993293762207, -0.164150208234787, 0.0, 0.0, 0.0, 0, 0, 0, 0, 0, 0, -0.20648057758808136, -2.4506993293762207, -0.164150208234787
12910, -0.07936260849237442, -0.03492681309580803, -0.0045349691063165665, -0.19169826805591583, 0.13607925176620483, -2.0789675545529462e-05, -0.00020576965471263975, -0.006667844019830227, 0.999809980392456, -0.2068174034357071, -2.4555163383483887, -0.16447745263576508, 0.0, 0.0, 0.0, 0, 0, 0, 0, 0, 0, -0.2068174034357071, -2.4555163383483887, -0.16447745263576508
12920, -0.07972823083400726, -0.037277769297361374, -0.005025367718189955, -0.06967836618423462, 0.1607305258512497, 0.09320767223834991, 1.1368351806595456e-05, -0.008007177151739597, 1.0004632472991943, -0.20715469121932983, -2.4603378772735596, -0.1648048311471939, 0.0, 0.0, 0.0, 0, 0, 0, 0, 0, 0, -0.20715469121932983, -2.4603378772735596, -0.1648048311471939
12930, -0.08115644007921219, -0.038340725004673004, -0.005145128816366196, -0.1620911806821823, -0.02311243675649166, 0.04143655300140381, -0.0005257558077573776, -0.005510835908353329, 0.9987983107566833, -0.20749153196811676, -2.465165376663208, -0.16513226926326752, 0.0, 0.0, 0.0, 0, 0, 0, 0, 0, 0, -0.20749153196811676, -2.465165376663208, -0.16513226926326752
12940, -0.08175487071275711, -0.03695313632488251, -0.006182688754051924, -0.021012241020798683, -0.21758168935775757, -0.23651902377605438, -0.0012973466655239463, -0.007298784330487251, 0.9995213747024536, -0.2078281044960022, -2.4699981212615967, -0.1654602289199829, 0.0, 0.0, 0.0, 0, 0, 0, 0, 0, 0, -0.2078281044960022, -2.4699981212615967, -0.1654602289199829
12950, -0.08172527700662613, -0.03880014643073082, -0.006616003345698118, -0.060883477330207825, 0.24830414354801178, -0.06170453503727913, -0.0009994759457185864, -0.005978261586278677, 1.0005556344985962, -0.20816485583782196, -2.4748356342315674, -0.16578899323940277, 0.0, 0.0, 0.0, 0, 0, 0, 0, 0, 0, -0.20816485583782196, -2.4748356342315674, -0.16578899323940277
12960, -0.08178409188985825, -0.034404244273900986, -0.007226603105664253, -0.02560817450284958, -0.5917870998382568, -0.13677549362182617, -0.0006672471645288169, -0.003604724071919918, 1.0006788969039917, -0.20850197970867157, -2.47967791557312, -0.1661178022623062, 0.0, 0.0, 0.0, 0, 0, 0, 0, 0, 0, -0.20850197970867157, -2.47967791557312, -0.1661178022623062
12970, -0.08052519708871841, -0.03559672459959984, -0.007930559106171131, 0.1588156372308731, 0.1780880093574524, -0.040424514561891556, -0.0006328657036647201, -0.004202187992632389, 1.0011115074157715, -0.20883914828300476, -2.484523296356201, -0.16644597053527832, 0.0, 0.0, 0.0, 0, 0, 0, 0, 0, 0, -0.20883914828300476, -2.484523296356201, -0.16644597053527832
12980, -0.08208960294723511, -0.03207416087388992, -0.008523172698915005, -0.3827454149723053, -0.3484364449977875, -0.1994793713092804, -0.0019656987860798836, -0.007693324238061905, 0.99937504529953, -0.20917633175849915, -2.4893715381622314, -0.1667732298374176, 0.0, 0.0, 0.0, 0, 0, 0, 0, 0, 0, -0.20917633175849915, -2.4893715381622314, -0.1667732298374176
12990, -0.08198460191488266, -0.03282035142183304, -0.008300947025418282, -0.09634320437908173, 0.19248726963996887, 0.07237930595874786, -5.5342101404676214e-05, -0.006858448497951031, 0.9984307289123535, -0.20951418578624725, -2.4942243099212646, -0.16710029542446136, 0.0, 0.0, 0.0, 0, 0, 0, 0, 0, 0, -0.20951418578624725, -2.4942243099212646, -0.16710029542446136
13000, -0.08207940310239792, -0.03350004926323891, -0.010179053992033005, 0.043790560215711594, -0.003215826814994216, -0.2612409293651581, -0.0021363655105233192, -0.005709678865969181, 0.9996694326400757, -0.20985248684883118, -2.499082565307617, -0.16742819547653198, 0.0, 0.0, 0.0, 0, 0, 0, 0, 0, 0, -0.20985248684883118, -2.499082565307617, -0.16742819547653198
13010, -0.08219115436077118, -0.033938515931367874, -0.010089353658258915, 0.05377752706408501, -0.09678123891353607, 0.0329069159924984, -0.0016726682661101222, -0.006019767839461565, 1.0022430419921875, -0.21019135415554047, -2.5039455890655518, -0.16775675117969513, 0.0, 0.0, 0.0, 0, 0, 0, 0, 0, 0, -0.21019135415554047, -2.5039455890655518, -0.16775675117969513
13020, -0.08255093544721603, -0.03432074561715126, -0.010355038568377495, -0.012465684674680233, 0.13210821151733398, 0.02751109190285206, -0.0016884782817214727, -0.005322097335010767, 1.0007169246673584, -0.21053139865398407, -2.50881290435791, -0.16808442771434784, 0.0, 0.0, 0.0, 0, 0, 0, 0, 0, 0, -0.21053139865398407, -2.50881290435791, -0.16808442771434784
13030, -0.08222348988056183, -0.03342682123184204, -0.01090125273913145, -0.026078106835484505, -0.04546352103352547, -0.02628389373421669, -0.00222088024020195, -0.005671277642250061, 0.9999234080314636, -0.210872620344162, -2.5136842727661133, -0.1684107631444931, 0.0, 0.0, 0.0, 0, 0, 0, 0, 0, 0, -0.210872620344162, -2.5136842727661133, -0.1684107631444931
13040, -0.08365986496210098, -0.035226862877607346, -0.010732694528996944, -0.22584863007068634, 0.25629985332489014, -0.22281505167484283, -0.0002744155062828213, -0.003435075283050537, 1.0003732442855835, -0.21121519804000854, -2.518559455871582, -0.16873669624328613, 0.0, 0.0, 0.0, 0, 0, 0, 0, 0, 0, -0.21121519804000854, -2.518559455871582, -0.16873669624328613
13050, -0.08309848606586456, -0.03588269278407097, -0.010084080509841442, -1.0231217856926378e-05, -0.09687202423810959, -0.06442399322986603, -0.0009000045829452574, -0.004915900062769651, 0.9999392032623291, -0.21155838668346405, -2.523437976837158, -0.16906240582466125, 0.0, 0.0, 0.0, 0, 0, 0, 0, 0, 0, -0.21155838668346405, -2.523437976837158, -0.16906240582466125
13060, -0.08255530893802643, -0.03635266423225403, -0.009212421253323555, 0.18203726410865784, 0.010561622679233551, 0.14178726077079773, -0.0020280475728213787, -0.009237153455615044, 0.9981787204742432, -0.21190162003040314, -2.5283195972442627, -0.16938810050487518, 0.0, 0.0, 0.0, 0, 0, 0, 0, 0, 0, -0.21190162003040314, -2.5283195972442627, -0.16938810050487518
13070, -0.08247409015893936, -0.034624289721250534, -0.00941372662782669, 0.02393246628344059, -0.1248985081911087, -0.1740795373916626, -0.0010879309847950935, -0.006998701486736536, 1.0006340742111206, -0.21224558353424072, -2.5332067012786865, -0.16971455514431, 0.0, 0.0, 0.0, 0, 0, 0, 0, 0, 0, -0.21224558353424072, -2.5332067012786865, -0.16971455514431
13080, -0.08269722759723663, -0.03363354876637459, -0.008145871572196484, -0.05591363459825516, -0.11104179173707962, 0.19277699291706085, -0.002399957040324807, -0.005552766844630241, 0.998670220375061, -0.21259059011936188, -2.538100004196167, -0.17004148662090302, 0.0, 0.0, 0.0, 0, 0, 0, 0, 0, 0, -0.21259059011936188, -2.538100004196167, -0.17004148662090302
13090, -0.08300108462572098, -0.03355250880122185, -0.00820085871964693, -0.10589780658483505, 0.0907583013176918, -0.0042247409000992775, -0.0011232674587517977, -0.0026860330253839493, 1.0006791353225708, -0.21293692290782928, -2.5429980754852295, -0.17036879062652588, 0.0, 0.0, 0.0, 0, 0, 0, 0, 0, 0, -0.21293692290782928, -2.5429980754852295, -0.17036879062652588
13100, -0.08434796333312988, -0.034943293780088425, -0.008096102625131607, -0.1918575018644333, 0.10589507967233658, -0.022205498069524765, 0.0009586522355675697, -0.005664899479597807, 0.9998577237129211, -0.21328426897525787, -2.547898769378662, -0.17069636285305023, 0.0, 0.0, 0.0, 0, 0, 0, 0, 0, 0, -0.21328426897525787, -2.547898769378662, -0.17069636285305023
13110, -0.08411585539579391, -0.033805832266807556, -0.007100211456418037, 0.05822589993476868, -0.024794742465019226, 0.2850302755832672, 0.001092473859898746, -0.007944715209305286, 0.9981906414031982, -0.2136310338973999, -2.552802562713623, -0.17102378606796265, 0.0, 0.0, 0.0, 0, 0, 0, 0, 0, 0, -0.2136310338973999, -2.552802562713623, -0.17102378606796265
13120, -0.08422525227069855, -0.033945679664611816, -0.008099392056465149, 0.04394933208823204, 0.3140721321105957, -0.11718098819255829, -0.002064975444227457, -0.006486667785793543, 1.0006394386291504, -0.21397630870342255, -2.557711601257324, -0.17135190963745117, 0.0, 0.0, 0.0, 0, 0, 0, 0, 0, 0, -0.21397630870342255, -2.557711601257324, -0.17135190963745117
13130, -0.08496544510126114, -0.03418062627315521, -0.007539576385170221, -0.18319284915924072, -0.05611821636557579, 0.12023040652275085, -0.0014527708990499377, -0.005905613303184509, 0.9978020191192627, -0.21432127058506012, -2.5626261234283447, -0.1716805398464203, 0.0, 0.0, 0.0, 0, 0, 0, 0, 0, 0, -0.21432127058506012, -2.5626261234283447, -0.1716805398464203
13140, -0.08480491489171982, -0.034168317914009094, -0.007860627956688404, 0.06145384535193443, -0.11674655973911285, -0.058484047651290894, -0.0011303229257464409, -0.005906668491661549, 0.9989493489265442, -0.2146671563386917, -2.567545175552368, -0.1720101237297058, 0.0, 0.0, 0.0, 0, 0, 0, 0, 0, 0, -0.2146671563386917, -2.567545175552368, -0.1720101237297058
13150, -0.08465757966041565, -0.03595674782991409, -0.007980061694979668, -0.048875946551561356, 0.20881590247154236, 0.13921847939491272, 0.0006222656229510903, -0.0038129438180476427, 1.0027896165847778, -0.21501371264457703, -2.5724682807922363, -0.17234139144420624, 0.0, 0.0, 0.0, 0, 0, 0, 0, 0, 0, -0.21501371264457703, -2.5724682807922363, -0.17234139144420624
13160, -0.08455978333950043, -0.03526991978287697, -0.00835498608648777, -0.07506659626960754, -0.037276316434144974, 0.02930494397878647, 0.0004910050774924457, -0.00406642584130168, 0.9995534420013428, -0.21535994112491608, -2.577394485473633, -0.172672301530838, 0.0, 0.0, 0.0, 0, 0, 0, 0, 0, 0, -0.21535994112491608, -2.577394485473633, -0.172672301530838
13170, -0.08365845680236816, -0.03558222949504852, -0.009090320207178593, 0.02391223795711994, 0.11809883266687393, -0.0011504031717777252, 0.00037827398045919836, -0.0038513182662427425, 0.9981387853622437, -0.21570515632629395, -2.5823230743408203, -0.1730024218559265, 0.0, 0.0, 0.0, 0, 0, 0, 0, 0, 0, -0.21570515632629395, -2.5823230743408203, -0.1730024218559265
13180, -0.08384090662002563, -0.036230988800525665, -0.009139234200119972, -0.10717587918043137, 0.2249152809381485, 0.10386984050273895, 0.0009333780035376549, -0.004382518120110035, 1.000808596611023, -0.21604950726032257, -2.587254047393799, -0.17333351075649261, 0.0, 0.0, 0.0, 0, 0, 0, 0, 0, 0, -0.21604950726032257, -2.587254047393799, -0.17333351075649261
13190, -0.08443406224250793, -0.03564651682972908, -0.009581650607287884, -0.12912292778491974, -0.034350186586380005, -0.13082776963710785, 3.015064066858031e-05, -0.0053619337268173695, 1.0010443925857544, -0.21639268100261688, -2.5921874046325684, -0.17366504669189453, 0.0, 0.0, 0.0, 0, 0, 0, 0, 0, 0, -0.21639268100261688, -2.5921874046325684, -0.17366504669189453
13200, -0.08482346683740616, -0.03861169517040253, -0.009917279705405235, -0.03369995579123497, 0.2525637447834015, 0.0064319223165512085, -0.0007522222003899515, -0.006492605432868004, 0.9998051524162292, -0.21673473715782166, -2.597123861312866, -0.17399586737155914, 0.0, 0.0, 0.0, 0, 0, 0, 0, 0, 0, -0.21673473715782166, -2.597123861312866, -0.17399586737155914
13210, -0.08529608696699142, -0.03876102715730667, -0.010142700746655464, -0.06998557597398758, -0.005422954447567463, 0.07270485907793045, -0.0011973578948527575, -0.0065618823282420635, 0.999725878238678, -0.21707651019096375, -2.602064609527588, -0.1743263155221939, 0.0, 0.0, 0.0, 0, 0, 0, 0, 0, 0, -0.21707651019096375, -2.602064609527588, -0.1743263155221939
13220, -0.085633784532547, -0.03876124694943428, -0.009921072982251644, -0.19486458599567413, -0.1004977747797966, 0.01572505384683609, -0.0029309417586773634, -0.006070982664823532, 0.9984002709388733, -0.21741873025894165, -2.6070103645324707, -0.1746569573879242, 0.0, 0.0, 0.0, 0, 0, 0, 0, 0, 0, -0.21741873025894165, -2.6070103645324707, -0.1746569573879242
13230, -0.0845331996679306, -0.038841184228658676, -0.008263209834694862, 0.0630442351102829, 0.00396794592961669, 0.08369998633861542, -0.0010581965325400233, -0.006961083970963955, 0.998088538646698, -0.21776220202445984, -2.6119611263275146, -0.17498864233493805, 0.0, 0.0, 0.0, 0, 0, 0, 0, 0, 0, -0.21776220202445984, -2.6119611263275146, -0.17498864233493805
13240, -0.08426617085933685, -0.039392706006765366, -0.008010612800717354, 0.08783318847417831, 0.12661957740783691, -0.05854515731334686, 0.00020720760221593082, -0.008525448851287365, 0.9990483522415161, -0.2181067019701004, -2.6169168949127197, -0.17532199621200562, 0.0, 0.0, 0.0, 0, 0, 0, 0, 0, 0, -0.2181067019701004, -2.6169168949127197, -0.17532199621200562
13250, -0.08380663394927979, -0.03807559981942177, -0.009527950547635555, 0.07761020213365555, -0.2475203424692154, -0.10339698940515518, -0.00017666452913545072, -0.007196453399956226, 0.9979795217514038, -0.2184509038925171, -2.6218786239624023, -0.17565658688545227, 0.0, 0.0, 0.0, 0, 0, 0, 0, 0, 0, -0.2184509038925171, -2.6218786239624023, -0.17565658688545227
13260, -0.08369825035333633, -0.03854804113507271, -0.0087848836556077, 0.04215908795595169, 0.0914386585354805, 0.16688933968544006, -0.0011874260380864143, -0.007644775789231062, 0.9981561303138733, -0.21879445016384125, -2.6268463134765625, -0.17599253356456757, 0.0, 0.0, 0.0, 0, 0, 0, 0, 0, 0, -0.21879445016384125, -2.6268463134765625, -0.17599253356456757
13270, -0.08384895324707031, -0.0384666845202446, -0.0084800124168396, 0.002653634874150157, 0.02734830230474472, 0.14084109663963318, -0.0024577102158218622, -0.006662281230092049, 0.9981420040130615, -0.21913808584213257, -2.631819725036621, -0.17633022367954254, 0.0, 0.0, 0.0, 0, 0, 0, 0, 0, 0, -0.21913808584213257, -2.631819725036621, -0.17633022367954254
13280, -0.0843939259648323, -0.036990515887737274, -0.010406841523945332, -0.21163147687911987, -0.13757729530334473, -0.27604004740715027, -0.0010571145685389638, -0.005435046274214983, 0.9990976452827454, -0.21948277950286865, -2.63679838180542, -0.17666958272457123, 0.0, 0.0, 0.0, 0, 0, 0, 0, 0, 0, -0.21948277950286865, -2.63679838180542, -0.17666958272457123
13290, -0.08481541275978088, -0.03676434978842735, -0.012178028002381325, -0.003855200484395027, -0.03181125223636627, -0.23151619732379913, -0.00043201231164857745, -0.005338430870324373, 0.9976541996002197, -0.21982823312282562, -2.6417815685272217, -0.17701032757759094, 0.0, 0.0, 0.0, 0, 0, 0, 0, 0, 0, -0.21982823312282562, -2.6417815685272217, -0.17701032757759094
13300, -0.08510273694992065, -0.037415165454149246, -0.012255935929715633, -0.19955402612686157, 0.06340088695287704, -0.006696195341646671, -0.001230650581419468, -0.00676193181425333, 0.9989567399024963, -0.22017362713813782, -2.64676833152771, -0.17735271155834198, 0.0, 0.0, 0.0, 0, 0, 0, 0, 0, 0, -0.22017362713813782, -2.64676833152771, -0.17735271155834198
13310, -0.08519311249256134, -0.038969576358795166, -0.010971758514642715, -0.03988729044795036, 0.22460751235485077, 0.17250333726406097, -0.00022143985552247614, -0.009547918103635311, 0.9991269111633301, -0.2205190658569336, -2.651759624481201, -0.17769664525985718, 0.0, 0.0, 0.0, 0, 0, 0, 0, 0, 0, -0.2205190658569336, -2.651759624481201, -0.17769664525985718
13320, -0.08481734246015549, -0.03704836219549179, -0.012517920695245266, 0.09616046398878098, -0.2250639647245407, -0.2900658845901489, 0.0023314645513892174, -0.00613519549369812, 1.000367283821106, -0.2208641916513443, -2.656757116317749, -0.17804135382175446, 0.0, 0.0, 0.0, 0, 0, 0, 0, 0, 0, -0.2208641916513443, -2.656757116317749, -0.17804135382175446
13330, -0.08503257483243942, -0.035048775374889374, -0.01375918835401535, -0.1662280559539795, -0.33712896704673767, -0.11384069919586182, 0.0009969033999368548, -0.005111606325954199, 0.9983820915222168, -0.22120743989944458, -2.6617608070373535, -0.17838631570339203, 0.0, 0.0, 0.0, 0, 0, 0, 0, 0, 0, -0.22120743989944458, -2.6617608070373535, -0.17838631570339203
13340, -0.08535951375961304, -0.03558028116822243, -0.013332515023648739, 0.018733195960521698, 0.08681441098451614, 0.09695327281951904, -0.0001286533661186695, -0.004475460387766361, 0.9989188313484192, -0.22154851257801056, -2.6667685508728027, -0.17873196303844452, 0.0, 0.0, 0.0, 0, 0, 0, 0, 0, 0, -0.22154851257801056, -2.6667685508728027, -0.17873196303844452
13350, -0.08556314557790756, -0.03567808121442795, -0.013821134343743324, -0.02552773617208004, -0.010058915242552757, -0.037350866943597794, 0.001577698509208858, -0.002030628966167569, 1.0004738569259644, -0.22188857197761536, -2.6717793941497803, -0.17907890677452087, 0.0, 0.0, 0.0, 0, 0, 0, 0, 0, 0, -0.22188857197761536, -2.6717793941497803, -0.17907890677452087
13360, -0.08588918298482895, -0.03682271018624306, -0.012713010422885418, 0.0399889275431633, 0.20839086174964905, 0.2546193599700928, -0.0018781417747959495, -0.005018407944589853, 1.0006344318389893, -0.22222751379013062, -2.6767921447753906, -0.1794261485338211, 0.0, 0.0, 0.0, 0, 0, 0, 0, 0, 0, -0.22222751379013062, -2.6767921447753906, -0.1794261485338211
13370, -0.08710251748561859, -0.036285292357206345, -0.013549044728279114, -0.1388726383447647, 0.0497223436832428, -0.1421976089477539, -0.0012067328207194805, -0.008101467974483967, 0.99885094165802, -0.2225661277770996, -2.681807041168213, -0.17977288365364075, 0.0, 0.0, 0.0, 0, 0, 0, 0, 0, 0, -0.2225661277770996, -2.681807041168213, -0.17977288365364075
13380, -0.0874398872256279, -0.03634466230869293, -0.012527450919151306, -0.0802033543586731, 0.10481064021587372, 0.28049129247665405, -0.001395437982864678, -0.006833290681242943, 0.9990199208259583, -0.22290556132793427, -2.6868269443511963, -0.18011993169784546, 0.0, 0.0, 0.0, 0, 0, 0, 0, 0, 0, -0.22290556132793427, -2.6868269443511963, -0.18011993169784546
13390, -0.08827369660139084, -0.034856248646974564, -0.011866675689816475, -0.11115019768476486, 0.10370012372732162, 0.05551457405090332, -0.002554898615926504, -0.006452386267483234, 1.000776767730713, -0.22324568033218384, -2.691852569580078, -0.18046797811985016, 0.0, 0.0, 0.0, 0, 0, 0, 0, 0, 0, -0.22324568033218384, -2.691852569580078, -0.18046797811985016
13400, -0.08855702728033066, -0.03335317224264145, -0.01296488381922245, -0.14336645603179932, -0.23951472342014313, -0.14742152392864227, -0.0017884633271023631, -0.00602385587990284, 1.0024367570877075, -0.22358690202236176, -2.696883201599121, -0.1808159500360489, 0.0, 0.0, 0.0, 0, 0, 0, 0, 0, 0, -0.22358690202236176, -2.696883201599121, -0.1808159500360489
13410, -0.0887729674577713, -0.033088430762290955, -0.011349826119840145, -0.058356672525405884, 0.02740304544568062, 0.2613815367221832, 0.00010748598288046196, -0.006818301044404507, 1.0006848573684692, -0.2239292711019516, -2.701918601989746, -0.18116234242916107, 0.0, 0.0, 0.0, 0, 0, 0, 0, 0, 0, -0.2239292711019516, -2.701918601989746, -0.18116234242916107
13420, -0.08880914747714996, -0.033100735396146774, -0.010370686650276184, -0.18346482515335083, 0.15959104895591736, 0.11853262037038803, 0.0022653648629784584, -0.0055779884569346905, 0.9997566938400269, -0.22427155077457428, -2.706958532333374, -0.18150730431079865, 0.0, 0.0, 0.0, 0, 0, 0, 0, 0, 0, -0.22427155077457428, -2.706958532333374, -0.18150730431079865
13430, -0.08858839422464371, -0.03322126716375351, -0.009729183278977871, -0.15834476053714752, 0.23567025363445282, 0.13076835870742798, -0.001591705484315753, -0.005291902460157871, 0.999247133731842, -0.22461223602294922, -2.712002992630005, -0.18185216188430786, 0.0, 0.0, 0.0, 0, 0, 0, 0, 0, 0, -0.22461223602294922, -2.712002992630005, -0.18185216188430786
13440, -0.08735791593790054, -0.03365723416209221, -0.009422390721738338, 0.1640206277370453, 0.1749366670846939, 0.09460397064685822, -0.00105759606231004, -0.00822982843965292, 0.9996888637542725, -0.22495220601558685, -2.7170515060424805, -0.18219764530658722, 0.0, 0.0, 0.0, 0, 0, 0, 0, 0, 0, -0.22495220601558685, -2.7170515060424805, -0.18219764530658722
13450, -0.08842425048351288, -0.032529011368751526, -0.010362302884459496, -0.15486837923526764, -0.2775595188140869, -0.04724409803748131, -0.000450598745374009, -0.007329973857849836, 1.0003489255905151, -0.22529271245002747, -2.7221052646636963, -0.18254363536834717, 0.0, 0.0, 0.0, 0, 0, 0, 0, 0, 0, -0.22529271245002747, -2.7221052646636963, -0.18254363536834717
13460, -0.0901118740439415, -0.034089572727680206, -0.009023820981383324, -0.2734973728656769, 0.13633936643600464, 0.056496478617191315, -0.0027252405416220427, -0.00714099919423461, 0.9981586933135986, -0.22563335299491882, -2.7271649837493896, -0.18288983404636383, 0.0, 0.0, 0.0, 0, 0, 0, 0, 0, 0, -0.22563335299491882, -2.7271649837493896, -0.18288983404636383
13470, -0.08990513533353806, -0.03558376431465149, -0.00943063199520111, -0.08146967738866806, 0.07937612384557724, -0.20230339467525482, -0.00035747134825214744, -0.005927255842834711, 1.0001951456069946, -0.22597484290599823, -2.7322301864624023, -0.183236762881279, 0.0, 0.0, 0.0, 0, 0, 0, 0, 0, 0, -0.22597484290599823, -2.7322301864624023, -0.183236762881279
13480, -0.09020119160413742, -0.035947687923908234, -0.009404899552464485, -0.04543111473321915, 0.15211065113544464, 0.032035574316978455, -0.00010663155990187079, -0.003373470390215516, 1.0006093978881836, -0.22631710767745972, -2.737299919128418, -0.18358436226844788, 0.0, 0.0, 0.0, 0, 0, 0, 0, 0, 0, -0.22631710767745972, -2.737299919128418, -0.18358436226844788
13490, -0.08997364342212677, -0.03379575163125992, -0.009372280910611153, -0.007115973625332117, -0.2563948333263397, -0.0011276574805378914, -0.0011263428023084998, -0.007152413949370384, 1.0010944604873657, -0.22665910422801971, -2.742372751235962, -0.18393166363239288, 0.0, 0.0, 0.0, 0, 0, 0, 0, 0, 0, -0.22665910422801971, -2.742372751235962, -0.18393166363239288
13500, -0.08978908509016037, -0.03436411917209625, -0.009414803236722946, 0.009738979861140251, -0.03757930174469948, -0.022606631740927696, -0.0024430870544165373, -0.004624449647963047, 1.0026792287826538, -0.2270011305809021, -2.7474489212036133, -0.1842779666185379, 0.0, 0.0, 0.0, 0, 0, 0, 0, 0, 0, -0.2270011305809021, -2.7474489212036133, -0.1842779666185379
13510, -0.08933398127555847, -0.032282162457704544, -0.00851564109325409, 0.060096073895692825, -0.24777445197105408, 0.0819450318813324, -0.002005101880058646, -0.005426432006061077, 1.0001583099365234, -0.2273443192243576, -2.7525291442871094, -0.18462245166301727, 0.0, 0.0, 0.0, 0, 0, 0, 0, 0, 0, -0.2273443192243576, -2.7525291442871094, -0.18462245166301727
13520, -0.0885615274310112, -0.033295609056949615, -0.007964219897985458, 0.1583540290594101, 0.14416740834712982, 0.10500089824199677, -0.0006363355787470937, -0.005571009125560522, 1.0021584033966064, -0.22768919169902802, -2.757612705230713, -0.1849656105041504, 0.0, 0.0, 0.0, 0, 0, 0, 0, 0, 0, -0.22768919169902802, -2.757612705230713, -0.1849656105041504
13530, -0.08904275298118591, -0.03428887575864792, -0.006757266819477081, -0.14496523141860962, 0.16744935512542725, 0.1788758486509323, -0.00196579797193408, -0.005458151455968618, 1.0002508163452148, -0.22803500294685364, -2.762700319290161, -0.1853076070547104, 0.0, 0.0, 0.0, 0, 0, 0, 0, 0, 0, -0.22803500294685364, -2.762700319290161, -0.1853076070547104
13540, -0.08844999969005585, -0.03469172120094299, -0.006744018290191889, 0.13251346349716187, 0.16044378280639648, -0.11194437742233276, -0.001180417719297111, -0.00605413131415844, 0.9996913075447083, -0.22838155925273895, -2.767791748046875, -0.1856486052274704, 0.0, 0.0, 0.0, 0, 0, 0, 0, 0, 0, -0.22838155925273895, -2.767791748046875, -0.1856486052274704
13550, -0.08816767483949661, -0.0348391979932785, -0.007086714264005423, -0.0010361666791141033, 0.021684955805540085, -0.07290858775377274, 0.00018393139180261642, -0.006082047708332539, 1.0017610788345337, -0.2287289947271347, -2.7728869915008545, -0.18598976731300354, 0.0, 0.0, 0.0, 0, 0, 0, 0, 0, 0, -0.2287289947271347, -2.7728869915008545, -0.18598976731300354
13560, -0.0888616070151329, -0.035723309963941574, -0.007463559508323669, -0.16004912555217743, -0.01589144580066204, 0.05434730648994446, 0.0012233755551278591, -0.004711334593594074, 1.0006259679794312, -0.22907654941082, -2.777987003326416, -0.18633051216602325, 0.0, 0.0, 0.0, 0, 0, 0, 0, 0, 0, -0.22907654941082, -2.777987003326416, -0.18633051216602325
13570, -0.08915801346302032, -0.03810644522309303, -0.006464495789259672, -0.15222705900669098, 0.34249740839004517, 0.17821986973285675, 0.00021441778517328203, -0.0035734823904931545, 1.000377893447876, -0.22942303121089935, -2.783090829849243, -0.18667007982730865, 0.0, 0.0, 0.0, 0, 0, 0, 0, 0, 0, -0.22942303121089935, -2.783090829849243, -0.18667007982730865
13580, -0.08979379385709763, -0.0373864509165287, -0.006759099196642637, -0.05860036984086037, -0.24562498927116394, 0.08097739517688751, -0.0024031130596995354, -0.005729200784116983, 0.9976567029953003, -0.22976811230182648, -2.7881972789764404, -0.1870090812444687, 0.0, 0.0, 0.0, 0, 0, 0, 0, 0, 0, -0.22976811230182648, -2.7881972789764404, -0.1870090812444687
13590, -0.08967198431491852, -0.03671606630086899, -0.0075535899959504604, 0.1106826588511467, -0.057179179042577744, 0.07061298936605453, -0.0017755177104845643, -0.005283400882035494, 0.9962422847747803, -0.2301134318113327, -2.793306589126587, -0.18734917044639587, 0.0, 0.0, 0.0, 0, 0, 0, 0, 0, 0, -0.2301134318113327, -2.793306589126587, -0.18734917044639587
13600, -0.08886145055294037, -0.03952677175402641, -0.006228472106158733, 0.09220635145902634, 0.22666524350643158, 0.12144742161035538, -0.0004186577571090311, -0.0054512619972229, 0.9987825155258179, -0.230460062623024, -2.79841947555542, -0.18769200146198273, 0.0, 0.0, 0.0, 0, 0, 0, 0, 0, 0, -0.230460062623024, -2.79841947555542, -0.18769200146198273
13610, -0.08772560954093933, -0.041749559342861176, -0.0063355350866913795, 0.1896715760231018, 0.21972918510437012, -0.056467559188604355, -0.0003230137808714062, -0.007244462613016367, 0.9974474310874939, -0.23080720007419586, -2.8035361766815186, -0.1880372017621994, 0.0, 0.0, 0.0, 0, 0, 0, 0, 0, 0, -0.23080720007419586, -2.8035361766815186, -0.1880372017621994
13620, -0.0883498266339302, -0.04223266616463661, -0.006711900699883699, -0.041283898055553436, 0.030341986566781998, -0.004300238564610481, -0.0008222369360737503, -0.004733389243483543, 0.9999657869338989, -0.23115421831607819, -2.808657646179199, -0.1883843094110489, 0.0, 0.0, 0.0, 0, 0, 0, 0, 0, 0, -0.23115421831607819, -2.808657646179199, -0.1883843094110489
13630, -0.0887654647231102, -0.04347585141658783, -0.006365746259689331, -0.0752984806895256, 0.35168835520744324, 0.029100405052304268, -0.002273175399750471, -0.004803050309419632, 1.0002707242965698, -0.23150129616260529, -2.8137834072113037, -0.18873268365859985, 0.0, 0.0, 0.0, 0, 0, 0, 0, 0, 0, -0.23150129616260529, -2.8137834072113037, -0.18873268365859985
13640, -0.08947156369686127, -0.04344408959150314, -0.007713704369962215, -0.06785476952791214, 0.020137973129749298, -0.08355212211608887, -0.0007300600409507751, -0.005866406951099634, 1.0001602172851562, -0.23184919357299805, -2.8189125061035156, -0.18908096849918365, 0.0, 0.0, 0.0, 0, 0, 0, 0, 0, 0, -0.23184919357299805, -2.8189125061035156, -0.18908096849918365
13650, -0.09049361199140549, -0.04134676232933998, -0.00754890963435173, -0.05155598744750023, -0.3570627272129059, 0.2360570728778839, 0.0008202767930924892, -0.0063429931178689, 1.0037775039672852, -0.23219768702983856, -2.824045419692993, -0.18942871689796448, 0.0, 0.0, 0.0, 0, 0, 0, 0, 0, 0, -0.23219768702983856, -2.824045419692993, -0.18942871689796448
13660, -0.09036431461572647, -0.03970681130886078, -0.007175638806074858, -0.0366944782435894, -0.260555624961853, 0.09606039524078369, -0.000997711904346943, -0.006676204968243837, 0.9982592463493347, -0.23254550993442535, -2.8291828632354736, -0.18977482616901398, 0.0, 0.0, 0.0, 0, 0, 0, 0, 0, 0, -0.23254550993442535, -2.8291828632354736, -0.18977482616901398
13670, -0.08982393890619278, -0.03847498819231987, -0.008381709456443787, 0.03408438712358475, -0.18307964503765106, -0.12189895659685135, -0.0016764865722507238, -0.006906304974108934, 1.001302719116211, -0.2328929901123047, -2.834325075149536, -0.19012007117271423, 0.0, 0.0, 0.0, 0, 0, 0, 0, 0, 0, -0.2328929901123047, -2.834325075149536, -0.19012007117271423
13680, -0.08999117463827133, -0.03765188902616501, -0.007435319013893604, -0.03941749408841133, 0.005360433831810951, 0.11343114078044891, -0.002119525568559766, -0.007631094194948673, 0.9993628263473511, -0.23324134945869446, -2.8394722938537598, -0.1904653012752533, 0.0, 0.0, 0.0, 0, 0, 0, 0, 0, 0, -0.23324134945869446, -2.8394722938537598, -0.1904653012752533
13690, -0.09026192873716354, -0.037345971912145615, -0.007427674252539873, -0.18629953265190125, -0.1309148222208023, -0.06296339631080627, -0.0023753440473228693, -0.007588045205920935, 0.9997707605361938, -0.23359109461307526, -2.844625234603882, -0.19081009924411774, 0.0, 0.0, 0.0, 0, 0, 0, 0, 0, 0, -0.23359109461307526, -2.844625234603882, -0.19081009924411774
13700, -0.0896604135632515, -0.040107570588588715, -0.005537965800613165, 0.009026623331010342, 0.4712086617946625, 0.2053004801273346, -0.002256611129269004, -0.0066188666969537735, 1.0009766817092896, -0.23394238948822021, -2.8497841358184814, -0.19115495681762695, 0.0, 0.0, 0.0, 0, 0, 0, 0, 0, 0, -0.23394238948822021, -2.8497841358184814, -0.19115495681762695
13710, -0.08997843414545059, -0.03971288725733757, -0.006619320251047611, -0.09740474820137024, -0.11911234259605408, -0.05134420841932297, -0.0020161715801805258, -0.006231193896383047, 0.9990389943122864, -0.23429514467716217, -2.8549485206604004, -0.1914994865655899, 0.0, 0.0, 0.0, 0, 0, 0, 0, 0, 0, -0.23429514467716217, -2.8549485206604004, -0.1914994865655899
13720, -0.09019450098276138, -0.04067220538854599, -0.006347489543259144, -0.04278702288866043, 0.05975160002708435, -0.04635718837380409, -0.001616035238839686, -0.006169842556118965, 0.9977192282676697, -0.23464913666248322, -2.8601179122924805, -0.1918441653251648, 0.0, 0.0, 0.0, 0, 0, 0, 0, 0, 0, -0.23464913666248322, -2.8601179122924805, -0.1918441653251648
13730, -0.09021610021591187, -0.040922921150922775, -0.004945654422044754, -0.038456808775663376, 0.04659580439329147, 0.19956360757350922, -0.000259286054642871, -0.007670352701097727, 0.9982926845550537, -0.2350042313337326, -2.8652918338775635, -0.1921904981136322, 0.0, 0.0, 0.0, 0, 0, 0, 0, 0, 0, -0.2350042313337326, -2.8652918338775635, -0.1921904981136322
13740, -0.08985324949026108, -0.03829757869243622, -0.004528761375695467, 0.03675706684589386, -0.22511610388755798, 0.0431881919503212, 0.0008270307444036007, -0.00724328588694334, 0.9986540079116821, -0.23535963892936707, -2.870471239089966, -0.19253884255886078, 0.0, 0.0, 0.0, 0, 0, 0, 0, 0, 0, -0.23535963892936707, -2.870471239089966, -0.19253884255886078
13750, -0.08940497785806656, -0.036994967609643936, -0.005348559003323317, 0.09011934697628021, -0.05241438373923302, 0.012088018469512463, -0.00046191594447009265, -0.007166323717683554, 1.0006195306777954, -0.2357141673564911, -2.8756561279296875, -0.19288846850395203, 0.0, 0.0, 0.0, 0, 0, 0, 0, 0, 0, -0.2357141673564911, -2.8756561279296875, -0.19288846850395203
13760, -0.08982227742671967, -0.0372360423207283, -0.005097901448607445, -0.060387466102838516, 0.1108800396323204, 0.07548153400421143, 0.00024130546080414206, -0.006237443070858717, 0.9997985363006592, -0.23606780171394348, -2.8808462619781494, -0.1932382732629776, 0.0, 0.0, 0.0, 0, 0, 0, 0, 0, 0, -0.23606780171394348, -2.8808462619781494, -0.1932382732629776
13770, -0.08923688530921936, -0.034466467797756195, -0.004812831990420818, 0.09927751123905182, -0.29746130108833313, -0.13750611245632172, -0.0009646163671277463, -0.006074679084122181, 1.0004799365997314, -0.23642085492610931, -2.8860414028167725, -0.19358786940574646, 0.0, 0.0, 0.0, 0, 0, 0, 0, 0, 0, -0.23642085492610931, -2.8860414028167725, -0.19358786940574646
13780, -0.09003061801195145, -0.034895963966846466, -0.005686883814632893, -0.141413614153862, -0.10689983516931534, -0.17540550231933594, -0.00028431782266125083, -0.006425227504223585, 1.0006643533706665, -0.23677361011505127, -2.8912410736083984, -0.19393734633922577, 0.0, 0.0, 0.0, 0, 0, 0, 0, 0, 0, -0.23677361011505127, -2.8912410736083984, -0.19393734633922577
13790, -0.08774876594543457, -0.035185012966394424, -0.003947204444557428, 0.2950889766216278, 0.06636074185371399, 0.06662479043006897, 4.790647653862834e-05, -0.0064120423048734665, 0.9995993971824646, -0.2371261864900589, -2.8964452743530273, -0.19428645074367523, 0.0, 0.0, 0.0, 0, 0, 0, 0, 0, 0, -0.2371261864900589, -2.8964452743530273, -0.19428645074367523
13800, -0.08887945860624313, -0.03523225709795952, -0.005278755910694599, -0.08529116213321686, 0.11335036903619766, -0.03196697682142258, -0.001582467695698142, -0.004122202750295401, 1.000345230102539, -0.23747816681861877, -2.9016542434692383, -0.1946355253458023, 0.0, 0.0, 0.0, 0, 0, 0, 0, 0, 0, -0.23747816681861877, -2.9016542434692383, -0.1946355253458023
13810, -0.08964905142784119, -0.03524089977145195, -0.005940214730799198, -0.14186513423919678, -0.05644085258245468, -0.16008010506629944, -0.00014173689123708755, -0.005761174485087395, 0.9992531538009644, -0.23782989382743835, -2.9068667888641357, -0.19498471915721893, 0.0, 0.0, 0.0, 0, 0, 0, 0, 0, 0, -0.23782989382743835, -2.9068667888641357, -0.19498471915721893
13820, -0.08803345263004303, -0.03422795981168747, -0.005720369052141905, 0.08977790921926498, -0.1977178007364273, -0.09830260276794434, -0.0023118460085242987, -0.006628291215747595, 0.9996214509010315, -0.23818154633045197, -2.9120826721191406, -0.1953342854976654, 0.0, 0.0, 0.0, 0, 0, 0, 0, 0, 0, -0.23818154633045197, -2.9120826721191406, -0.1953342854976654
13830, -0.0884886384010315, -0.0339982733130455, -0.005758673883974552, -0.17237012088298798, -0.06049263849854469, 0.06986695528030396, -0.0018650639103725553, -0.006173882633447647, 0.9994499683380127, -0.23853379487991333, -2.9173030853271484, -0.1956845223903656, 0.0, 0.0, 0.0, 0, 0, 0, 0, 0, 0, -0.23853379487991333, -2.9173030853271484, -0.1956845223903656
13840, -0.08851690590381622, -0.03118487447500229, -0.006633337587118149, 0.02190502919256687, -0.13130737841129303, -0.1952536255121231, -0.001626033103093505, -0.005666427314281464, 0.9995114207267761, -0.23888756334781647, -2.922528028488159, -0.1960352510213852, 0.0, 0.0, 0.0, 0, 0, 0, 0, 0, 0, -0.23888756334781647, -2.922528028488159, -0.1960352510213852
13850, -0.08751139789819717, -0.03269490227103233, -0.0063406904228031635, 0.0996108278632164, 0.33744528889656067, 0.12292049080133438, -0.0026616931427270174, -0.006521244067698717, 1.0009934902191162, -0.2392427772283554, -2.927757501602173, -0.1963864266872406, 0.0, 0.0, 0.0, 0, 0, 0, 0, 0, 0, -0.2392427772283554, -2.927757501602173, -0.1963864266872406
13860, -0.08776381611824036, -0.03186999261379242, -0.005858990829437971, 0.03538533300161362, -0.09856977313756943, 0.10689880698919296, -0.0007463378715328872, -0.0070444922894239426, 1.001934289932251, -0.23959951102733612, -2.9329912662506104, -0.1967373639345169, 0.0, 0.0, 0.0, 0, 0, 0, 0, 0, 0, -0.23959951102733612, -2.9329912662506104, -0.1967373639345169
13870, -0.0879279151558876, -0.03096894733607769, -0.007028868887573481, -0.03511959686875343, 0.022763436660170555, -0.3018001616001129, -0.0009609642438590527, -0.006145753897726536, 0.9990992546081543, -0.23995709419250488, -2.93822979927063, -0.19708701968193054, 0.0, 0.0, 0.0, 0, 0, 0, 0, 0, 0, -0.23995709419250488, -2.93822979927063, -0.19708701968193054
13880, -0.08845183998346329, -0.02999815158545971, -0.005170752760022879, -0.03484473377466202, -0.09267531335353851, 0.2870839834213257, -0.0007650633342564106, -0.006636544596403837, 0.9960923790931702, -0.24031496047973633, -2.9434731006622314, -0.19743648171424866, 0.0, 0.0, 0.0, 0, 0, 0, 0, 0, 0, -0.24031496047973633, -2.9434731006622314, -0.19743648171424866
13890, -0.08847572654485703, -0.026212619617581367, -0.005710388068109751, 0.07490547001361847, -0.47582805156707764, -0.12518693506717682, 0.00032503934926353395, -0.007326195016503334, 1.000485897064209, -0.24067319929599762, -2.948721170425415, -0.19778817892074585, 0.0, 0.0, 0.0, 0, 0, 0, 0, 0, 0, -0.24067319929599762, -2.948721170425415, -0.19778817892074585
13900, -0.08786814659833908, -0.024254873394966125, -0.005286582745611668, 0.060748469084501266, -0.18206585943698883, 0.08344122022390366, -0.0005281835328787565, -0.006319690495729446, 0.9990903735160828, -0.24103128910064697, -2.953974723815918, -0.1981414556503296, 0.0, 0.0, 0.0, 0, 0, 0, 0, 0, 0, -0.24103128910064697, -2.953974723815918, -0.1981414556503296
13910, -0.08790197223424911, -0.025071822106838226, -0.004974104464054108, -0.06183039769530296, 0.20997247099876404, 0.04188055917620659, -0.0007548919529654086, -0.007254327181726694, 0.9991764426231384, -0.2413891851902008, -2.959233283996582, -0.19849517941474915, 0.0, 0.0, 0.0, 0, 0, 0, 0, 0, 0, -0.2413891851902008, -2.959233283996582, -0.19849517941474915
13920, -0.08756662905216217, -0.02622377872467041, -0.005453560501337051, 0.12394344806671143, 0.14025405049324036, 0.002828384516760707, -0.002490905113518238, -0.006786102429032326, 1.000968098640442, -0.24174737930297852, -2.9644970893859863, -0.1988496631383896, 0.0, 0.0, 0.0, 0, 0, 0, 0, 0, 0, -0.24174737930297852, -2.9644970893859863, -0.1988496631383896
13930, -0.08840135484933853, -0.024787697941064835, -0.005177746992558241, -0.19742509722709656, -0.0413828045129776, 0.10292349755764008, -0.0022283755242824554, -0.006333228200674057, 1.0000392198562622, -0.2421068251132965, -2.969766139984131, -0.19920411705970764, 0.0, 0.0, 0.0, 0, 0, 0, 0, 0, 0, -0.2421068251132965, -2.969766139984131, -0.19920411705970764
13940, -0.08790890872478485, -0.02385333552956581, -0.006345957983285189, 0.15904635190963745, -0.05343865975737572, -0.02778259851038456, -0.0012524781050160527, -0.006626139860600233, 0.9985433220863342, -0.24246817827224731, -2.9750397205352783, -0.19955821335315704, 0.0, 0.0, 0.0, 0, 0, 0, 0, 0, 0, -0.24246817827224731, -2.9750397205352783, -0.19955821335315704
13950, -0.08864807337522507, -0.02247256599366665, -0.005695919971913099, -0.16259174048900604, -0.11166279762983322, 0.1692739576101303, -0.0015510263619944453, -0.005657251924276352, 1.000044584274292, -0.24283084273338318, -2.980318069458008, -0.19991284608840942, 0.0, 0.0, 0.0, 0, 0, 0, 0, 0, 0, -0.24283084273338318, -2.980318069458008, -0.19991284608840942
13960, -0.08938098698854446, -0.019877979531884193, -0.007678271736949682, -0.11711722612380981, -0.1439211517572403, -0.09274797886610031, -0.002080086851492524, -0.004881765227764845, 0.9986937642097473, -0.24319449067115784, -2.9856009483337402, -0.20026808977127075, 0.0, 0.0, 0.0, 0, 0, 0, 0, 0, 0, -0.24319449067115784, -2.9856009483337402, -0.20026808977127075
13970, -0.08965003490447998, -0.021153293550014496, -0.00793505646288395, -0.02872498519718647, 0.1377246379852295, 0.12250691652297974, -0.0017519250977784395, -0.007382773328572512, 0.9974966049194336, -0.24355962872505188, -2.9908876419067383, -0.20062409341335297, 0.0, 0.0, 0.0, 0, 0, 0, 0, 0, 0, -0.24355962872505188, -2.9908876419067383, -0.20062409341335297
13980, -0.09027254581451416, -0.019603177905082703, -0.009410719387233257, -0.18300560116767883, -0.16969454288482666, -0.11655468493700027, 0.00055290712043643, -0.005128316581249237, 0.9998686909675598, -0.2439262717962265, -2.9961788654327393, -0.20098187029361725, 0.0, 0.0, 0.0, 0, 0, 0, 0, 0, 0, -0.2439262717962265, -2.9961788654327393, -0.20098187029361725
13990, -0.09089196473360062, -0.020759200677275658, -0.00842162873595953, 0.0364086776971817, 0.2581503093242645, 0.17902320623397827, -0.0017276800936087966, -0.00659977039322257, 0.9962339401245117, -0.2442931979894638, -3.001474618911743, -0.20134107768535614, 0.0, 0.0, 0.0, 0, 0, 0, 0, 0, 0, -0.2442931979894638, -3.001474618911743, -0.20134107768535614
14000, -0.09157731384038925, -0.01883118599653244, -0.008267982862889767, -0.03542068228125572, -0.3566972017288208, 0.12649479508399963, -0.0010760468430817127, -0.005570529028773308, 1.0009905099868774, -0.24466043710708618, -3.00677490234375, -0.2017022669315338, 0.0, 0.0, 0.0, 0, 0, 0, 0, 0, 0, -0.24466043710708618, -3.00677490234375, -0.2017022669315338
14010, -0.0915118157863617, -0.017748301848769188, -0.007227581925690174, -0.07751206308603287, -0.1227894276380539, 0.07015307247638702, -0.00025407929206267, -0.0033799889497458935, 1.0017753839492798, -0.24502862989902496, -3.0120797157287598, -0.20206473767757416, 0.0, 0.0, 0.0, 0, 0, 0, 0, 0, 0, -0.24502862989902496, -3.0120797157287598, -0.20206473767757416
14020, -0.09100093692541122, -0.01716068759560585, -0.007150483783334494, 0.0658826231956482, 0.045220520347356796, -0.022797435522079468, 0.0023791519924998283, -0.004571662284433842, 1.001482367515564, -0.2453969419002533, -3.0173871517181396, -0.20242588222026825, 0.0, 0.0, 0.0, 0, 0, 0, 0, 0, 0, -0.2453969419002533, -3.0173871517181396, -0.20242588222026825
14030, -0.09159597754478455, -0.01537911407649517, -0.0076918331906199455, -0.16012798249721527, -0.05405894294381142, -0.1934627890586853, -0.00020673515973612666, -0.00525613222271204, 0.9993590712547302, -0.2457638382911682, -3.0226969718933105, -0.2027854323387146, 0.0, 0.0, 0.0, 0, 0, 0, 0, 0, 0, -0.2457638382911682, -3.0226969718933105, -0.2027854323387146
14040, -0.09130670875310898, -0.014239899814128876, -0.005826273467391729, 0.03256473317742348, -0.154199481010437, -0.09631349891424179, 0.0008180629811249673, -0.004587280098348856, 0.998153805732727, -0.24612928926944733, -3.0280098915100098, -0.20314456522464752, 0.0, 0.0, 0.0, 0, 0, 0, 0, 0, 0, -0.24612928926944733, -3.0280098915100098, -0.20314456522464752
14050, -0.09166525304317474, -0.014439274556934834, -0.005257860757410526, -0.13985209167003632, 0.22819030284881592, 0.20488984882831573, -0.0010920839849859476, -0.001999617787078023, 0.9996897578239441, -0.24649402499198914, -3.0333259105682373, -0.20350459218025208, 0.0, 0.0, 0.0, 0, 0, 0, 0, 0, 0, -0.24649402499198914, -3.0333259105682373, -0.20350459218025208
14060, -0.0916396975517273, -0.01536532025784254, -0.0056394594721496105, 0.14106306433677673, 0.13024303317070007, -0.06828973442316055, -0.0022567398846149445, -0.005176496226340532, 0.9977343678474426, -0.2468586415052414, -3.0386435985565186, -0.2038656771183014, 0.0, 0.0, 0.0, 0, 0, 0, 0, 0, 0, -0.2468586415052414, -3.0386435985565186, -0.2038656771183014
14070, -0.09268290549516678, -0.014756090939044952, -0.0055524124763906, -0.1676339954137802, -0.0008010868332348764, -0.03840284422039986, -0.003580376971513033, -0.004618778824806213, 1.0000340938568115, -0.2472245693206787, -3.0439634323120117, -0.20422811806201935, 0.0, 0.0, 0.0, 0, 0, 0, 0, 0, 0, -0.2472245693206787, -3.0439634323120117, -0.20422811806201935
14080, -0.09270775318145752, -0.013615330681204796, -0.004498166032135487, -0.046158768236637115, -0.037812840193510056, 0.13064095377922058, -0.002316015074029565, -0.005129182245582342, 0.9980774521827698, -0.24759316444396973, -3.049286365509033, -0.20459160208702087, 0.0, 0.0, 0.0, 0, 0, 0, 0, 0, 0, -0.24759316444396973, -3.049286365509033, -0.20459160208702087
14090, -0.09177015721797943, -0.014840696007013321, -0.005768274888396263, 0.13734689354896545, 0.07654240727424622, -0.13191622495651245, -0.0005259175668470562, -0.004394174553453922, 0.9964312314987183, -0.24796439707279205, -3.054612398147583, -0.20495599508285522, 0.0, 0.0, 0.0, 0, 0, 0, 0, 0, 0, -0.24796439707279205, -3.054612398147583, -0.20495599508285522
14100, -0.09116998314857483, -0.014546927995979786, -0.005902532953768969, -0.0739862471818924, -0.03452165424823761, -0.06893191486597061, -0.0005683447816409171, -0.0034526153467595577, 0.9984447360038757, -0.24833662807941437, -3.059941291809082, -0.20532286167144775, 0.0, 0.0, 0.0, 0, 0, 0, 0, 0, 0, -0.24833662807941437, -3.059941291809082, -0.20532286167144775
14110, -0.09074275195598602, -0.01262995321303606, -0.005588516592979431, 0.05814100801944733, -0.151809424161911, -0.09897211194038391, -0.0012996577424928546, -0.004722846671938896, 0.9987344741821289, -0.24870899319648743, -3.065272569656372, -0.20569215714931488, 0.0, 0.0, 0.0, 0, 0, 0, 0, 0, 0, -0.24870899319648743, -3.065272569656372, -0.20569215714931488
14120, -0.09119565784931183, -0.012563764117658138, -0.0058253007009625435, -0.016080224886536598, -0.014800122939050198, -0.07671826332807541, -0.0005346909747458994, -0.007682128343731165, 0.9997029900550842, -0.2490818351507187, -3.0706064701080322, -0.2060626745223999, 0.0, 0.0, 0.0, 0, 0, 0, 0, 0, 0, -0.2490818351507187, -3.0706064701080322, -0.2060626745223999
14130, -0.09244727343320847, -0.012129987590014935, -0.006536675617098808, -0.13668666779994965, -0.3052569031715393, -0.20890085399150848, -0.0005964133306406438, -0.005870709661394358, 0.9996461272239685, -0.24945522844791412, -3.0759451389312744, -0.2064337283372879, 0.0, 0.0, 0.0, 0, 0, 0, 0, 0, 0, -0.24945522844791412, -3.0759451389312744, -0.2064337283372879
14140, -0.09162592142820358, -0.01465929951518774, -0.005738383624702692, 0.06806088238954544, 0.4746135473251343, 0.09266218543052673, -0.0013741913717240095, -0.006783630233258009, 0.999086856842041, -0.2498289942741394, -3.0812888145446777, -0.2068050354719162, 0.0, 0.0, 0.0, 0, 0, 0, 0, 0, 0, -0.2498289942741394, -3.0812888145446777, -0.2068050354719162
14150, -0.0910910964012146, -0.015071658417582512, -0.005825461354106665, 0.054044272750616074, 0.195540189743042, -0.05205792561173439, -0.0023227259516716003, -0.005494318436831236, 0.9994074702262878, -0.2502036392688751, -3.086637258529663, -0.207177072763443, 0.0, 0.0, 0.0, 0, 0, 0, 0, 0, 0, -0.2502036392688751, -3.086637258529663, -0.207177072763443
14160, -0.09212659299373627, -0.015547499060630798, -0.005791822914034128, -0.13204169273376465, 0.1649705171585083, -0.04347282275557518, -0.0019194998312741518, -0.005916194058954716, 0.9990532398223877, -0.25057995319366455, -3.0919899940490723, -0.20754994451999664, 0.0, 0.0, 0.0, 0, 0, 0, 0, 0, 0, -0.25057995319366455, -3.0919899940490723, -0.20754994451999664
14170, -0.09288725256919861, -0.01595677249133587, -0.004706521052867174, -0.1464480608701706, -0.07831399887800217, 0.10241425037384033, -0.0017837929772213101, -0.008778460323810577, 1.0007445812225342, -0.250958114862442, -3.0973470211029053, -0.20792318880558014, 0.0, 0.0, 0.0, 0, 0, 0, 0, 0, 0, -0.250958114862442, -3.0973470211029053, -0.20792318880558014
14180, -0.09308874607086182, -0.015561911277472973, -0.005582427140325308, 0.048286933451890945, -0.06345177441835403, -0.21330679953098297, -0.0021820005495101213, -0.005142127629369497, 1.0013847351074219, -0.2513379156589508, -3.1027095317840576, -0.2082962989807129, 0.0, 0.0, 0.0, 0, 0, 0, 0, 0, 0, -0.2513379156589508, -3.1027095317840576, -0.2082962989807129
14190, -0.09235918521881104, -0.01599719747900963, -0.0069661326706409454, 0.08890463411808014, -0.183284729719162, -0.18426907062530518, -0.001074367668479681, -0.005836476106196642, 1.0006494522094727, -0.2517194151878357, -3.108077049255371, -0.20866850018501282, 0.0, 0.0, 0.0, 0, 0, 0, 0, 0, 0, -0.2517194151878357, -3.108077049255371, -0.20866850018501282
14200, -0.0925765186548233, -0.015867013484239578, -0.007622529752552509, -0.13655421137809753, -0.04710395261645317, -0.04850029945373535, -0.0011272435076534748, -0.004178063943982124, 0.9975685477256775, -0.25210219621658325, -3.11344838142395, -0.20903991162776947, 0.0, 0.0, 0.0, 0, 0, 0, 0, 0, 0, -0.25210219621658325, -3.11344838142395, -0.20903991162776947
14210, -0.09234748780727386, -0.015156207606196404, -0.008300303481519222, 0.1280025988817215, -0.1238134428858757, -0.1942196786403656, -0.00030787367722950876, -0.004903719760477543, 0.9974885582923889, -0.2524857521057129, -3.1188230514526367, -0.2094123363494873, 0.0, 0.0, 0.0, 0, 0, 0, 0, 0, 0, -0.2524857521057129, -3.1188230514526367, -0.2094123363494873
14220, -0.09245862066745758, -0.014572449959814548, -0.008890229277312756, -0.10102057456970215, -0.021295838057994843, -0.020085183903574944, -0.0013420560862869024, -0.004758753813803196, 1.000123143196106, -0.2528698146343231, -3.1242003440856934, -0.20978674292564392, 0.0, 0.0, 0.0, 0, 0, 0, 0, 0, 0, -0.2528698146343231, -3.1242003440856934, -0.20978674292564392
14230, -0.09119909256696701, -0.014055116102099419, -0.00859651155769825, 0.19316712021827698, -0.20108364522457123, 0.12423849105834961, 0.0010366785572841763, -0.004697782918810844, 0.997769832611084, -0.2532544732093811, -3.1295807361602783, -0.21016210317611694, 0.0, 0.0, 0.0, 0, 0, 0, 0, 0, 0, -0.2532544732093811, -3.1295807361602783, -0.21016210317611694
14240, -0.09151194244623184, -0.013253355398774147, -0.008564405143260956, 0.007331422530114651, 0.023357870057225227, -0.007968158461153507, 0.0007960409275256097, -0.005814188625663519, 0.9977236390113831, -0.25363898277282715, -3.1349639892578125, -0.21053870022296906, 0.0, 0.0, 0.0, 0, 0, 0, 0, 0, 0, -0.25363898277282715, -3.1349639892578125, -0.21053870022296906
14250, -0.09204734116792679, -0.013438241556286812, -0.008104073815047741, 0.013480906374752522, 0.08329471200704575, 0.12017157673835754, -0.0029518441297113895, -0.005053166300058365, 0.9988127946853638, -0.2540225386619568, -3.140350580215454, -0.2109174281358719, 0.0, 0.0, 0.0, 0, 0, 0, 0, 0, 0, -0.2540225386619568, -3.140350580215454, -0.2109174281358719
14260, -0.0922718495130539, -0.01229178812354803, -0.008750714361667633, 0.049605704843997955, -0.09573107212781906, -0.09152206033468246, -0.0023187948390841484, -0.005808953661471605, 0.997673749923706, -0.25440695881843567, -3.1457409858703613, -0.21129783987998962, 0.0, 0.0, 0.0, 0, 0, 0, 0, 0, 0, -0.25440695881843567, -3.1457409858703613, -0.21129783987998962
14270, -0.09267071634531021, -0.01096397079527378, -0.010191991925239563, 0.006506817881017923, -0.2712339162826538, -0.23867063224315643, -0.0005114724044688046, -0.00664626806974411, 1.0004383325576782, -0.25479355454444885, -3.151134967803955, -0.21167972683906555, 0.0, 0.0, 0.0, 0, 0, 0, 0, 0, 0, -0.25479355454444885, -3.151134967803955, -0.21167972683906555
14280, -0.09317286312580109, -0.011396798305213451, -0.009025109931826591, 0.06142120808362961, -0.23120000958442688, 0.20417964458465576, -0.0005557599361054599, -0.007346486207097769, 0.9992328882217407, -0.25518131256103516, -3.1565334796905518, -0.21206238865852356, 0.0, 0.0, 0.0, 0, 0, 0, 0, 0, 0, -0.25518131256103516, -3.1565334796905518, -0.21206238865852356
14290, -0.09217298775911331, -0.013955526985228062, -0.009531275369226933, 0.14157623052597046, 0.19582201540470123, -0.17499364912509918, -0.0003036903799511492, -0.006254743784666061, 1.0028986930847168, -0.2555694282054901, -3.1619372367858887, -0.21244512498378754, 0.0, 0.0, 0.0, 0, 0, 0, 0, 0, 0, -0.2555694282054901, -3.1619372367858887, -0.21244512498378754
14300, -0.09175221621990204, -0.015718717128038406, -0.008709114976227283, 0.10260237753391266, 0.13806232810020447, 0.10968200862407684, -0.0010093098971992731, -0.006674754433333874, 1.001834511756897, -0.25595787167549133, -3.1673460006713867, -0.21282655000686646, 0.0, 0.0, 0.0, 0, 0, 0, 0, 0, 0, -0.25595787167549133, -3.1673460006713867, -0.21282655000686646
14310, -0.0917234793305397, -0.017249371856451035, -0.009353645145893097, 0.06749293953180313, 0.3461100161075592, 0.09323578327894211, -0.00110053108073771, -0.0067358785308897495, 0.9995696544647217, -0.25634685158729553, -3.172759532928467, -0.21320556104183197, 0.0, 0.0, 0.0, 0, 0, 0, 0, 0, 0, -0.25634685158729553, -3.172759532928467, -0.21320556104183197
14320, -0.09151335805654526, -0.019695261493325233, -0.010105411522090435, 0.08770138025283813, 0.26783740520477295, -0.00678900396451354, -0.0007521457155235112, -0.004896492697298527, 1.000435471534729, -0.2567365765571594, -3.178178071975708, -0.2135835886001587, 0.0, 0.0, 0.0, 0, 0, 0, 0, 0, 0, -0.2567365765571594, -3.178178071975708, -0.2135835886001587
14330, -0.09216126799583435, -0.019398225471377373, -0.008828707970678806, -0.1375293731689453, -0.2231299728155136, 0.2420598566532135, -0.0005868622101843357, -0.007061146665364504, 1.0002020597457886, -0.25712674856185913, -3.183600902557373, -0.2139616459608078, 0.0, 0.0, 0.0, 0, 0, 0, 0, 0, 0, -0.25712674856185913, -3.183600902557373, -0.2139616459608078
14340, -0.09275386482477188, -0.019260063767433167, -0.008869928307831287, -0.2086244523525238, -0.13709568977355957, 0.06377051770687103, 0.0002304358931723982, -0.00793195329606533, 0.9996945858001709, -0.257517009973526, -3.189028024673462, -0.21433967351913452, 0.0, 0.0, 0.0, 0, 0, 0, 0, 0, 0, -0.257517009973526, -3.189028024673462, -0.21433967351913452
14350, -0.09260046482086182, -0.019533472135663033, -0.009470968507230282, 0.057578444480895996, -0.004170146305114031, 0.024341899901628494, 0.00016245758160948753, -0.006686846259981394, 1.0000218152999878, -0.25790709257125854, -3.19446063041687, -0.21471765637397766, 0.0, 0.0, 0.0, 0, 0, 0, 0, 0, 0, -0.25790709257125854, -3.19446063041687, -0.21471765637397766
14360, -0.09239145368337631, -0.01811060681939125, -0.011231009848415852, 0.006661511026322842, -0.06411408632993698, -0.10464180260896683, -0.00048034253995865583, -0.006443928927183151, 0.9980462789535522, -0.25829675793647766, -3.1998984813690186, -0.21509575843811035, 0.0, 0.0, 0.0, 0, 0, 0, 0, 0, 0, -0.25829675793647766, -3.1998984813690186, -0.21509575843811035
14370, -0.09208785742521286, -0.018107887357473373, -0.011625546030700207, 0.00880782026797533, 0.05361860990524292, 0.12318023294210434, -7.219901817734353e-06, -0.005592423491179943, 0.9995754361152649, -0.25868621468544006, -3.205341100692749, -0.21547476947307587, 0.0, 0.0, 0.0, 0, 0, 0, 0, 0, 0, -0.25868621468544006, -3.205341100692749, -0.21547476947307587
14380, -0.09273319691419601, -0.02026699297130108, -0.009767821989953518, -0.19165688753128052, 0.24521306157112122, 0.26943081617355347, -0.00024882497382350266, -0.007258758880198002, 0.9997771978378296, -0.25907567143440247, -3.2107880115509033, -0.21585480868816376, 0.0, 0.0, 0.0, 0, 0, 0, 0, 0, 0, -0.25907567143440247, -3.2107880115509033, -0.21585480868816376
14390, -0.09174894541501999, -0.021453941240906715, -0.009385655634105206, 0.22450599074363708, -0.05467453971505165, 0.0737520381808281, -0.001971366349607706, -0.0070976451970636845, 0.9989584684371948, -0.2594650089740753, -3.2162396907806396, -0.2162352353334427, 0.0, 0.0, 0.0, 0, 0, 0, 0, 0, 0, -0.2594650089740753, -3.2162396907806396, -0.2162352353334427
14400, -0.09236261993646622, -0.022939540445804596, -0.007510086987167597, -0.21747688949108124, -0.01019493117928505, 0.14973080158233643, -0.0020155073143541813, -0.006481615826487541, 0.997929036617279, -0.25985509157180786, -3.221696615219116, -0.2166161984205246, 0.0, 0.0, 0.0, 0, 0, 0, 0, 0, 0, -0.25985509157180786, -3.221696615219116, -0.2166161984205246
14410, -0.0918194055557251, -0.023434031754732132, -0.0077242422848939896, 0.11704299598932266, 0.07954617589712143, -0.1645682156085968, -8.237917063524947e-05, -0.006141411606222391, 0.9984074234962463, -0.2602466642856598, -3.227158784866333, -0.21699857711791992, 0.0, 0.0, 0.0, 0, 0, 0, 0, 0, 0, -0.2602466642856598, -3.227158784866333, -0.21699857711791992
14420, -0.09105020016431808, -0.022392896935343742, -0.009152132086455822, 0.24435138702392578, -0.17717672884464264, -0.11970368027687073, -5.243482155492529e-05, -0.006991996429860592, 0.9994568824768066, -0.26063889265060425, -3.232625722885132, -0.21738269925117493, 0.0, 0.0, 0.0, 0, 0, 0, 0, 0, 0, -0.26063889265060425, -3.232625722885132, -0.21738269925117493
14430, -0.09105020016431808, -0.022392896935343742, -0.009152132086455822, 0.06946679204702377, -0.01701330579817295, 0.2917068898677826, 0.0009609544649720192, -0.005741009954363108, 1.000507116317749, -0.261030912399292, -3.2380974292755127, -0.2177678346633911, 0.0, 0.0, 0.0, 0, 0, 0, 0, 0, 0, -0.261030912399292, -3.2380974292755127, -0.2177678346633911
14440, -0.09243796765804291, -0.02220761403441429, -0.009344063699245453, -0.07103706151247025, -0.061228375881910324, 0.032564520835876465, -0.0005511896451935172, -0.006948655005544424, 0.9986749291419983, -0.2614222764968872, -3.2435736656188965, -0.2181529551744461, 0.0, 0.0, 0.0, 0, 0, 0, 0, 0, 0, -0.2614222764968872, -3.2435736656188965, -0.2181529551744461
14450, -0.09243796765804291, -0.02220761403441429, -0.009344063699245453, 0.045972131192684174, 0.07287363708019257, 0.11889852583408356, -2.4018554540816694e-05, -0.006850473117083311, 0.9992569088935852, -0.2618522346019745, -3.249603033065796, -0.21857716143131256, 0.0, 0.0, 0.0, 0, 0, 0, 0, 0, 0, -0.2618522346019745, -3.249603033065796, -0.21857716143131256
14460, -0.09207983314990997, -0.0210898295044899, -0.008972429670393467, -0.07221846282482147, 0.2843266725540161, 0.21835573017597198, -0.0023830803111195564, -0.006213043350726366, 0.9979279041290283, -0.2622824013233185, -3.255638837814331, -0.21900293231010437, 0.0, 0.0, 0.0, 0, 0, 0, 0, 0, 0, -0.2622824013233185, -3.255638837814331, -0.21900293231010437
14470, -0.09194428473711014, -0.022061700001358986, -0.008695419877767563, 0.08726683259010315, -0.01245227362960577, 0.071244016289711, -0.0027206994127482176, -0.005093832965940237, 0.9994862675666809, -0.262714147567749, -3.2616801261901855, -0.21943052113056183, 0.0, 0.0, 0.0, 0, 0, 0, 0, 0, 0, -0.262714147567749, -3.2616801261901855, -0.21943052113056183
14480, -0.09028548747301102, -0.02285618521273136, -0.00894139800220728, -0.0992031916975975, 0.27626559138298035, 0.13680025935173035, -0.0018947019707411528, -0.00494373356923461, 0.999060869216919, -0.2631087899208069, -3.267176389694214, -0.21982046961784363, 0.0, 0.0, 0.0, 0, 0, 0, 0, 0, 0, -0.2631087899208069, -3.267176389694214, -0.21982046961784363
14490, -0.09126701951026917, -0.02188168466091156, -0.008246161043643951, -0.04663753882050514, 0.1516462117433548, -0.18131227791309357, -0.0006062180618755519, -0.005084257572889328, 0.9968880414962769, -0.26350462436676025, -3.2726759910583496, -0.22021129727363586, 0.0, 0.0, 0.0, 0, 0, 0, 0, 0, 0, -0.26350462436676025, -3.2726759910583496, -0.22021129727363586
14500, -0.09056078642606735, -0.02245509810745716, -0.009224416688084602, 0.15072861313819885, -0.1434706300497055, -0.0338069349527359, -0.0017475615022704005, -0.005405044183135033, 0.9986101388931274, -0.2639012038707733, -3.2781789302825928, -0.22060419619083405, 0.0, 0.0, 0.0, 0, 0, 0, 0, 0, 0, -0.2639012038707733, -3.2781789302825928, -0.22060419619083405
14510, -0.09055062383413315, -0.021428747102618217, -0.009460829198360443, -0.14573189616203308, 0.013200501911342144, -0.16251178085803986, -0.001588434912264347, -0.006094174925237894, 0.9986172914505005, -0.2642988860607147, -3.2836856842041016, -0.2209991067647934, 0.0, 0.0, 0.0, 0, 0, 0, 0, 0, 0, -0.2642988860607147, -3.2836856842041016, -0.2209991067647934
14520, -0.09150692820549011, -0.022480567917227745, -0.009813912212848663, 0.013337722048163414, -0.1726962774991989, -0.1759968250989914, -0.0021423862781375647, -0.0053921109065413475, 0.9982719421386719, -0.2646980285644531, -3.289196729660034, -0.22139520943164825, 0.0, 0.0, 0.0, 0, 0, 0, 0, 0, 0, -0.2646980285644531, -3.289196729660034, -0.22139520943164825
14530, -0.09130184352397919, -0.02204718627035618, -0.011835821904242039, -0.030099261552095413, -0.10161858052015305, -0.06366810947656631, -0.0016940976493060589, -0.006319407839328051, 0.9989088177680969, -0.2650987505912781, -3.2947120666503906, -0.22179293632507324, 0.0, 0.0, 0.0, 0, 0, 0, 0, 0, 0, -0.2650987505912781, -3.2947120666503906, -0.22179293632507324
14540, -0.09067289531230927, -0.021641917526721954, -0.011144372634589672, -0.18379800021648407, -0.0659196749329567, -0.09472506493330002, -0.0008439351222477853, -0.0032563223503530025, 0.9985433220863342, -0.2655007541179657, -3.300231456756592, -0.22219212353229523, 0.0, 0.0, 0.0, 0, 0, 0, 0, 0, 0, -0.2655007541179657, -3.300231456756592, -0.22219212353229523
14550, -0.09138438105583191, -0.02137216180562973, -0.010275760665535927, -0.07841163128614426, -0.07790172845125198, 0.018732594326138496, 0.000726665195543319, -0.006149113178253174, 0.9995501041412354, -0.26590320467948914, -3.3057539463043213, -0.22259235382080078, 0.0, 0.0, 0.0, 0, 0, 0, 0, 0, 0, -0.26590320467948914, -3.3057539463043213, -0.22259235382080078
14560, -0.09100478142499924, -0.021336475387215614, -0.012544415891170502, -0.19264046847820282, -0.1443503350019455, -0.24125652015209198, -0.001125443377532065, -0.0051958742551505566, 0.9983119368553162, -0.26630526781082153, -3.311279773712158, -0.22299373149871826, 0.0, 0.0, 0.0, 0, 0, 0, 0, 0, 0, -0.26630526781082153, -3.311279773712158, -0.22299373149871826
14570, -0.09210549294948578, -0.018992377445101738, -0.012932798825204372, -0.06345389783382416, -0.09630740433931351, 0.026439083740115166, -0.00040926941437646747, -0.006083753891289234, 0.9983657598495483, -0.26670706272125244, -3.31680965423584, -0.22339633107185364, 0.0, 0.0, 0.0, 0, 0, 0, 0, 0, 0, -0.26670706272125244, -3.31680965423584, -0.22339633107185364
14580, -0.09280399978160858, -0.019169190898537636, -0.012311933562159538, -0.10839395970106125, -0.07013430446386337, -0.034813862293958664, -0.0018654812593013048, -0.0073456550016999245, 0.998139500617981, -0.26710912585258484, -3.3223440647125244, -0.22380056977272034, 0.0, 0.0, 0.0, 0, 0, 0, 0, 0, 0, -0.26710912585258484, -3.3223440647125244, -0.22380056977272034
14590, -0.09297335892915726, -0.018873702734708786, -0.012783878482878208, 0.09258115291595459, -0.011635096743702888, -0.19951634109020233, 0.0005973942461423576, -0.00584426848217845, 0.9990148544311523, -0.26751193404197693, -3.327883720397949, -0.22420649230480194, 0.0, 0.0, 0.0, 0, 0, 0, 0, 0, 0, -0.26751193404197693, -3.327883720397949, -0.22420649230480194
14600, -0.09329938143491745, -0.019497165456414223, -0.012161371298134327, -0.1283314973115921, -0.0017032716423273087, 0.028155377134680748, -0.0017949858447536826, -0.006592197809368372, 1.0002895593643188, -0.2679152190685272, -3.333428144454956, -0.22461365163326263, 0.0, 0.0, 0.0, 0, 0, 0, 0, 0, 0, -0.2679152190685272, -3.333428144454956, -0.22461365163326263
14610, -0.0931737944483757, -0.018462074920535088, -0.013272558338940144, 0.03715576231479645, -0.010155381634831429, 0.009755803272128105, -0.0017209501238539815, -0.0072552780620753765, 0.9985156059265137, -0.2683190703392029, -3.338977336883545, -0.2250216156244278, 0.0, 0.0, 0.0, 0, 0, 0, 0, 0, 0, -0.2683190703392029, -3.338977336883545, -0.2250216156244278
14620, -0.09269601106643677, -0.0157326553016901, -0.012151987291872501, 0.03790896013379097, -0.2323063611984253, -0.07995492964982986, -0.0026628575287759304, -0.006463253404945135, 1.0004899501800537, -0.2687247693538666, -3.344531536102295, -0.2254302203655243, 0.0, 0.0, 0.0, 0, 0, 0, 0, 0, 0, -0.2687247693538666, -3.344531536102295, -0.2254302203655243
14630, -0.09270334988832474, -0.013391705229878426, -0.012915450148284435, -0.09399950504302979, 0.21674734354019165, 0.11834565550088882, -3.1543606837658444e-06, -0.0052393958903849125, 1.0017212629318237, -0.26913222670555115, -3.350090742111206, -0.2258385270833969, 0.0, 0.0, 0.0, 0, 0, 0, 0, 0, 0, -0.26913222670555115, -3.350090742111206, -0.2258385270833969
14640, -0.0929635688662529, -0.015647554770112038, -0.013224934227764606, 0.1328410655260086, 0.056813325732946396, -0.05116677284240723, 0.0002044633001787588, -0.007354665547609329, 0.9984827041625977, -0.26954007148742676, -3.355653762817383, -0.22624571621418, 0.0, 0.0, 0.0, 0, 0, 0, 0, 0, 0, -0.26954007148742676, -3.355653762817383, -0.22624571621418
14650, -0.09319750964641571, -0.015110301785171032, -0.012211687862873077, -0.1663508415222168, 0.004130832385271788, -0.011175265535712242, -0.0012738971272483468, -0.008254584856331348, 0.9999036192893982, -0.26994773745536804, -3.3612217903137207, -0.22665326297283173, 0.0, 0.0, 0.0, 0, 0, 0, 0, 0, 0, -0.26994773745536804, -3.3612217903137207, -0.22665326297283173
14660, -0.09346097707748413, -0.015474243089556694, -0.012202316895127296, 0.16482433676719666, -0.21484273672103882, -0.06940475106239319, -0.000689693377353251, -0.006858779117465019, 0.999705970287323, -0.2703556716442108, -3.3667960166931152, -0.22706155478954315, 0.0, 0.0, 0.0, 0, 0, 0, 0, 0, 0, -0.2703556716442108, -3.3667960166931152, -0.22706155478954315
14670, -0.09354032576084137, -0.01392362080514431, -0.010889719240367413, -0.03499980270862579, 0.06604821979999542, 0.22786787152290344, -0.0007437987951561809, -0.005552604328840971, 0.9991265535354614, -0.27076441049575806, -3.37237548828125, -0.22746995091438293, 0.0, 0.0, 0.0, 0, 0, 0, 0, 0, 0, -0.27076441049575806, -3.37237548828125, -0.22746995091438293
14680, -0.09403788298368454, -0.015753602609038353, -0.0117422416806221, -0.0713191106915474, 0.06663969904184341, -0.23170903325080872, -0.0014394726604223251, -0.006852106191217899, 0.997943103313446, -0.27117377519607544, -3.3779594898223877, -0.2278793305158615, 0.0, 0.0, 0.0, 0, 0, 0, 0, 0, 0, -0.27117377519607544, -3.3779594898223877, -0.2278793305158615
14690, -0.09384386986494064, -0.01709618791937828, -0.01248245034366846, 0.08830773085355759, 0.22066493332386017, -0.39063727855682373, -0.000991859007626772, -0.006161368917673826, 0.9987533092498779, -0.27158376574516296, -3.383547782897949, -0.22829028964042664, 0.0, 0.0, 0.0, 0, 0, 0, 0, 0, 0, -0.27158376574516296, -3.383547782897949, -0.22829028964042664
14700, -0.0933581292629242, -0.019610848277807236, -0.013074087910354137, -0.04682845622301102, -0.04792862758040428, -0.11879388242959976, -0.0006627290858887136, -0.005803308915346861, 1.0016473531723022, -0.2719947397708893, -3.3891406059265137, -0.22870232164859772, 0.0, 0.0, 0.0, 0, 0, 0, 0, 0, 0, -0.2719947397708893, -3.3891406059265137, -0.22870232164859772
14710, -0.09311006963253021, -0.018652664497494698, -0.014822418801486492, 0.06720750778913498, 0.03914357349276543, 0.07189823687076569, -0.0011578372213989496, -0.00489178067073226, 0.999708890914917, -0.2724061906337738, -3.394737482070923, -0.22911396622657776, 0.0, 0.0, 0.0, 0, 0, 0, 0, 0, 0, -0.2724061906337738, -3.394737482070923, -0.22911396622657776
14720, -0.09194452315568924, -0.01736183650791645, -0.015922851860523224, 0.022776072844862938, -0.10998810082674026, -0.068932443857193, 0.00024604605278000236, -0.005412796046584845, 0.999191164970398, -0.272817999124527, -3.4003376960754395, -0.22952516376972198, 0.0, 0.0, 0.0, 0, 0, 0, 0, 0, 0, -0.272817999124527, -3.4003376960754395, -0.22952516376972198
14730, -0.09173060208559036, -0.018851207569241524, -0.0148411113768816, -0.13605542480945587, -0.053242288529872894, 0.18607653677463531, -0.002147040097042918, -0.005640450399369001, 1.0014196634292603, -0.2732301950454712, -3.405941963195801, -0.22993671894073486, 0.0, 0.0, 0.0, 0, 0, 0, 0, 0, 0, -0.2732301950454712, -3.405941963195801, -0.22993671894073486
14740, -0.09204135090112686, -0.018794231116771698, -0.013958271592855453, -0.1603604406118393, 0.29067081212997437, 0.2671371102333069, -0.0014193668030202389, -0.0069006080739200115, 0.9999819397926331, -0.2736433744430542, -3.411550521850586, -0.2303476631641388, 0.0, 0.0, 0.0, 0, 0, 0, 0, 0, 0, -0.2736433744430542, -3.411550521850586, -0.2303476631641388
14750, -0.09250067919492722, -0.020846394822001457, -0.011811918579041958, 0.07742670923471451, 0.006446093786507845, 0.12333142012357712, 0.00024819752434268594, -0.005546080879867077, 1.0013937950134277, -0.27405765652656555, -3.417163848876953, -0.23075804114341736, 0.0, 0.0, 0.0, 0, 0, 0, 0, 0, 0, -0.27405765652656555, -3.417163848876953, -0.23075804114341736
14760, -0.09261620044708252, -0.020486069843173027, -0.0113017987459898, -0.10347465425729752, -0.34031012654304504, 0.29981479048728943, -0.0007831841940060258, -0.0051196301355957985, 0.9997119903564453, -0.27447184920310974, -3.422781229019165, -0.23116812109947205, 0.0, 0.0, 0.0, 0, 0, 0, 0, 0, 0, -0.27447184920310974, -3.422781229019165, -0.23116812109947205
14770, -0.0931054949760437, -0.01891811192035675, -0.010980264283716679, -0.10747720301151276, 0.12351950258016586, -0.3060495853424072, 0.0004300795553717762, -0.005012813489884138, 1.001120924949646, -0.2748861610889435, -3.4284019470214844, -0.23157745599746704, 0.0, 0.0, 0.0, 0, 0, 0, 0, 0, 0, -0.2748861610889435, -3.4284019470214844, -0.23157745599746704
14780, -0.09250476211309433, -0.019500181078910828, -0.011103115044534206, 0.08844739198684692, -0.1893380880355835, 0.03512665256857872, 6.51575974188745e-05, -0.00344195868819952, 0.9995245337486267, -0.2753003239631653, -3.434026002883911, -0.23198620975017548, 0.0, 0.0, 0.0, 0, 0, 0, 0, 0, 0, -0.2753003239631653, -3.434026002883911, -0.23198620975017548
14790, -0.09192134439945221, -0.020285315811634064, -0.011357983574271202, 0.08308031409978867, 0.19146576523780823, -0.1677526831626892, 0.00016882133786566556, -0.004269988276064396, 1.0008776187896729, -0.27571389079093933, -3.439652442932129, -0.23239479959011078, 0.0, 0.0, 0.0, 0, 0, 0, 0, 0, 0, -0.27571389079093933, -3.439652442932129, -0.23239479959011078
14800, -0.09311001747846603, -0.021645531058311462, -0.013160969130694866, -0.24059975147247314, 0.20634765923023224, -0.05078039690852165, 0.0015278332866728306, -0.005842991638928652, 1.0005388259887695, -0.2761269807815552, -3.4452812671661377, -0.23280292749404907, 0.0, 0.0, 0.0, 0, 0, 0, 0, 0, 0, -0.2761269807815552, -3.4452812671661377, -0.23280292749404907
14810, -0.09389541298151016, -0.022679777815937996, -0.012559941969811916, -0.042169686406850815, 0.24345654249191284, -0.15143825113773346, 0.0005627074860967696, -0.007079953793436289, 0.9976242184638977, -0.2765388786792755, -3.450913667678833, -0.23321078717708588, 0.0, 0.0, 0.0, 0, 0, 0, 0, 0, 0, -0.2765388786792755, -3.450913667678833, -0.23321078717708588
14820, -0.0958363339304924, -0.023463329300284386, -0.012651952914893627, 0.011805822141468525, -0.021636249497532845, 0.1447175294160843, -0.00032074475893750787, -0.005509744863957167, 1.0001617670059204, -0.2769496738910675, -3.456550359725952, -0.23361964523792267, 0.0, 0.0, 0.0, 0, 0, 0, 0, 0, 0, -0.2769496738910675, -3.456550359725952, -0.23361964523792267
14830, -0.09550951421260834, -0.02436228282749653, -0.01182401180267334, 0.14725114405155182, 0.010937775485217571, -0.003010299289599061, -0.0015720099909231067, -0.00499609112739563, 0.9992075562477112, -0.27736029028892517, -3.462191343307495, -0.23402929306030273, 0.0, 0.0, 0.0, 0, 0, 0, 0, 0, 0, -0.27736029028892517, -3.462191343307495, -0.23402929306030273
14840, -0.09522400796413422, -0.02469906583428383, -0.01208416186273098, -0.08656955510377884, 0.3703500032424927, -0.10306579619646072, -0.00284815882332623, -0.004909302107989788, 1.0010541677474976, -0.2777717113494873, -3.4678356647491455, -0.23443914949893951, 0.0, 0.0, 0.0, 0, 0, 0, 0, 0, 0, -0.2777717113494873, -3.4678356647491455, -0.23443914949893951
14850, -0.09508481621742249, -0.0273663979023695, -0.012251444160938263, -0.1913170963525772, 0.04379123076796532, -0.12495909631252289, -0.0009561958140693605, -0.005352321080863476, 1.0012627840042114, -0.2781847417354584, -3.4734833240509033, -0.2348484992980957, 0.0, 0.0, 0.0, 0, 0, 0, 0, 0, 0, -0.2781847417354584, -3.4734833240509033, -0.2348484992980957
14860, -0.09599825739860535, -0.028888996690511703, -0.013629640452563763, -0.14257320761680603, -0.013546967878937721, 0.050988659262657166, 0.002011484233662486, -0.007214411161839962, 0.9997450709342957, -0.27859821915626526, -3.479135036468506, -0.23525702953338623, 0.0, 0.0, 0.0, 0, 0, 0, 0, 0, 0, -0.27859821915626526, -3.479135036468506, -0.23525702953338623
14870, -0.09672629833221436, -0.029057327657938004, -0.012603084556758404, -0.13640132546424866, 0.1556471288204193, -0.06383562833070755, 0.0018940031295642257, -0.00645475834608078, 0.9997162222862244, -0.27901002764701843, -3.4847912788391113, -0.23566536605358124, 0.0, 0.0, 0.0, 0, 0, 0, 0, 0, 0, -0.27901002764701843, -3.4847912788391113, -0.23566536605358124
14880, -0.09735061228275299, -0.029705388471484184, -0.012935559265315533, 0.14226718246936798, -0.08609499037265778, 0.11076869815587997, -0.0005134801031090319, -0.005372826475650072, 1.0002862215042114, -0.27941980957984924, -3.490452289581299, -0.23607401549816132, 0.0, 0.0, 0.0, 0, 0, 0, 0, 0, 0, -0.27941980957984924, -3.490452289581299, -0.23607401549816132
14890, -0.09679470211267471, -0.029873838648200035, -0.012437297962605953, 0.0686066597700119, 0.1331121176481247, -0.20880675315856934, -0.0008943097200244665, -0.008586779236793518, 1.0006282329559326, -0.27982890605926514, -3.49611759185791, -0.23648248612880707, 0.0, 0.0, 0.0, 0, 0, 0, 0, 0, 0, -0.27982890605926514, -3.49611759185791, -0.23648248612880707
14900, -0.09769899398088455, -0.03015415370464325, -0.013930612243711948, -0.07282029092311859, -0.44156697392463684, 0.099233478307724, -0.0008191658416762948, -0.006475245580077171, 0.9997622966766357, -0.28023815155029297, -3.501788377761841, -0.23689080774784088, 0.0, 0.0, 0.0, 0, 0, 0, 0, 0, 0, -0.28023815155029297, -3.501788377761841, -0.23689080774784088
14910, -0.09641579538583755, -0.0289719570428133, -0.014189058914780617, 0.11658305674791336, -0.04998629167675972, 0.08264273405075073, -0.0010233529610559344, -0.006578254513442516, 1.001198172569275, -0.28064778447151184, -3.50746488571167, -0.23729923367500305, 0.0, 0.0, 0.0, 0, 0, 0, 0, 0, 0, -0.28064778447151184, -3.50746488571167, -0.23729923367500305
14920, -0.09686680138111115, -0.02806846797466278, -0.015367208048701286, -0.05936066061258316, 0.017801497131586075, -0.002972725545987487, -0.0009615197195671499, -0.007877377793192863, 1.003387212753296, -0.28105783462524414, -3.513146162033081, -0.23770666122436523, 0.0, 0.0, 0.0, 0, 0, 0, 0, 0, 0, -0.28105783462524414, -3.513146162033081, -0.23770666122436523
14930, -0.09739504009485245, -0.02833244763314724, -0.013890800066292286, -0.15976427495479584, 0.14188869297504425, -0.053501009941101074, -0.0013324624160304666, -0.005758078768849373, 1.0000861883163452, -0.2814684510231018, -3.5188329219818115, -0.23811203241348267, 0.0, 0.0, 0.0, 0, 0, 0, 0, 0, 0, -0.2814684510231018, -3.5188329219818115, -0.23811203241348267
14940, -0.09884020686149597, -0.027689065784215927, -0.015938114374876022, -0.03560668230056763, -0.16709798574447632, -0.08681107312440872, 0.0002272493438795209, -0.006203056778758764, 1.0002316236495972, -0.2818797826766968, -3.524524450302124, -0.23851624131202698, 0.0, 0.0, 0.0, 0, 0, 0, 0, 0, 0, -0.2818797826766968, -3.524524450302124, -0.23851624131202698
14950, -0.09770970791578293, -0.02616238035261631, -0.01594545505940914, -0.020486172288656235, -0.16378456354141235, 0.21223478019237518, 0.001092751044780016, -0.006186091341078281, 0.9994847178459167, -0.28229081630706787, -3.5302200317382812, -0.2389204502105713, 0.0, 0.0, 0.0, 0, 0, 0, 0, 0, 0, -0.28229081630706787, -3.5302200317382812, -0.2389204502105713
14960, -0.09732476621866226, -0.025139102712273598, -0.01605137251317501, 0.04898364096879959, 0.15004603564739227, 0.19089724123477936, 0.00035210794885642827, -0.00543458666652441, 0.9992300271987915, -0.2827005684375763, -3.5359201431274414, -0.23932474851608276, 0.0, 0.0, 0.0, 0, 0, 0, 0, 0, 0, -0.2827005684375763, -3.5359201431274414, -0.23932474851608276
14970, -0.0965142473578453, -0.026241851970553398, -0.015777919441461563, 0.1675056666135788, 0.22182682156562805, 0.10047122836112976, -0.0006494944682344794, -0.004750594962388277, 0.9986857771873474, -0.2831093370914459, -3.5416243076324463, -0.239729642868042, 0.0, 0.0, 0.0, 0, 0, 0, 0, 0, 0, -0.2831093370914459, -3.5416243076324463, -0.239729642868042
14980, -0.0957692414522171, -0.027498777955770493, -0.014643466100096703, 0.061128169298172, 0.1355142742395401, 0.08891608566045761, 0.002080682897940278, -0.007071042433381081, 0.9985591769218445, -0.2835176885128021, -3.5473320484161377, -0.24013572931289673, 0.0, 0.0, 0.0, 0, 0, 0, 0, 0, 0, -0.2835176885128021, -3.5473320484161377, -0.24013572931289673
14990, -0.09609469026327133, -0.027704713866114616, -0.014093459583818913, 0.13945071399211884, 0.14292095601558685, 0.12918326258659363, 0.00028864838532172143, -0.007822198793292046, 0.9988117814064026, -0.2839246690273285, -3.553044319152832, -0.2405432015657425, 0.0, 0.0, 0.0, 0, 0, 0, 0, 0, 0, -0.2839246690273285, -3.553044319152832, -0.2405432015657425
15000, -0.09630022197961807, -0.029322776943445206, -0.012903664261102676, -0.03911300748586655, -0.17523691058158875, -0.10210290551185608, -0.004840552341192961, -0.005325524602085352, 1.0007727146148682, -0.28433096408843994, -3.5587618350982666, -0.2409515678882599, 0.0, 0.0, 0.0, 0, 0, 0, 0, 0, 0, -0.28433096408843994, -3.5587618350982666, -0.2409515678882599
15010, -0.09630482643842697, -0.029103167355060577, -0.012886680662631989, 0.14588545262813568, 0.22722606360912323, -0.010512000881135464, -0.000658318167552352, -0.006486072205007076, 1.001520037651062, -0.2847394347190857, -3.564484119415283, -0.2413596212863922, 0.0, 0.0, 0.0, 0, 0, 0, 0, 0, 0, -0.2847394347190857, -3.564484119415283, -0.2413596212863922
15020, -0.09543591737747192, -0.03124108351767063, -0.011201032437384129, -0.03734060004353523, 0.38084277510643005, 0.2878439128398895, 0.0017613305244594812, -0.006086687557399273, 1.0003893375396729, -0.2851489186286926, -3.5702106952667236, -0.24176661670207977, 0.0, 0.0, 0.0, 0, 0, 0, 0, 0, 0, -0.2851489186286926, -3.5702106952667236, -0.24176661670207977
15030, -0.09523455798625946, -0.03276680409908295, -0.010101343505084515, -0.08790481835603714, -0.10696651041507721, 0.22148309648036957, 0.002330818912014365, -0.007267917972058058, 0.9994510412216187, -0.2855566740036011, -3.575942039489746, -0.2421734780073166, 0.0, 0.0, 0.0, 0, 0, 0, 0, 0, 0, -0.2855566740036011, -3.575942039489746, -0.2421734780073166
15040, -0.09706754237413406, -0.032612841576337814, -0.007993114180862904, 0.05188286677002907, 0.053863801062107086, -0.03904130309820175, 0.0006837352411821485, -0.004315674304962158, 1.001014232635498, -0.28596195578575134, -3.5816781520843506, -0.24258044362068176, 0.0, 0.0, 0.0, 0, 0, 0, 0, 0, 0, -0.28596195578575134, -3.5816781520843506, -0.24258044362068176
15050, -0.09754206240177155, -0.031950753182172775, -0.008794073015451431, -0.0963020846247673, 0.04247443377971649, 0.10219598561525345, -0.0013327234191820025, -0.004503101576119661, 1.0013375282287598, -0.28636589646339417, -3.5874176025390625, -0.2429867386817932, 0.0, 0.0, 0.0, 0, 0, 0, 0, 0, 0, -0.28636589646339417, -3.5874176025390625, -0.2429867386817932
15060, -0.0974724069237709, -0.03219466283917427, -0.009399253875017166, -0.045203518122434616, -0.05329723283648491, -0.016415255144238472, -0.00013418716844171286, -0.005438259337097406, 0.9993064403533936, -0.28676995635032654, -3.5931599140167236, -0.24339213967323303, 0.0, 0.0, 0.0, 0, 0, 0, 0, 0, 0, -0.28676995635032654, -3.5931599140167236, -0.24339213967323303
15070, -0.0976046770811081, -0.032223399728536606, -0.010514331050217152, -0.10704904794692993, -0.027743816375732422, -0.221287801861763, -0.0021919214632362127, -0.005545362364500761, 0.9985072612762451, -0.28717443346977234, -3.5989058017730713, -0.24379773437976837, 0.0, 0.0, 0.0, 0, 0, 0, 0, 0, 0, -0.28717443346977234, -3.5989058017730713, -0.24379773437976837
15080, -0.0979977622628212, -0.03207556903362274, -0.011508474126458168, 0.021616311743855476, -0.08771603554487228, 0.1474130004644394, 0.00015959235315676779, -0.006961893290281296, 0.9987981915473938, -0.28757956624031067, -3.6046557426452637, -0.24420462548732758, 0.0, 0.0, 0.0, 0, 0, 0, 0, 0, 0, -0.28757956624031067, -3.6046557426452637, -0.24420462548732758
15090, -0.09827476739883423, -0.03399363160133362, -0.011035912670195103, -0.12949253618717194, 0.15924805402755737, -0.24973593652248383, 0.0008162372978404164, -0.005855522584170103, 1.0000094175338745, -0.2879846394062042, -3.610410451889038, -0.2446126639842987, 0.0, 0.0, 0.0, 0, 0, 0, 0, 0, 0, -0.2879846394062042, -3.610410451889038, -0.2446126639842987
15100, -0.09893608093261719, -0.03161393851041794, -0.011453650891780853, -0.0676196739077568, -0.38610219955444336, 0.12621009349822998, 0.0008315289742313325, -0.004270295612514019, 0.9994175434112549, -0.28838828206062317, -3.6161694526672363, -0.2450212836265564, 0.0, 0.0, 0.0, 0, 0, 0, 0, 0, 0, -0.28838828206062317, -3.6161694526672363, -0.2450212836265564
15110, -0.0990627110004425, -0.030759058892726898, -0.013105012476444244, 0.12271807342767715, 0.12404796481132507, -0.03313113749027252, 4.3281528633087873e-05, -0.00529117975383997, 0.9994796514511108, -0.2887907028198242, -3.621931552886963, -0.24543023109436035, 0.0, 0.0, 0.0, 0, 0, 0, 0, 0, 0, -0.2887907028198242, -3.621931552886963, -0.24543023109436035
15120, -0.09914916008710861, -0.02989778108894825, -0.014222891069948673, 0.1781226247549057, 0.11781972646713257, 0.013684148900210857, 0.0007050356944091618, -0.005121759604662657, 1.0004726648330688, -0.28919243812561035, -3.6276967525482178, -0.2458394318819046, 0.0, 0.0, 0.0, 0, 0, 0, 0, 0, 0, -0.28919243812561035, -3.6276967525482178, -0.2458394318819046
15130, -0.0978197529911995, -0.03000045381486416, -0.013787899166345596, -0.003369744634255767, 0.006102082319557667, -0.040641989558935165, 0.0007675468805246055, -0.0033818508964031935, 0.9979554414749146, -0.28959324955940247, -3.63346529006958, -0.24624891579151154, 0.0, 0.0, 0.0, 0, 0, 0, 0, 0, 0, -0.28959324955940247, -3.63346529006958, -0.24624891579151154
15140, -0.09807088226079941, -0.03205770626664162, -0.013620950281620026, -0.05476148799061775, 0.33353230357170105, -0.04510825499892235, -0.00021231053688097745, -0.0065967547707259655, 0.9972559809684753, -0.2899931073188782, -3.6392362117767334, -0.24665969610214233, 0.0, 0.0, 0.0, 0, 0, 0, 0, 0, 0, -0.2899931073188782, -3.6392362117767334, -0.24665969610214233
15150, -0.09835314750671387, -0.032243628054857254, -0.013530030846595764, 0.002176365116611123, -0.10513685643672943, 0.04063962772488594, -0.0017305867513641715, -0.006309805903583765, 0.9985471367835999, -0.29039254784584045, -3.6450107097625732, -0.2470729798078537, 0.0, 0.0, 0.0, 0, 0, 0, 0, 0, 0, -0.29039254784584045, -3.6450107097625732, -0.2470729798078537
15160, -0.09857680648565292, -0.03180214762687683, -0.014275851659476757, -0.08159536868333817, 0.160837322473526, 0.23629862070083618, -0.0022895552683621645, -0.004286322742700577, 0.9995766282081604, -0.2907927632331848, -3.650789976119995, -0.2474881410598755, 0.0, 0.0, 0.0, 0, 0, 0, 0, 0, 0, -0.2907927632331848, -3.650789976119995, -0.2474881410598755
15170, -0.09878044575452805, -0.030731333419680595, -0.013521870598196983, -0.343127578496933, -0.01738141104578972, 0.034032899886369705, -0.001808304456062615, -0.0032789353281259537, 0.9999390244483948, -0.2911945879459381, -3.656571865081787, -0.2479037195444107, 0.0, 0.0, 0.0, 0, 0, 0, 0, 0, 0, -0.2911945879459381, -3.656571865081787, -0.2479037195444107
15180, -0.0998593270778656, -0.029505228623747826, -0.013216746039688587, 0.01195584423840046, -0.38300424814224243, -0.12589585781097412, -0.0008540187263861299, -0.005399346351623535, 0.9996297359466553, -0.2915978729724884, -3.662355899810791, -0.248319610953331, 0.0, 0.0, 0.0, 0, 0, 0, 0, 0, 0, -0.2915978729724884, -3.662355899810791, -0.248319610953331
15190, -0.10009469836950302, -0.02855825610458851, -0.014743109233677387, 0.06702783703804016, 0.2031334936618805, -0.11440479755401611, -0.0013708265032619238, -0.004842815455049276, 0.9989466071128845, -0.29200178384780884, -3.668142795562744, -0.2487359642982483, 0.0, 0.0, 0.0, 0, 0, 0, 0, 0, 0, -0.29200178384780884, -3.668142795562744, -0.2487359642982483
15200, -0.10009869933128357, -0.02822694182395935, -0.01520791556686163, -0.05536315590143204, -0.12231048941612244, 0.141631081700325, -0.001161071821115911, -0.004833079408854246, 0.9995149374008179, -0.2924063205718994, -3.673933267593384, -0.24915282428264618, 0.0, 0.0, 0.0, 0, 0, 0, 0, 0, 0, -0.2924063205718994, -3.673933267593384, -0.24915282428264618
15210, -0.0996430441737175, -0.027991851791739464, -0.013795425184071064, -0.0017773202853277326, -0.20329028367996216, -0.05856155604124069, -0.00042165355989709496, -0.005570782348513603, 0.9984080791473389, -0.29281163215637207, -3.6797268390655518, -0.24957020580768585, 0.0, 0.0, 0.0, 0, 0, 0, 0, 0, 0, -0.29281163215637207, -3.6797268390655518, -0.24957020580768585
15220, -0.09923172742128372, -0.026353435590863228, -0.01376565545797348, 0.07933899015188217, 0.3211261034011841, 0.03153229504823685, -0.001154986908659339, -0.007336268667131662, 1.0012316703796387, -0.29321736097335815, -3.6855242252349854, -0.24998822808265686, 0.0, 0.0, 0.0, 0, 0, 0, 0, 0, 0, -0.29321736097335815, -3.6855242252349854, -0.24998822808265686
15230, -0.0988549068570137, -0.028787922114133835, -0.014204636216163635, 0.05267727002501488, -0.24269865453243256, -0.09604677557945251, -0.001402711495757103, -0.007008707616478205, 1.0022474527359009, -0.29362383484840393, -3.69132661819458, -0.2504059076309204, 0.0, 0.0, 0.0, 0, 0, 0, 0, 0, 0, -0.29362383484840393, -3.69132661819458, -0.2504059076309204
15240, -0.09898623824119568, -0.02720998413860798, -0.014564563520252705, -0.17343804240226746, -0.0944925993680954, -0.107566237449646, -0.0006389516638591886, -0.005917972885072231, 0.9990922212600708, -0.2940312325954437, -3.697134256362915, -0.25082194805145264, 0.0, 0.0, 0.0, 0, 0, 0, 0, 0, 0, -0.2940312325954437, -3.697134256362915, -0.25082194805145264
15250, -0.09945128113031387, -0.026515692472457886, -0.014443755149841309, -0.09082642942667007, 0.16228418052196503, -0.10489632189273834, 0.001107789226807654, -0.007083728909492493, 0.9988274574279785, -0.29443874955177307, -3.702946424484253, -0.2512376606464386, 0.0, 0.0, 0.0, 0, 0, 0, 0, 0, 0, -0.29443874955177307, -3.702946424484253, -0.2512376606464386
15260, -0.09940600395202637, -0.027596885338425636, -0.015322660095989704, 0.035881996154785156, -0.057893555611371994, 0.06698591262102127, -0.0015540156746283174, -0.00639243284240365, 1.000190258026123, -0.2948455512523651, -3.7087631225585938, -0.2516542673110962, 0.0, 0.0, 0.0, 0, 0, 0, 0, 0, 0, -0.2948455512523651, -3.7087631225585938, -0.2516542673110962
15270, -0.09918338805437088, -0.027130618691444397, -0.01543418224900961, 0.023216404020786285, 0.018794331699609756, 0.04103254899382591, 0.00024542317260056734, -0.004787491634488106, 0.9989471435546875, -0.29525211453437805, -3.7145843505859375, -0.25207120180130005, 0.0, 0.0, 0.0, 0, 0, 0, 0, 0, 0, -0.29525211453437805, -3.7145843505859375, -0.25207120180130005
15280, -0.09984493255615234, -0.026246923953294754, -0.01614588126540184, -0.17626164853572845, -0.21479035913944244, -0.09714375436306, -0.00038629333721473813, -0.003352170344442129, 1.000404953956604, -0.29569947719573975, -3.720991611480713, -0.2525300979614258, 0.0, 0.0, 0.0, 0, 0, 0, 0, 0, 0, -0.29569947719573975, -3.720991611480713, -0.2525300979614258
15290, -0.09983399510383606, -0.025506524369120598, -0.014569047838449478, 0.027978919446468353, 0.12263298779726028, 0.07819163799285889, 0.0006308628362603486, -0.007325571496039629, 1.0016776323318481, -0.29610559344291687, -3.7268190383911133, -0.2529471516609192, 0.0, 0.0, 0.0, 0, 0, 0, 0, 0, 0, -0.29610559344291687, -3.7268190383911133, -0.2529471516609192
15300, -0.09985191375017166, -0.02402803674340248, -0.013601584360003471, -0.0799831673502922, 0.02044096030294895, 0.240225151181221, 0.0008367315749637783, -0.004819091409444809, 0.9999193549156189, -0.2965106666088104, -3.7326502799987793, -0.25336337089538574, 0.0, 0.0, 0.0, 0, 0, 0, 0, 0, 0, -0.2965106666088104, -3.7326502799987793, -0.25336337089538574
15310, -0.09952782094478607, -0.023964891210198402, -0.01365948561578989, -0.14867177605628967, 0.13689380884170532, -0.021950794383883476, -0.0014753760769963264, -0.005504051689058542, 0.9998219013214111, -0.2969151437282562, -3.738485813140869, -0.25377947092056274, 0.0, 0.0, 0.0, 0, 0, 0, 0, 0, 0, -0.2969151437282562, -3.738485813140869, -0.25377947092056274
15320, -0.10090089589357376, -0.025398878380656242, -0.01371944509446621, -0.021422764286398888, 0.17373688519001007, 0.1337408423423767, -0.0002484494762029499, -0.004362224135547876, 1.0004745721817017, -0.29732024669647217, -3.7443246841430664, -0.2541957497596741, 0.0, 0.0, 0.0, 0, 0, 0, 0, 0, 0, -0.29732024669647217, -3.7443246841430664, -0.2541957497596741
15330, -0.10108449310064316, -0.027382180094718933, -0.013623903505504131, 0.02295864000916481, 0.10301105678081512, 0.03134782239794731, -0.001453630393370986, -0.006050728727132082, 0.999728262424469, -0.29772573709487915, -3.750166654586792, -0.25461187958717346, 0.0, 0.0, 0.0, 0, 0, 0, 0, 0, 0, -0.29772573709487915, -3.750166654586792, -0.25461187958717346
15340, -0.10046809166669846, -0.028293050825595856, -0.014476102776825428, -0.055327437818050385, 0.07933631539344788, -0.10373669862747192, -0.0004792668914888054, -0.004902769811451435, 1.0008785724639893, -0.29813170433044434, -3.756011962890625, -0.2550276815891266, 0.0, 0.0, 0.0, 0, 0, 0, 0, 0, 0, -0.29813170433044434, -3.756011962890625, -0.2550276815891266
15350, -0.10034564137458801, -0.02672867849469185, -0.01569494418799877, -0.007673607673496008, 0.1322985589504242, -0.16392788290977478, -4.564349364954978e-05, -0.00488010561093688, 1.0015825033187866, -0.2985379099845886, -3.7618608474731445, -0.25544273853302, 0.0, 0.0, 0.0, 0, 0, 0, 0, 0, 0, -0.2985379099845886, -3.7618608474731445, -0.25544273853302
15360, -0.10040818154811859, -0.02948739193379879, -0.016209257766604424, -0.044412314891815186, 0.28613990545272827, 0.03840668871998787, -0.0009869494242593646, -0.0066839889623224735, 0.9993621110916138, -0.29894372820854187, -3.7677133083343506, -0.2558569610118866, 0.0, 0.0, 0.0, 0, 0, 0, 0, 0, 0, -0.29894372820854187, -3.7677133083343506, -0.2558569610118866
15370, -0.10109887272119522, -0.03074587881565094, -0.01581732928752899, -0.14191515743732452, -0.048734039068222046, -0.07668310403823853, -0.0016314543318003416, -0.006924762390553951, 0.9997380375862122, -0.2993498742580414, -3.7735700607299805, -0.2562708258628845, 0.0, 0.0, 0.0, 0, 0, 0, 0, 0, 0, -0.2993498742580414, -3.7735700607299805, -0.2562708258628845
15380, -0.10094089061021805, -0.02781708352267742, -0.015968848019838333, 0.040778953582048416, -0.21491722762584686, -0.3443678021430969, -0.0013852034462615848, -0.00743114436045289, 0.998490571975708, -0.29975685477256775, -3.7794320583343506, -0.2566853165626526, 0.0, 0.0, 0.0, 0, 0, 0, 0, 0, 0, -0.29975685477256775, -3.7794320583343506, -0.2566853165626526
15390, -0.0998990386724472, -0.028501266613602638, -0.014984178356826305, 0.045498721301555634, 0.006603692192584276, 0.23691599071025848, -0.00026599669945426285, -0.008312245830893517, 0.9992277026176453, -0.30016452074050903, -3.785299777984619, -0.2571007311344147, 0.0, 0.0, 0.0, 0, 0, 0, 0, 0, 0, -0.30016452074050903, -3.785299777984619, -0.2571007311344147
15400, -0.0990707129240036, -0.027250153943896294, -0.015602773986756802, -0.017422489821910858, -0.02537907473742962, 0.0034848926588892937, -0.0008445608546026051, -0.005606646649539471, 0.9986099600791931, -0.3005725145339966, -3.791173219680786, -0.25751692056655884, 0.0, 0.0, 0.0, 0, 0, 0, 0, 0, 0, -0.3005725145339966, -3.791173219680786, -0.25751692056655884
15410, -0.09906768798828125, -0.029402058571577072, -0.014623495750129223, 0.028144532814621925, -0.06886056810617447, 0.11598023027181625, -0.001932282350026071, -0.005911977030336857, 0.9988877773284912, -0.30098116397857666, -3.797051429748535, -0.2579341232776642, 0.0, 0.0, 0.0, 0, 0, 0, 0, 0, 0, -0.30098116397857666, -3.797051429748535, -0.2579341232776642
15420, -0.09865067154169083, -0.028183797374367714, -0.014261869713664055, 0.18221122026443481, -0.09336855262517929, -0.07628447562456131, -0.00042731084977276623, -0.007136874366551638, 1.0013532638549805, -0.3013908267021179, -3.802933692932129, -0.258351594209671, 0.0, 0.0, 0.0, 0, 0, 0, 0, 0, 0, -0.3013908267021179, -3.802933692932129, -0.258351594209671
15430, -0.09771593660116196, -0.029891951009631157, -0.012287456542253494, -0.07278522104024887, 0.18056896328926086, 0.1511090099811554, -0.002281178254634142, -0.00735819898545742, 1.0015668869018555, -0.3018013834953308, -3.808821439743042, -0.25876861810684204, 0.0, 0.0, 0.0, 0, 0, 0, 0, 0, 0, -0.3018013834953308, -3.808821439743042, -0.25876861810684204
15440, -0.09861300885677338, -0.030039142817258835, -0.011910362169146538, 0.12227711081504822, -0.14816339313983917, 0.05245719477534294, -0.0014761025086045265, -0.0072181131690740585, 1.0027376413345337, -0.3022129237651825, -3.8147146701812744, -0.25918400287628174, 0.0, 0.0, 0.0, 0, 0, 0, 0, 0, 0, -0.3022129237651825, -3.8147146701812744, -0.25918400287628174
15450, -0.09874297678470612, -0.02794533409178257, -0.011362200602889061, 0.05893416330218315, -0.11291373521089554, -0.06537093967199326, -0.0013757660053670406, -0.005327560938894749, 1.0007456541061401, -0.3026256859302521, -3.820612668991089, -0.25959745049476624, 0.0, 0.0, 0.0, 0, 0, 0, 0, 0, 0, -0.3026256859302521, -3.820612668991089, -0.25959745049476624
15460, -0.09963861107826233, -0.02746983990073204, -0.01247768197208643, -0.2167508453130722, -0.058291736990213394, -0.16216787695884705, -0.0015858060214668512, -0.004462015815079212, 0.9994634985923767, -0.30303946137428284, -3.8265140056610107, -0.2600100040435791, 0.0, 0.0, 0.0, 0, 0, 0, 0, 0, 0, -0.30303946137428284, -3.8265140056610107, -0.2600100040435791
15470, -0.1013142541050911, -0.028210146352648735, -0.012729593552649021, 0.01824568770825863, -0.05333547666668892, 0.15788023173809052, -0.0010905327508226037, -0.008946462534368038, 0.9979586601257324, -0.30345430970191956, -3.8324191570281982, -0.26042279601097107, 0.0, 0.0, 0.0, 0, 0, 0, 0, 0, 0, -0.30345430970191956, -3.8324191570281982, -0.26042279601097107
15480, -0.10117778182029724, -0.02853119559586048, -0.013484439812600613, -0.0028727345634251833, -0.03001265600323677, -0.023514557629823685, -0.0021058996208012104, -0.0065612634643912315, 0.9968202710151672, -0.303870290517807, -3.838330030441284, -0.26083752512931824, 0.0, 0.0, 0.0, 0, 0, 0, 0, 0, 0, -0.303870290517807, -3.838330030441284, -0.26083752512931824
15490, -0.10164336860179901, -0.02990754507482052, -0.01354266982525587, -0.11302110552787781, 0.28430500626564026, -0.1527145653963089, -0.0005965937161818147, -0.006940127350389957, 0.9982506632804871, -0.3042871952056885, -3.8442463874816895, -0.2612546682357788, 0.0, 0.0, 0.0, 0, 0, 0, 0, 0, 0, -0.3042871952056885, -3.8442463874816895, -0.2612546682357788
15500, -0.1023472473025322, -0.0283212773501873, -0.014223793521523476, -0.07433158159255981, -0.2642926573753357, -0.140573650598526, -0.0017110358458012342, -0.0067619518376886845, 0.9991063475608826, -0.3047047257423401, -3.8501672744750977, -0.26167377829551697, 0.0, 0.0, 0.0, 0, 0, 0, 0, 0, 0, -0.3047047257423401, -3.8501672744750977, -0.26167377829551697
15510, -0.10249240696430206, -0.02699858322739601, -0.015530150383710861, -0.014335093088448048, 0.015482586808502674, 0.05342556908726692, -0.0017085319850593805, -0.004987690132111311, 0.998613178730011, -0.3051230311393738, -3.856092691421509, -0.2620941996574402, 0.0, 0.0, 0.0, 0, 0, 0, 0, 0, 0, -0.3051230311393738, -3.856092691421509, -0.2620941996574402
15520, -0.10212989151477814, -0.02802092954516411, -0.016451001167297363, 0.11581898480653763, 0.0539044551551342, 0.031586114317178726, -0.001360394642688334, -0.005676780827343464, 0.997990071773529, -0.30554264783859253, -3.8620216846466064, -0.26251575350761414, 0.0, 0.0, 0.0, 0, 0, 0, 0, 0, 0, -0.30554264783859253, -3.8620216846466064, -0.26251575350761414
15530, -0.1019374430179596, -0.028744323179125786, -0.01607956923544407, -0.14052346348762512, 0.16050726175308228, 0.022962922230362892, 0.0010150913149118423, -0.0075986348092556, 0.9979288578033447, -0.30596283078193665, -3.867954730987549, -0.26293909549713135, 0.0, 0.0, 0.0, 0, 0, 0, 0, 0, 0, -0.30596283078193665, -3.867954730987549, -0.26293909549713135
15540, -0.10204192996025085, -0.02968335710465908, -0.01674368977546692, -0.05746281147003174, -0.17696155607700348, 0.04228149354457855, -0.0013420454924926162, -0.005906884092837572, 0.9956706762313843, -0.3063827455043793, -3.8738925457000732, -0.2633648216724396, 0.0, 0.0, 0.0, 0, 0, 0, 0, 0, 0, -0.3063827455043793, -3.8738925457000732, -0.2633648216724396
15550, -0.10246001929044724, -0.029124079272150993, -0.016368338838219643, -0.3120652139186859, 0.09810199588537216, 0.1323157697916031, -0.0010680750710889697, -0.005493302829563618, 1.0003803968429565, -0.3068026900291443, -3.8798346519470215, -0.26379308104515076, 0.0, 0.0, 0.0, 0, 0, 0, 0, 0, 0, -0.3068026900291443, -3.8798346519470215, -0.26379308104515076
15560, -0.10337663441896439, -0.029603002592921257, -0.016996271908283234, 0.13799160718917847, -0.01614103466272354, -0.015071040019392967, -0.002511711558327079, -0.005825071129947901, 1.001165747642517, -0.30722349882125854, -3.8857810497283936, -0.2642219066619873, 0.0, 0.0, 0.0, 0, 0, 0, 0, 0, 0, -0.30722349882125854, -3.8857810497283936, -0.2642219066619873
15570, -0.10381671041250229, -0.029674118384718895, -0.017392473295331, 0.009747061878442764, 0.09626667201519012, 0.08490142226219177, -0.0005146226612851024, -0.0040275766514241695, 1.0023744106292725, -0.3076455891132355, -3.891730785369873, -0.2646491527557373, 0.0, 0.0, 0.0, 0, 0, 0, 0, 0, 0, -0.3076455891132355, -3.891730785369873, -0.2646491527557373
15580, -0.10365834832191467, -0.030024603009223938, -0.017783306539058685, 0.06684320420026779, -0.26905620098114014, -0.027110200375318527, 0.0002737150061875582, -0.005566495005041361, 1.0001633167266846, -0.30806803703308105, -3.89768385887146, -0.26507505774497986, 0.0, 0.0, 0.0, 0, 0, 0, 0, 0, 0, -0.30806803703308105, -3.89768385887146, -0.26507505774497986
15590, -0.10299135744571686, -0.02872147411108017, -0.017557159066200256, 0.12724962830543518, 0.07296090573072433, 0.07567275315523148, -0.000792566395830363, -0.00469839246943593, 0.9993952512741089, -0.3084900975227356, -3.9036402702331543, -0.2655007243156433, 0.0, 0.0, 0.0, 0, 0, 0, 0, 0, 0, -0.3084900975227356, -3.9036402702331543, -0.2655007243156433
15600, -0.10354737937450409, -0.02752406895160675, -0.017797138541936874, 0.04717107117176056, -0.07674630731344223, 0.07108370214700699, -0.0006901888409629464, -0.005996494088321924, 0.9983276128768921, -0.308912068605423, -3.909599781036377, -0.2659272253513336, 0.0, 0.0, 0.0, 0, 0, 0, 0, 0, 0, -0.308912068605423, -3.909599781036377, -0.2659272253513336
15610, -0.10157284885644913, -0.029184699058532715, -0.01702880859375, 0.1950097233057022, 0.12173331528902054, 0.07919982075691223, -0.0010638501262292266, -0.007201786153018475, 0.998715877532959, -0.30933427810668945, -3.9155635833740234, -0.2663552761077881, 0.0, 0.0, 0.0, 0, 0, 0, 0, 0, 0, -0.30933427810668945, -3.9155635833740234, -0.2663552761077881
15620, -0.10155585408210754, -0.028272315859794617, -0.017436273396015167, 0.0530056357383728, 0.08750816434621811, -0.04273000359535217, -8.722061465959996e-05, -0.0035697072744369507, 0.9981902241706848, -0.30975672602653503, -3.9215316772460938, -0.26678478717803955, 0.0, 0.0, 0.0, 0, 0, 0, 0, 0, 0, -0.30975672602653503, -3.9215316772460938, -0.26678478717803955
15630, -0.10136526077985764, -0.0269035492092371, -0.017222290858626366, -0.2050827592611313, -0.09655257314443588, 0.0674191564321518, -0.0019199781818315387, -0.005106116179376841, 0.9999671578407288, -0.3101795017719269, -3.927502393722534, -0.26721540093421936, 0.0, 0.0, 0.0, 0, 0, 0, 0, 0, 0, -0.3101795017719269, -3.927502393722534, -0.26721540093421936
15640, -0.10107770562171936, -0.025861991569399834, -0.01646868884563446, 0.042654458433389664, 0.0028222573455423117, 0.25758689641952515, 0.000567465671338141, -0.0058128247037529945, 0.9989950060844421, -0.31060248613357544, -3.933475971221924, -0.2676464021205902, 0.0, 0.0, 0.0, 0, 0, 0, 0, 0, 0, -0.31060248613357544, -3.933475971221924, -0.2676464021205902
15650, -0.10150489956140518, -0.024219777435064316, -0.01660272292792797, 0.02660258486866951, -0.10376244783401489, -0.12437458336353302, -0.0016365561168640852, -0.006342930719256401, 0.9985573291778564, -0.311025470495224, -3.9394538402557373, -0.26807817816734314, 0.0, 0.0, 0.0, 0, 0, 0, 0, 0, 0, -0.311025470495224, -3.9394538402557373, -0.26807817816734314
15660, -0.10065418481826782, -0.0265999473631382, -0.01655367948114872, 0.13203421235084534, 0.15474851429462433, -0.11714684963226318, -0.002102032769471407, -0.005162789020687342, 0.997226893901825, -0.31144943833351135, -3.9454357624053955, -0.26851165294647217, 0.0, 0.0, 0.0, 0, 0, 0, 0, 0, 0, -0.31144943833351135, -3.9454357624053955, -0.26851165294647217
15670, -0.1004558652639389, -0.025943700224161148, -0.01683550700545311, 0.10370555520057678, 0.2212359756231308, 0.12412083148956299, -0.0007082450902089477, -0.0031569432467222214, 1.0002564191818237, -0.3118748962879181, -3.951421022415161, -0.26894664764404297, 0.0, 0.0, 0.0, 0, 0, 0, 0, 0, 0, -0.3118748962879181, -3.951421022415161, -0.26894664764404297
15680, -0.10097411274909973, -0.027890104800462723, -0.015969084575772285, -0.06320620328187943, -0.056008435785770416, 0.20982211828231812, 0.0012784514110535383, -0.0047042169608175755, 0.9996939301490784, -0.31230056285858154, -3.9574086666107178, -0.26938238739967346, 0.0, 0.0, 0.0, 0, 0, 0, 0, 0, 0, -0.31230056285858154, -3.9574086666107178, -0.26938238739967346
15690, -0.10110815614461899, -0.02857489511370659, -0.017360929399728775, -0.016089271754026413, 0.2658892273902893, -0.14747154712677002, -0.00023918552324175835, -0.0064791180193424225, 0.9975313544273376, -0.3127254545688629, -3.9633991718292236, -0.2698187232017517, 0.0, 0.0, 0.0, 0, 0, 0, 0, 0, 0, -0.3127254545688629, -3.9633991718292236, -0.2698187232017517
15700, -0.10250537842512131, -0.031029317528009415, -0.017137039452791214, -0.1424027979373932, 0.10002384334802628, 0.01799085922539234, 8.837934728944674e-05, -0.0070364754647016525, 0.9983334541320801, -0.3131496012210846, -3.9693939685821533, -0.2702568769454956, 0.0, 0.0, 0.0, 0, 0, 0, 0, 0, 0, -0.3131496012210846, -3.9693939685821533, -0.2702568769454956
15710, -0.10219112038612366, -0.03188236430287361, -0.016985099762678146, -0.16679829359054565, 0.14563621580600739, -0.02755596488714218, -4.2213920096401125e-05, -0.005952005740255117, 0.9996581077575684, -0.31357303261756897, -3.9753940105438232, -0.2706966996192932, 0.0, 0.0, 0.0, 0, 0, 0, 0, 0, 0, -0.31357303261756897, -3.9753940105438232, -0.2706966996192932
15720, -0.10239603370428085, -0.031164586544036865, -0.016149573028087616, -0.003275070572271943, -0.05280468985438347, 0.006131218280643225, 4.195331348455511e-05, -0.00574407447129488, 1.0003942251205444, -0.3139958679676056, -3.981398344039917, -0.27113670110702515, 0.0, 0.0, 0.0, 0, 0, 0, 0, 0, 0, -0.3139958679676056, -3.981398344039917, -0.27113670110702515
15730, -0.10276231169700623, -0.03034697286784649, -0.01647571660578251, -0.13147518038749695, -0.23941591382026672, -0.1501234918832779, -0.0006681513041257858, -0.005242389161139727, 0.9991205930709839, -0.3144182860851288, -3.9874064922332764, -0.2715771496295929, 0.0, 0.0, 0.0, 0, 0, 0, 0, 0, 0, -0.3144182860851288, -3.9874064922332764, -0.2715771496295929
15740, -0.10274341702461243, -0.028889134526252747, -0.01633598655462265, -0.1709454357624054, 0.09531854093074799, -0.04310493543744087, -0.0014022981049492955, -0.004733263049274683, 0.9994210004806519, -0.31484076380729675, -3.993417978286743, -0.2720181941986084, 0.0, 0.0, 0.0, 0, 0, 0, 0, 0, 0, -0.31484076380729675, -3.993417978286743, -0.2720181941986084
15750, -0.10268296301364899, -0.029852958396077156, -0.01640775054693222, 0.02997865341603756, 0.22969596087932587, -0.07167565822601318, -0.00014679234300274402, -0.004406843334436417, 1.0005415678024292, -0.3152638077735901, -3.999432325363159, -0.27245932817459106, 0.0, 0.0, 0.0, 0, 0, 0, 0, 0, 0, -0.3152638077735901, -3.999432325363159, -0.27245932817459106
15760, -0.10181816667318344, -0.030372366309165955, -0.015586435794830322, 0.1684199422597885, 0.15459699928760529, 0.08537568897008896, 0.000526658957824111, -0.004473698791116476, 0.9998863935470581, -0.31568679213523865, -4.005449295043945, -0.2729003429412842, 0.0, 0.0, 0.0, 0, 0, 0, 0, 0, 0, -0.31568679213523865, -4.005449295043945, -0.2729003429412842
15770, -0.10171885788440704, -0.030302325263619423, -0.015737490728497505, -0.05317409336566925, -0.2808157801628113, -0.17587417364120483, 0.0010538505157455802, -0.004820819478482008, 1.000066876411438, -0.3161088526248932, -4.011468887329102, -0.27334094047546387, 0.0, 0.0, 0.0, 0, 0, 0, 0, 0, 0, -0.3161088526248932, -4.011468887329102, -0.27334094047546387
15780, -0.10133154690265656, -0.03010055236518383, -0.015433188527822495, -0.09239690750837326, 0.03196917846798897, 0.18871162831783295, 0.001974441111087799, -0.005740154534578323, 1.0019161701202393, -0.31652912497520447, -4.017491340637207, -0.2737813889980316, 0.0, 0.0, 0.0, 0, 0, 0, 0, 0, 0, -0.31652912497520447, -4.017491340637207, -0.2737813889980316
15790, -0.10119758546352386, -0.030765540897846222, -0.01432911865413189, 0.08048737049102783, 0.16625426709651947, -0.04912255331873894, -0.0022218329831957817, -0.006741099525243044, 1.0024468898773193, -0.3169480860233307, -4.023517608642578, -0.27422043681144714, 0.0, 0.0, 0.0, 0, 0, 0, 0, 0, 0, -0.3169480860233307, -4.023517608642578, -0.27422043681144714
15800, -0.10095701366662979, -0.03228054568171501, -0.014029557816684246, 0.006884364411234856, 0.24117425084114075, 0.20641645789146423, -0.0013341981684789062, -0.005649286787956953, 1.0018724203109741, -0.317367285490036, -4.029548645019531, -0.2746571898460388, 0.0, 0.0, 0.0, 0, 0, 0, 0, 0, 0, -0.317367285490036, -4.029548645019531, -0.2746571898460388
