timeTick, roll, pitch, yaw, gyroX, gyroY, gyroZ, accX, accY, accZ, stateX, stateY, stateZ, target_x, target_y, target_z, otX, otY, otZ, otRoll, otPitch, otYaw, kalX, kalY, kalZ
15085, -0.07265829294919968, -0.08627203106880188, -0.02159918285906315, 0, 0, 0, 0, 0, 0, 0, 0, 0, 0, 0, 0, 0, 0, 0, 0, 0, 0, 0, 0, 0
15095, -0.0726744756102562, -0.08504503220319748, -0.02139461413025856, 0.16872179508209229, -0.12029769271612167, -0.008088874630630016, -0.002704486483708024, -0.003802600782364607, 0.9995545744895935, -1.4413310289382935, -2.5889995098114014, 0.05413134768605232, 0.0, 0.0, 0.0, 0, 0, 0, 0, 0, 0, -1.443464756011963, -2.5931320190429688, 0.05428257957100868
15105, -0.07230769842863083, -0.0844803974032402, -0.02232440561056137, -0.10058403760194778, -0.16944757103919983, -0.0928848534822464, -0.0019035156583413482, -0.005714047700166702, 0.9988136887550354, -1.443464756011963, -2.5931320190429688, 0.05428257957100868, 0.0, 0.0, 0.0, 0, 0, 0, 0, 0, 0, -1.4455997943878174, -2.5972678661346436, 0.05443306639790535
15115, -0.07152608036994934, -0.08297472447156906, -0.023671012371778488, 0.11305730789899826, -0.025710444897413254, 0.04430504888296127, -0.0007352035609073937, -0.003239664016291499, 0.9978636503219604, -1.4455997943878174, -2.5972678661346436, 0.05443306639790535, 0.0, 0.0, 0.0, 0, 0, 0, 0, 0, 0, -1.44773530960083, -2.6014068126678467, 0.054582227021455765
15125, -0.07147099822759628, -0.08261051028966904, -0.022327598184347153, 0.19642940163612366, -0.013680108822882175, -0.030929725617170334, -0.001401199260726571, -0.002895415062084794, 1.0008432865142822, -1.44773530960083, -2.6014068126678467, 0.054582227021455765, 0.0, 0.0, 0.0, 0, 0, 0, 0, 0, 0, -1.449870228767395, -2.605548143386841, 0.05473008379340172
15135, -0.07070852071046829, -0.08030596375465393, -0.022910023108124733, -0.029703207314014435, -0.34819352626800537, -0.11447205394506454, -0.004674478434026241, -0.003102509304881096, 1.004157304763794, -1.449870228767395, -2.605548143386841, 0.05473008379340172, 0.0, 0.0, 0.0, 0, 0, 0, 0, 0, 0, -1.4520056247711182, -2.6096911430358887, 0.054879069328308105
15145, -0.07008912414312363, -0.07979021966457367, -0.02208094298839569, 0.14183010160923004, -0.3013751208782196, 0.23935893177986145, -0.003494551405310631, -0.003839008044451475, 1.0013612508773804, -1.4520056247711182, -2.6096911430358887, 0.054879069328308105, 0.0, 0.0, 0.0, 0, 0, 0, 0, 0, 0, -1.4541434049606323, -2.6138360500335693, 0.05503084510564804
15155, -0.06948263943195343, -0.07998712360858917, -0.021701984107494354, 0.15516707301139832, 0.1109166368842125, 0.11274676769971848, -0.002469441154971719, -0.0026589648332446814, 1.0022375583648682, -1.4541434049606323, -2.6138360500335693, 0.05503084510564804, 0.0, 0.0, 0.0, 0, 0, 0, 0, 0, 0, -1.4562832117080688, -2.617983102798462, 0.05518447607755661
15165, -0.06879185885190964, -0.08019186556339264, -0.021569596603512764, 0.01881512627005577, -0.09703980386257172, -0.02901414781808853, -0.003599397838115692, -0.004414608236402273, 0.9999895691871643, -1.4562832117080688, -2.617983102798462, 0.05518447607755661, 0.0, 0.0, 0.0, 0, 0, 0, 0, 0, 0, -1.458424687385559, -2.6221323013305664, 0.055339425802230835
15175, -0.06943628937005997, -0.08055490255355835, -0.023195311427116394, 0.011372609063982964, -0.04718661680817604, -0.20862847566604614, -0.004388831555843353, -0.004040072672069073, 0.9995111227035522, -1.458424687385559, -2.6221323013305664, 0.055339425802230835, 0.0, 0.0, 0.0, 0, 0, 0, 0, 0, 0, -1.4605681896209717, -2.62628436088562, 0.05549467355012894
15185, -0.06922765076160431, -0.08066249638795853, -0.02339121885597706, -0.055409181863069534, 0.3024284839630127, -0.16975505650043488, -0.0029801575001329184, -0.006598290521651506, 1.0011237859725952, -1.4605681896209717, -2.62628436088562, 0.05549467355012894, 0.0, 0.0, 0.0, 0, 0, 0, 0, 0, 0, -1.4627140760421753, -2.6304399967193604, 0.055649787187576294
15195, -0.07017448544502258, -0.08166834712028503, -0.023960761725902557, -0.29537418484687805, 0.03234956040978432, -0.07266782969236374, -0.00396438455209136, -0.004019385203719139, 1.001134991645813, -1.4627140760421753, -2.6304399967193604, 0.055649787187576294, 0.0, 0.0, 0.0, 0, 0, 0, 0, 0, 0, -1.4648619890213013, -2.6345999240875244, 0.055805597454309464
15205, -0.0696491226553917, -0.0816701278090477, -0.024944089353084564, 0.04977056011557579, -0.0094738295301795, -0.05693681538105011, -0.003823888720944524, -0.004545559640973806, 1.00038480758667, -1.4648619890213013, -2.6345999240875244, 0.055805597454309464, 0.0, 0.0, 0.0, 0, 0, 0, 0, 0, 0, -1.4670116901397705, -2.638763427734375, 0.05596226453781128
15215, -0.07012327760457993, -0.08172862976789474, -0.026009896770119667, -0.13152211904525757, -0.014055810868740082, -0.06206991523504257, -0.003654216416180134, -0.005495899822562933, 1.0000368356704712, -1.4670116901397705, -2.638763427734375, 0.05596226453781128, 0.0, 0.0, 0.0, 0, 0, 0, 0, 0, 0, -1.4691638946533203, -2.642930507659912, 0.0561196394264698
15225, -0.07049127668142319, -0.08341316133737564, -0.025760965421795845, -0.038061901926994324, 0.12381487339735031, -0.1716068536043167, -0.001821355428546667, -0.004365765489637852, 0.9986394643783569, -1.4691638946533203, -2.642930507659912, 0.0561196394264698, 0.0, 0.0, 0.0, 0, 0, 0, 0, 0, 0, -1.471318006515503, -2.647101402282715, 0.05627652257680893
15235, -0.06981640309095383, -0.08190029859542847, -0.025489607825875282, 0.12130071967840195, -0.18942663073539734, 0.17602381110191345, -0.0034314601216465235, -0.003374406136572361, 1.0009961128234863, -1.471318006515503, -2.647101402282715, 0.05627652257680893, 0.0, 0.0, 0.0, 0, 0, 0, 0, 0, 0, -1.4734735488891602, -2.6512749195098877, 0.05643269047141075
15245, -0.06910821050405502, -0.07975552976131439, -0.024969182908535004, 0.06874062120914459, -0.37117379903793335, 0.04716746136546135, -0.0014605004107579589, -0.006695509888231754, 0.9990226030349731, -1.4734735488891602, -2.6512749195098877, 0.05643269047141075, 0.0, 0.0, 0.0, 0, 0, 0, 0, 0, 0, -1.4756299257278442, -2.655451536178589, 0.056589242070913315
15255, -0.06880292296409607, -0.07917343080043793, -0.024856578558683395, 0.1205049380660057, 0.1736862063407898, 0.12058471888303757, -0.00450078584253788, -0.005548238754272461, 0.9979363083839417, -1.4756299257278442, -2.655451536178589, 0.056589242070913315, 0.0, 0.0, 0.0, 0, 0, 0, 0, 0, 0, -1.4777873754501343, -2.659632444381714, 0.05674514174461365
15265, -0.06894778460264206, -0.07762013375759125, -0.025610225275158882, -0.05213073641061783, -0.04656056687235832, -0.17937764525413513, -0.0030605150386691093, -0.004603699315339327, 0.9986313581466675, -1.4777873754501343, -2.659632444381714, 0.05674514174461365, 0.0, 0.0, 0.0, 0, 0, 0, 0, 0, 0, -1.4799472093582153, -2.6638174057006836, 0.056899189949035645
15275, -0.06724996119737625, -0.0767851173877716, -0.024444852024316788, 0.02533418871462345, -0.1792704164981842, 0.17849113047122955, -0.0015327844303101301, -0.005954910535365343, 1.0010348558425903, -1.4799472093582153, -2.6638174057006836, 0.056899189949035645, 0.0, 0.0, 0.0, 0, 0, 0, 0, 0, 0, -1.48210871219635, -2.668006181716919, 0.05705244466662407
15285, -0.06693940609693527, -0.07588943094015121, -0.023679150268435478, 0.08344918489456177, -0.3594764471054077, 0.09230358898639679, -0.001526404288597405, -0.0038922408130019903, 1.0010706186294556, -1.48210871219635, -2.668006181716919, 0.05705244466662407, 0.0, 0.0, 0.0, 0, 0, 0, 0, 0, 0, -1.484270453453064, -2.672199010848999, 0.057206276804208755
15295, -0.06696677207946777, -0.07511766254901886, -0.023224161937832832, -0.11780928820371628, -0.2380228042602539, -0.0028257512021809816, -0.0020201518200337887, -0.0024109254591166973, 1.0021440982818604, -1.484270453453064, -2.672199010848999, 0.057206276804208755, 0.0, 0.0, 0.0, 0, 0, 0, 0, 0, 0, -1.4864325523376465, -2.676394462585449, 0.05736115947365761
15305, -0.06623946130275726, -0.0751061737537384, -0.02313140407204628, 0.05351892486214638, 0.05947728827595711, 0.11807382851839066, -0.0024956155102699995, -0.0030204174108803272, 1.0014628171920776, -1.4864325523376465, -2.676394462585449, 0.05736115947365761, 0.0, 0.0, 0.0, 0, 0, 0, 0, 0, 0, -1.4885953664779663, -2.680591106414795, 0.0575178861618042
15315, -0.06756266206502914, -0.07628650963306427, -0.02511579915881157, -0.10444162040948868, -0.047530751675367355, -0.5073150396347046, -0.003432948375120759, -0.0028234324418008327, 1.0008265972137451, -1.4885953664779663, -2.680591106414795, 0.0575178861618042, 0.0, 0.0, 0.0, 0, 0, 0, 0, 0, 0, -1.4907596111297607, -2.6847891807556152, 0.05767635628581047
15325, -0.06677041202783585, -0.07679610699415207, -0.02520998753607273, 0.03637843579053879, 0.10879641026258469, 0.24541710317134857, -0.0038366166409105062, -0.005935974419116974, 0.9990546703338623, -1.4907596111297607, -2.6847891807556152, 0.05767635628581047, 0.0, 0.0, 0.0, 0, 0, 0, 0, 0, 0, -1.4929258823394775, -2.6889894008636475, 0.05783522501587868
15335, -0.06829103827476501, -0.07679544389247894, -0.02579427883028984, -0.1335974484682083, -0.11313841491937637, -0.14082880318164825, -0.0037415982224047184, -0.005537488963454962, 1.000670075416565, -1.4929258823394775, -2.6889894008636475, 0.05783522501587868, 0.0, 0.0, 0.0, 0, 0, 0, 0, 0, 0, -1.4950945377349854, -2.6931936740875244, 0.057993702590465546
15345, -0.06682116538286209, -0.07728873193264008, -0.024474896490573883, 0.048628926277160645, 0.11139355599880219, 0.16631032526493073, -0.0026854120660573244, -0.0024620709009468555, 1.0004236698150635, -1.4950945377349854, -2.6931936740875244, 0.057993702590465546, 0.0, 0.0, 0.0, 0, 0, 0, 0, 0, 0, -1.497265338897705, -2.697401523590088, 0.0581524632871151
15355, -0.06765952706336975, -0.07836635410785675, -0.025487177073955536, -0.019854258745908737, 0.026237135753035545, -0.07436410337686539, -0.0031104625668376684, -0.0029987983871251345, 0.9990103244781494, -1.4994378089904785, -2.7016115188598633, 0.0583113469183445, 0.0, 0.0, 0.0, 0, 0, 0, 0, 0, 0, -1.4994378089904785, -2.7016115188598633, 0.0583113469183445
15365, -0.0672505646944046, -0.07928413897752762, -0.024739639833569527, -0.02522779442369938, 0.2673356831073761, 0.17593543231487274, -0.0034176919143646955, -0.005498993676155806, 0.9980819821357727, -1.4994378089904785, -2.7016115188598633, 0.0583113469183445, 0.0, 0.0, 0.0, 0, 0, 0, 0, 0, 0, -1.5016119480133057, -2.7058238983154297, 0.05846920609474182
15375, -0.06687577068805695, -0.07999084889888763, -0.0250833909958601, -0.05905061587691307, 0.07157242298126221, -0.11912140250205994, -0.0012943586334586143, -0.0037005096673965454, 1.000348687171936, -1.5037873983383179, -2.7100396156311035, 0.05862592160701752, 0.0, 0.0, 0.0, 0, 0, 0, 0, 0, 0, -1.5037873983383179, -2.7100396156311035, 0.05862592160701752
15385, -0.06753752380609512, -0.08006531000137329, -0.025649769231677055, -0.009893455542623997, 0.16459445655345917, 0.1502949744462967, -0.001278853276744485, -0.005779193714261055, 0.9992169141769409, -1.5037873983383179, -2.7100396156311035, 0.05862592160701752, 0.0, 0.0, 0.0, 0, 0, 0, 0, 0, 0, -1.5059632062911987, -2.7142586708068848, 0.058782223612070084
15395, -0.06717628985643387, -0.07830000668764114, -0.02430625818669796, -0.08375150710344315, -0.24272632598876953, -0.09386126697063446, -0.005332627333700657, -0.007164841517806053, 0.999061644077301, -1.5081398487091064, -2.7184815406799316, 0.0589379258453846, 0.0, 0.0, 0.0, 0, 0, 0, 0, 0, 0, -1.5081398487091064, -2.7184815406799316, 0.0589379258453846
15405, -0.06691554933786392, -0.07971780747175217, -0.02394084259867668, 0.016112519428133965, 0.18132811784744263, 0.2214837670326233, -0.004098463803529739, -0.0052220169454813, 1.0003186464309692, -1.5081398487091064, -2.7184815406799316, 0.0589379258453846, 0.0, 0.0, 0.0, 0, 0, 0, 0, 0, 0, -1.5103189945220947, -2.7227096557617188, 0.05909274145960808
15415, -0.06533098220825195, -0.07880058139562607, -0.0239592045545578, 0.12546101212501526, 0.034759823232889175, 0.055196363478899, -0.0029941254761070013, -0.004146753344684839, 1.0019088983535767, -1.512500524520874, -2.726942300796509, 0.05924779921770096, 0.0, 0.0, 0.0, 0, 0, 0, 0, 0, 0, -1.512500524520874, -2.726942300796509, 0.05924779921770096
15425, -0.06540554016828537, -0.08015498518943787, -0.023161252960562706, -0.17380714416503906, 0.32084429264068604, -0.012880995869636536, -0.0033856346271932125, -0.0030931641813367605, 1.0015590190887451, -1.512500524520874, -2.726942300796509, 0.05924779921770096, 0.0, 0.0, 0.0, 0, 0, 0, 0, 0, 0, -1.5146838426589966, -2.731178045272827, 0.059404417872428894
15435, -0.065315380692482, -0.08230109512805939, -0.022396236658096313, 0.0802185982465744, 0.2173215001821518, 0.12987828254699707, -0.0024372406769543886, -0.004247584380209446, 1.0019960403442383, -1.5146838426589966, -2.731178045272827, 0.059404417872428894, 0.0, 0.0, 0.0, 0, 0, 0, 0, 0, 0, -1.5170875787734985, -2.735840082168579, 0.05957914888858795
15445, -0.06489656865596771, -0.08101356029510498, -0.022956782951951027, 0.013867935165762901, -0.10313834249973297, 0.06357350945472717, -0.0030936484690755606, -0.0056683882139623165, 0.9995473623275757, -1.5170875787734985, -2.735840082168579, 0.05957914888858795, 0.0, 0.0, 0.0, 0, 0, 0, 0, 0, 0, -1.5192742347717285, -2.740081310272217, 0.05973929539322853
15455, -0.06483431160449982, -0.08296255767345428, -0.022105451673269272, -0.015207341872155666, 0.12703032791614532, 0.09901732951402664, -0.0015801105182617903, -0.006911917123943567, 1.0010266304016113, -1.5192742347717285, -2.740081310272217, 0.05973929539322853, 0.0, 0.0, 0.0, 0, 0, 0, 0, 0, 0, -1.521461844444275, -2.7443270683288574, 0.059900011867284775
15465, -0.06397638469934464, -0.0848139226436615, -0.021065670996904373, -0.06639061123132706, 0.4320638179779053, 0.07505679130554199, -0.0036187954246997833, -0.003968360368162394, 0.9989140629768372, -1.521461844444275, -2.7443270683288574, 0.059900011867284775, 0.0, 0.0, 0.0, 0, 0, 0, 0, 0, 0, -1.5236507654190063, -2.74857759475708, 0.060061074793338776
15475, -0.06445232778787613, -0.08393290638923645, -0.01972777768969536, -0.07736311107873917, -0.23027686774730682, 0.040760643780231476, -0.002191903768107295, -0.004513723310083151, 1.00126051902771, -1.5236507654190063, -2.74857759475708, 0.060061074793338776, 0.0, 0.0, 0.0, 0, 0, 0, 0, 0, 0, -1.5260601043701172, -2.7532567977905273, 0.060238130390644073
15485, -0.06503678858280182, -0.08571264892816544, -0.021499227732419968, -0.01129059586673975, 0.23937010765075684, -0.2343779355287552, -0.003932419698685408, -0.00371782504953444, 1.00032377243042, -1.5260601043701172, -2.7532567977905273, 0.060238130390644073, 0.0, 0.0, 0.0, 0, 0, 0, 0, 0, 0, -1.5282518863677979, -2.7575137615203857, 0.060399506241083145
15495, -0.06533221900463104, -0.08755467087030411, -0.02248549833893776, -0.022726962342858315, 0.16702121496200562, -0.14779508113861084, -0.0018023544689640403, -0.005757857114076614, 1.0015288591384888, -1.5282518863677979, -2.7575137615203857, 0.060399506241083145, 0.0, 0.0, 0.0, 0, 0, 0, 0, 0, 0, -1.5304447412490845, -2.7617743015289307, 0.06056181341409683
15505, -0.06415417790412903, -0.08781074732542038, -0.023914095014333725, 0.12502309679985046, 0.028907006606459618, -0.291581392288208, -0.004126198124140501, -0.004930455237627029, 1.0007201433181763, -1.5304447412490845, -2.7617743015289307, 0.06056181341409683, 0.0, 0.0, 0.0, 0, 0, 0, 0, 0, 0, -1.5326387882232666, -2.766038656234741, 0.060724932700395584
15515, -0.0642816349864006, -0.08859556913375854, -0.022189917042851448, -0.07717475295066833, 0.09583429992198944, -0.022215811535716057, -0.003174120094627142, -0.003293996676802635, 1.0008602142333984, -1.5326387882232666, -2.766038656234741, 0.060724932700395584, 0.0, 0.0, 0.0, 0, 0, 0, 0, 0, 0, -1.534834623336792, -2.770305871963501, 0.06088899075984955
15525, -0.06454476714134216, -0.09067843109369278, -0.022417673841118813, -0.01720297709107399, 0.3574465811252594, -0.1293056607246399, -0.0008513251086696982, -0.005833747331053019, 0.9975700974464417, -1.534834623336792, -2.770305871963501, 0.06088899075984955, 0.0, 0.0, 0.0, 0, 0, 0, 0, 0, 0, -1.5370312929153442, -2.77457594871521, 0.061052992939949036
15535, -0.06560870260000229, -0.09234310686588287, -0.023227516561746597, -0.1800898164510727, 0.18109454214572906, -0.07750090956687927, -0.00039049782208167017, -0.006072680000215769, 0.9991893768310547, -1.5370312929153442, -2.77457594871521, 0.061052992939949036, 0.0, 0.0, 0.0, 0, 0, 0, 0, 0, 0, -1.5392274856567383, -2.778850555419922, 0.06121541187167168
15545, -0.06560852378606796, -0.09156118333339691, -0.02432037889957428, -0.007856976240873337, -0.19040915369987488, -0.17877733707427979, -0.0034721349366009235, -0.0036391017492860556, 0.9999058246612549, -1.5392274856567383, -2.778850555419922, 0.06121541187167168, 0.0, 0.0, 0.0, 0, 0, 0, 0, 0, 0, -1.5414234399795532, -2.7831292152404785, 0.061376556754112244
15555, -0.0667656660079956, -0.09248615056276321, -0.02451033890247345, -0.1646919697523117, -0.02112312614917755, 0.04001430794596672, -0.0029658726416528225, -0.0038612696807831526, 0.9990116357803345, -1.5414234399795532, -2.7831292152404785, 0.061376556754112244, 0.0, 0.0, 0.0, 0, 0, 0, 0, 0, 0, -1.5436205863952637, -2.7874104976654053, 0.06153678148984909
15565, -0.06719136983156204, -0.09281402826309204, -0.023944996297359467, -0.015231361612677574, 0.06427595764398575, 0.22332297265529633, -0.0017041695537045598, -0.00432725390419364, 0.9984824061393738, -1.5436205863952637, -2.7874104976654053, 0.06153678148984909, 0.0, 0.0, 0.0, 0, 0, 0, 0, 0, 0, -1.5458189249038696, -2.7916946411132812, 0.06169574707746506
15575, -0.06740999966859818, -0.09352191537618637, -0.02302486263215542, -0.13245749473571777, 0.11928483843803406, 0.03005707822740078, -0.003824606304988265, -0.004927659407258034, 1.0014230012893677, -1.5458189249038696, -2.7916946411132812, 0.06169574707746506, 0.0, 0.0, 0.0, 0, 0, 0, 0, 0, 0, -1.548018455505371, -2.7959821224212646, 0.061854198575019836
15585, -0.06609335541725159, -0.09217393398284912, -0.0230559129267931, 0.2731850743293762, -0.052019067108631134, 0.061660073697566986, -0.0028918872121721506, -0.003189696464687586, 1.0029882192611694, -1.548018455505371, -2.7959821224212646, 0.061854198575019836, 0.0, 0.0, 0.0, 0, 0, 0, 0, 0, 0, -1.5502196550369263, -2.8002724647521973, 0.062014140188694
15595, -0.06675410270690918, -0.09272440522909164, -0.02272004634141922, -0.07364965975284576, 0.08955724537372589, 0.03258008137345314, -0.0017822989029809833, -0.002216337015852332, 1.0011961460113525, -1.5502196550369263, -2.8002724647521973, 0.062014140188694, 0.0, 0.0, 0.0, 0, 0, 0, 0, 0, 0, -1.5524219274520874, -2.8045647144317627, 0.06217620521783829
15605, -0.06690090149641037, -0.09469034522771835, -0.0216528233140707, -0.1584123969078064, 0.2681591212749481, -0.19184018671512604, -0.0019405846251174808, -0.0017595156095921993, 1.0015770196914673, -1.5524219274520874, -2.8045647144317627, 0.06217620521783829, 0.0, 0.0, 0.0, 0, 0, 0, 0, 0, 0, -1.5546246767044067, -2.8088579177856445, 0.06233957037329674
15615, -0.06779693067073822, -0.09247617423534393, -0.01995372213423252, -0.14201928675174713, -0.2908668518066406, 0.14714333415031433, -0.0013311689253896475, -0.004086068365722895, 1.0002754926681519, -1.5546246767044067, -2.8088579177856445, 0.06233957037329674, 0.0, 0.0, 0.0, 0, 0, 0, 0, 0, 0, -1.556827425956726, -2.813152551651001, 0.06250354647636414
15625, -0.06676392257213593, -0.09174471348524094, -0.02009235881268978, 0.1360393911600113, -0.039777010679244995, 0.027644161134958267, -0.0026369590777903795, -0.003682567970827222, 1.000624179840088, -1.556827425956726, -2.813152551651001, 0.06250354647636414, 0.0, 0.0, 0.0, 0, 0, 0, 0, 0, 0, -1.5590301752090454, -2.8174495697021484, 0.06266797333955765
15635, -0.06667861342430115, -0.09201261401176453, -0.01896839402616024, 0.09576430171728134, -0.11349654942750931, 0.055899567902088165, -0.00273117795586586, -0.004077398218214512, 0.9995000958442688, -1.5590301752090454, -2.8174495697021484, 0.06266797333955765, 0.0, 0.0, 0.0, 0, 0, 0, 0, 0, 0, -1.5612338781356812, -2.821749210357666, 0.06283257156610489
15645, -0.06728007644414902, -0.0916157215833664, -0.018638424575328827, -0.036341145634651184, -0.1955263614654541, 0.02751990221440792, -0.003923703916370869, -0.005902581382542849, 0.9976531863212585, -1.5612338781356812, -2.821749210357666, 0.06283257156610489, 0.0, 0.0, 0.0, 0, 0, 0, 0, 0, 0, -1.5634394884109497, -2.82605242729187, 0.0629962682723999
15655, -0.06720699369907379, -0.09400351345539093, -0.018015341833233833, 0.09101888537406921, 0.3250003457069397, 0.17340217530727386, -0.00040896673453971744, -0.0050203511491417885, 0.9991484880447388, -1.5634394884109497, -2.82605242729187, 0.0629962682723999, 0.0, 0.0, 0.0, 0, 0, 0, 0, 0, 0, -1.5656460523605347, -2.83035945892334, 0.06315874308347702
15665, -0.06669768691062927, -0.09461601823568344, -0.01796860434114933, -0.004799053072929382, -0.0929805114865303, 0.18047669529914856, -0.0027399121318012476, -0.004623688291758299, 0.9998379349708557, -1.5656460523605347, -2.83035945892334, 0.06315874308347702, 0.0, 0.0, 0.0, 0, 0, 0, 0, 0, 0, -1.5678526163101196, -2.834670305252075, 0.0633203387260437
15675, -0.06744340807199478, -0.09370914846658707, -0.01869927905499935, -0.08492404222488403, -0.1624232679605484, 0.01605430617928505, -0.0025304004084318876, -0.0031959672924131155, 0.9989418983459473, -1.5678526163101196, -2.834670305252075, 0.0633203387260437, 0.0, 0.0, 0.0, 0, 0, 0, 0, 0, 0, -1.5700600147247314, -2.838984251022339, 0.06348113715648651
15685, -0.0677274614572525, -0.09487264603376389, -0.019984045997262, -0.05342327803373337, 0.031474046409130096, -0.11664101481437683, -0.0031161431688815355, -0.0033640230540186167, 0.9992920756340027, -1.5700600147247314, -2.838984251022339, 0.06348113715648651, 0.0, 0.0, 0.0, 0, 0, 0, 0, 0, 0, -1.5722686052322388, -2.8432998657226562, 0.0636410340666771
15695, -0.06752941012382507, -0.09702625870704651, -0.018093502148985863, -0.018629319965839386, 0.287911057472229, 0.1094949021935463, -0.0012062375899404287, -0.005172054283320904, 0.9986517429351807, -1.5722686052322388, -2.8432998657226562, 0.0636410340666771, 0.0, 0.0, 0.0, 0, 0, 0, 0, 0, 0, -1.5744777917861938, -2.8476181030273438, 0.06379993259906769
15705, -0.0675659328699112, -0.09709841758012772, -0.01910354010760784, -0.04612942785024643, -0.15211176872253418, -0.2557932138442993, -0.00048485660227015615, -0.004475075285881758, 1.0021799802780151, -1.5744777917861938, -2.8476181030273438, 0.06379993259906769, 0.0, 0.0, 0.0, 0, 0, 0, 0, 0, 0, -1.5766866207122803, -2.8519396781921387, 0.06395880877971649
15715, -0.06809785962104797, -0.09701140224933624, -0.01838451251387596, -0.10714969038963318, 0.04777860268950462, 0.25470471382141113, -0.002774270484223962, -0.004334702622145414, 1.0030529499053955, -1.5766866207122803, -2.8519396781921387, 0.06395880877971649, 0.0, 0.0, 0.0, 0, 0, 0, 0, 0, 0, -1.5788954496383667, -2.856264591217041, 0.06411989778280258
15725, -0.06784313917160034, -0.0981229692697525, -0.018746135756373405, -0.11887554079294205, 0.1553691327571869, -0.07006357610225677, -0.004697049502283335, -0.005371022038161755, 1.0010074377059937, -1.5788954496383667, -2.856264591217041, 0.06411989778280258, 0.0, 0.0, 0.0, 0, 0, 0, 0, 0, 0, -1.5811057090759277, -2.8605926036834717, 0.06428318470716476
15735, -0.06810644268989563, -0.09665600955486298, -0.01948157325387001, -0.08783040195703506, -0.20355011522769928, -0.003274522954598069, -0.004316405858844519, -0.005039543844759464, 0.9990202188491821, -1.5811057090759277, -2.8605926036834717, 0.06428318470716476, 0.0, 0.0, 0.0, 0, 0, 0, 0, 0, 0, -1.5833184719085693, -2.864924669265747, 0.0644465908408165
15745, -0.06926582008600235, -0.09655430912971497, -0.020250732079148293, -0.18350063264369965, -0.030090032145380974, -0.04494844749569893, -0.0038729447405785322, -0.004577266052365303, 1.0014430284500122, -1.5833184719085693, -2.864924669265747, 0.0644465908408165, 0.0, 0.0, 0.0, 0, 0, 0, 0, 0, 0, -1.5855337381362915, -2.869260549545288, 0.0646100714802742
15755, -0.06931524723768234, -0.09781228750944138, -0.019961459562182426, 0.013683809898793697, 0.06031673774123192, -0.15306006371974945, -0.00296829198487103, -0.004492363892495632, 0.9986857175827026, -1.5855337381362915, -2.869260549545288, 0.0646100714802742, 0.0, 0.0, 0.0, 0, 0, 0, 0, 0, 0, -1.587750792503357, -2.8735997676849365, 0.06477368623018265
15765, -0.07037749886512756, -0.10005643963813782, -0.019129594787955284, -0.13976140320301056, 0.2596055865287781, 0.028824666514992714, -0.0029678253922611475, -0.003097937908023596, 0.9976802468299866, -1.587750792503357, -2.8735997676849365, 0.06477368623018265, 0.0, 0.0, 0.0, 0, 0, 0, 0, 0, 0, -1.589969277381897, -2.877941608428955, 0.06493596732616425
15775, -0.07030035555362701, -0.09835734963417053, -0.0198187418282032, 0.04079505801200867, -0.1679442822933197, 0.12932869791984558, -0.003617416135966778, -0.00577167235314846, 0.999619722366333, -1.589969277381897, -2.877941608428955, 0.06493596732616425, 0.0, 0.0, 0.0, 0, 0, 0, 0, 0, 0, -1.5921891927719116, -2.882286548614502, 0.06509696692228317
15785, -0.07086408138275146, -0.09923762828111649, -0.020062660798430443, 0.01367263961583376, 0.18373630940914154, 0.1188921108841896, -0.0029585694428533316, -0.0061486209742724895, 0.9992093443870544, -1.5921891927719116, -2.882286548614502, 0.06509696692228317, 0.0, 0.0, 0.0, 0, 0, 0, 0, 0, 0, -1.59441077709198, -2.8866357803344727, 0.06525726616382599
15795, -0.07118064910173416, -0.09981969743967056, -0.020603090524673462, 0.05659330263733864, 0.013588819652795792, -0.05640139803290367, -0.0012284013209864497, -0.0038437172770500183, 0.9996381998062134, -1.59441077709198, -2.8866357803344727, 0.06525726616382599, 0.0, 0.0, 0.0, 0, 0, 0, 0, 0, 0, -1.5966334342956543, -2.890989065170288, 0.06541692465543747
15805, -0.07174567878246307, -0.10072241723537445, -0.020748840644955635, -0.05258655920624733, -0.12546037137508392, 0.1069822907447815, -0.002864984329789877, -0.003964896779507399, 0.9991118907928467, -1.5966334342956543, -2.890989065170288, 0.06541692465543747, 0.0, 0.0, 0.0, 0, 0, 0, 0, 0, 0, -1.5988565683364868, -2.8953449726104736, 0.06557600200176239
15815, -0.0708082839846611, -0.102376289665699, -0.02077876590192318, 0.16831903159618378, 0.17151303589344025, 0.013039824552834034, -0.00507107051089406, -0.005135395098477602, 0.9988999962806702, -1.5988565683364868, -2.8953449726104736, 0.06557600200176239, 0.0, 0.0, 0.0, 0, 0, 0, 0, 0, 0, -1.6010816097259521, -2.8997037410736084, 0.06573421508073807
15825, -0.06988314539194107, -0.09895934164524078, -0.019459955394268036, 0.0674472227692604, -0.4965461194515228, 0.04429071769118309, -0.0024115429259836674, -0.003062628908082843, 1.0008851289749146, -1.6010816097259521, -2.8997037410736084, 0.06573421508073807, 0.0, 0.0, 0.0, 0, 0, 0, 0, 0, 0, -1.603308916091919, -2.9040653705596924, 0.065891794860363
15835, -0.0696948915719986, -0.09823043644428253, -0.018992852419614792, 0.057725533843040466, 0.059491321444511414, 0.05300189182162285, -0.0021339310333132744, -0.0018062186427414417, 1.0022295713424683, -1.603308916091919, -2.9040653705596924, 0.065891794860363, 0.0, 0.0, 0.0, 0, 0, 0, 0, 0, 0, -1.605536937713623, -2.90842866897583, 0.06605054438114166
15845, -0.06989949941635132, -0.09877041727304459, -0.020449679344892502, -0.02992190606892109, 0.04921353980898857, -0.3305359184741974, -0.0024111538659781218, -0.0024725410621613264, 1.0008816719055176, -1.605536937713623, -2.90842866897583, 0.06605054438114166, 0.0, 0.0, 0.0, 0, 0, 0, 0, 0, 0, -1.6077653169631958, -2.912792921066284, 0.06621118634939194
15855, -0.07051548361778259, -0.0984693318605423, -0.019948819652199745, -0.06486300379037857, -0.15933701395988464, -0.07200787216424942, -0.0028203176334500313, -0.0034001541789621115, 0.9994353652000427, -1.6077653169631958, -2.912792921066284, 0.06621118634939194, 0.0, 0.0, 0.0, 0, 0, 0, 0, 0, 0, -1.6099944114685059, -2.917158842086792, 0.06637232005596161
15865, -0.07020977884531021, -0.09917145222425461, -0.020320823416113853, 0.018984176218509674, -0.004143829923123121, -0.23397186398506165, -0.0056797512806952, -0.006027639377862215, 1.0009026527404785, -1.6099944114685059, -2.917158842086792, 0.06637232005596161, 0.0, 0.0, 0.0, 0, 0, 0, 0, 0, 0, -1.6122254133224487, -2.921527862548828, 0.06653361767530441
15875, -0.07030956447124481, -0.09953471273183823, -0.02054317481815815, -0.08771281689405441, -0.13919246196746826, -0.15817371010780334, -0.0037708845920860767, -0.004851229954510927, 0.9994375109672546, -1.6122254133224487, -2.921527862548828, 0.06653361767530441, 0.0, 0.0, 0.0, 0, 0, 0, 0, 0, 0, -1.6144590377807617, -2.925900936126709, 0.06669516116380692
15885, -0.07019860297441483, -0.09916277974843979, -0.021112438291311264, 0.03637586161494255, 0.0980510413646698, -0.22146451473236084, -0.0009554518037475646, -0.003921194933354855, 0.9994000196456909, -1.6144590377807617, -2.925900936126709, 0.06669516116380692, 0.0, 0.0, 0.0, 0, 0, 0, 0, 0, 0, -1.6166938543319702, -2.9302775859832764, 0.06685628741979599
15895, -0.06997642666101456, -0.09766148030757904, -0.02156541496515274, 0.03902573883533478, -0.038674723356962204, 0.016749940812587738, -0.0035162344574928284, -0.004261269234120846, 0.9988062381744385, -1.6166938543319702, -2.9302775859832764, 0.06685628741979599, 0.0, 0.0, 0.0, 0, 0, 0, 0, 0, 0, -1.6189290285110474, -2.934657096862793, 0.06701651215553284
15905, -0.06995896995067596, -0.09882666915655136, -0.021088628098368645, 0.03364469110965729, 0.03319539502263069, -0.0625644400715828, -0.002016550162807107, -0.006429931148886681, 1.0017552375793457, -1.6189290285110474, -2.934657096862793, 0.06701651215553284, 0.0, 0.0, 0.0, 0, 0, 0, 0, 0, 0, -1.621165156364441, -2.939040184020996, 0.06717674434185028
15915, -0.06909409165382385, -0.09656506031751633, -0.021550379693508148, 0.017859717831015587, -0.34532034397125244, -0.2733469009399414, -0.0030549601651728153, -0.004304816015064716, 1.0011910200119019, -1.621165156364441, -2.939040184020996, 0.06717674434185028, 0.0, 0.0, 0.0, 0, 0, 0, 0, 0, 0, -1.6234021186828613, -2.943427324295044, 0.0673380196094513
15925, -0.06844066828489304, -0.09668046236038208, -0.020548762753605843, 0.09805002063512802, 0.1277618706226349, 0.11880960315465927, -0.003250374924391508, -0.005109650548547506, 1.0011329650878906, -1.6234021186828613, -2.943427324295044, 0.0673380196094513, 0.0, 0.0, 0.0, 0, 0, 0, 0, 0, 0, -1.6256405115127563, -2.9478182792663574, 0.06750021874904633
15935, -0.06788252294063568, -0.09702245891094208, -0.019099950790405273, 0.022257793694734573, -0.02404482662677765, 0.29063844680786133, -0.0015271437587216496, -0.004709151573479176, 1.0012465715408325, -1.6256405115127563, -2.9478182792663574, 0.06750021874904633, 0.0, 0.0, 0.0, 0, 0, 0, 0, 0, 0, -1.6278798580169678, -2.9522128105163574, 0.06766335666179657
15945, -0.06854944676160812, -0.09654287248849869, -0.019093956798315048, -0.0534546859562397, -0.009530668146908283, 0.10109490156173706, -0.0020853604655712843, -0.002995683578774333, 1.0012805461883545, -1.6278798580169678, -2.9522128105163574, 0.06766335666179657, 0.0, 0.0, 0.0, 0, 0, 0, 0, 0, 0, -1.6301190853118896, -2.9566104412078857, 0.06782780587673187
15955, -0.06922982633113861, -0.09398256987333298, -0.018533876165747643, -0.12151136994361877, -0.32665613293647766, 0.1180475503206253, -0.0037889007944613695, -0.004287637770175934, 0.9989191293716431, -1.6301190853118896, -2.9566104412078857, 0.06782780587673187, 0.0, 0.0, 0.0, 0, 0, 0, 0, 0, 0, -1.6323590278625488, -2.961010694503784, 0.0679926872253418
15965, -0.068830706179142, -0.09516311436891556, -0.017637470737099648, 0.07465533167123795, 0.2989397644996643, 0.11969989538192749, -0.0038619921542704105, -0.004008293617516756, 1.0013591051101685, -1.6323590278625488, -2.961010694503784, 0.0679926872253418, 0.0, 0.0, 0.0, 0, 0, 0, 0, 0, 0, -1.634601354598999, -2.965413808822632, 0.06815754622220993
15975, -0.06808029115200043, -0.09534326195716858, -0.018529025837779045, 0.14273370802402496, 0.10861103981733322, -0.07877745479345322, -0.0035251693334430456, -0.004007158800959587, 1.001114845275879, -1.634601354598999, -2.965413808822632, 0.06815754622220993, 0.0, 0.0, 0.0, 0, 0, 0, 0, 0, 0, -1.6368457078933716, -2.9698197841644287, 0.06832342594861984
15985, -0.06813639402389526, -0.09668254107236862, -0.017918827012181282, -0.08684266358613968, 0.23939548432826996, 0.12996815145015717, -0.003227847395464778, -0.0027056182734668255, 1.0001509189605713, -1.6368457078933716, -2.9698197841644287, 0.06832342594861984, 0.0, 0.0, 0.0, 0, 0, 0, 0, 0, 0, -1.6390917301177979, -2.9742281436920166, 0.06849012523889542
15995, -0.0685727521777153, -0.09825120866298676, -0.01787695847451687, -0.0721590518951416, -0.0002216733555542305, -0.07875566929578781, -0.0030380506068468094, -0.0024639994371682405, 0.9994375705718994, -1.6390917301177979, -2.9742281436920166, 0.06849012523889542, 0.0, 0.0, 0.0, 0, 0, 0, 0, 0, 0, -1.6413393020629883, -2.978638172149658, 0.06865635514259338
16005, -0.0688445195555687, -0.09955205768346786, -0.01793607883155346, -0.06763383746147156, 0.052596621215343475, -0.12647809088230133, -0.0035117457155138254, -0.00279781362041831, 0.9997724294662476, -1.6413393020629883, -2.978638172149658, 0.06865635514259338, 0.0, 0.0, 0.0, 0, 0, 0, 0, 0, 0, -1.6435881853103638, -2.9830496311187744, 0.06882209330797195
16015, -0.06800393015146255, -0.09842151403427124, -0.01880389079451561, 0.04355853796005249, -0.12083952128887177, -0.035074274986982346, -0.001171473297290504, -0.0043642218224704266, 0.9998639225959778, -1.6435881853103638, -2.9830496311187744, 0.06882209330797195, 0.0, 0.0, 0.0, 0, 0, 0, 0, 0, 0, -1.6458377838134766, -2.9874632358551025, 0.06898783147335052
16025, -0.06729315221309662, -0.0977497473359108, -0.018803952261805534, 0.014046709053218365, -0.20338036119937897, 0.13411031663417816, -0.0017697194125503302, -0.0039468626491725445, 1.0002589225769043, -1.6458377838134766, -2.9874632358551025, 0.06898783147335052, 0.0, 0.0, 0.0, 0, 0, 0, 0, 0, 0, -1.6480876207351685, -2.99187970161438, 0.06915336847305298
16035, -0.06900154054164886, -0.10008129477500916, -0.017485646530985832, -0.19288930296897888, 0.13526545464992523, 0.2680646479129791, -0.0014956732047721744, -0.006251456681638956, 0.9996556639671326, -1.6480876207351685, -2.99187970161438, 0.06915336847305298, 0.0, 0.0, 0.0, 0, 0, 0, 0, 0, 0, -1.6503374576568604, -2.9962997436523438, 0.06931894272565842
16045, -0.06849543750286102, -0.10161907225847244, -0.0174857210367918, -0.018631955608725548, 0.055871207267045975, -0.06506747007369995, -0.0021538138389587402, -0.005429868120700121, 1.0011283159255981, -1.6503374576568604, -2.9962997436523438, 0.06931894272565842, 0.0, 0.0, 0.0, 0, 0, 0, 0, 0, 0, -1.6525874137878418, -3.0007243156433105, 0.06948500126600266
16055, -0.0682579055428505, -0.09842173010110855, -0.01730584166944027, 0.015003273263573647, -0.6751596927642822, 0.11929935961961746, -0.0020307532977312803, -0.004397365730255842, 1.0016276836395264, -1.6525874137878418, -3.0007243156433105, 0.06948500126600266, 0.0, 0.0, 0.0, 0, 0, 0, 0, 0, 0, -1.654837727546692, -3.005152463912964, 0.0696522668004036
16065, -0.06897997111082077, -0.09847725927829742, -0.017792552709579468, -0.17640116810798645, 0.29337164759635925, 0.06274868547916412, -0.0017636728007346392, -0.005430198740214109, 1.0018211603164673, -1.654837727546692, -3.005152463912964, 0.0696522668004036, 0.0, 0.0, 0.0, 0, 0, 0, 0, 0, 0, -1.6570881605148315, -3.009584426879883, 0.06982112675905228
16075, -0.06756653636693954, -0.0965777039527893, -0.017417242750525475, 0.10459498316049576, -0.25470009446144104, -0.0846795067191124, -0.0023571269121021032, -0.008024616166949272, 0.9991782307624817, -1.6570881605148315, -3.009584426879883, 0.06982112675905228, 0.0, 0.0, 0.0, 0, 0, 0, 0, 0, 0, -1.6593388319015503, -3.014021635055542, 0.06999044865369797
16085, -0.0665540024638176, -0.09857241064310074, -0.01597711071372032, 0.04835805296897888, 0.14164669811725616, 0.22981475293636322, -0.002774880500510335, -0.005288529675453901, 0.9996550679206848, -1.6593388319015503, -3.014021635055542, 0.06999044865369797, 0.0, 0.0, 0.0, 0, 0, 0, 0, 0, 0, -1.6615902185440063, -3.0184643268585205, 0.07015924900770187
16095, -0.06713701784610748, -0.09889236837625504, -0.01627684012055397, -0.0156395360827446, -0.02822510525584221, -0.10678905248641968, -0.0025028439704328775, -0.004752955865114927, 1.000928521156311, -1.6615902185440063, -3.0184643268585205, 0.07015924900770187, 0.0, 0.0, 0.0, 0, 0, 0, 0, 0, 0, -1.6638425588607788, -3.0229108333587646, 0.07032796740531921
16105, -0.06733010709285736, -0.09983924776315689, -0.017428355291485786, -0.08373665064573288, 0.007191110868006945, -0.19122035801410675, -0.0028396667912602425, -0.005376535467803478, 1.0000122785568237, -1.6638425588607788, -3.0229108333587646, 0.07032796740531921, 0.0, 0.0, 0.0, 0, 0, 0, 0, 0, 0, -1.6660959720611572, -3.0273609161376953, 0.07049719989299774
16115, -0.06752011179924011, -0.1007954403758049, -0.01731422170996666, 0.03839733824133873, 0.07898415625095367, 0.07064220309257507, -0.002596817212179303, -0.003917398862540722, 0.9976155161857605, -1.6660959720611572, -3.0273609161376953, 0.07049719989299774, 0.0, 0.0, 0.0, 0, 0, 0, 0, 0, 0, -1.6683505773544312, -3.0318145751953125, 0.0706658735871315
16125, -0.067252017557621, -0.09982500225305557, -0.01761651784181595, 0.10476785898208618, -0.014144894666969776, 0.04206596314907074, -0.0034735866356641054, -0.0038671221118420362, 0.9993475675582886, -1.6683505773544312, -3.0318145751953125, 0.0706658735871315, 0.0, 0.0, 0.0, 0, 0, 0, 0, 0, 0, -1.6706063747406006, -3.0362706184387207, 0.07083308696746826
16135, -0.06759262830018997, -0.09892971068620682, -0.017133047804236412, -0.07602998614311218, -0.17738474905490875, -0.03410617262125015, -0.0029395262245088816, -0.0045808469876646996, 1.0012869834899902, -1.6706063747406006, -3.0362706184387207, 0.07083308696746826, 0.0, 0.0, 0.0, 0, 0, 0, 0, 0, 0, -1.672863245010376, -3.040729522705078, 0.07100015133619308
16145, -0.0679837316274643, -0.10151368379592896, -0.0173282902687788, -0.17403391003608704, 0.4588339030742645, -0.003130599856376648, -0.005394991487264633, -0.003922902513295412, 1.001816987991333, -1.672863245010376, -3.040729522705078, 0.07100015133619308, 0.0, 0.0, 0.0, 0, 0, 0, 0, 0, 0, -1.6751222610473633, -3.045191764831543, 0.07116838544607162
16155, -0.06780146062374115, -0.1014503464102745, -0.018383115530014038, -0.05163475126028061, 0.042371541261672974, -0.03611725941300392, -0.004561734851449728, -0.005274930037558079, 1.0022079944610596, -1.6751222610473633, -3.045191764831543, 0.07116838544607162, 0.0, 0.0, 0.0, 0, 0, 0, 0, 0, 0, -1.6773844957351685, -3.049657106399536, 0.07133837044239044
16165, -0.06799155473709106, -0.10492274165153503, -0.017890222370624542, -0.009865806438028812, 0.4363384544849396, 0.0897606760263443, -0.0025507528334856033, -0.002305444795638323, 1.0011613368988037, -1.6773844957351685, -3.049657106399536, 0.07133837044239044, 0.0, 0.0, 0.0, 0, 0, 0, 0, 0, 0, -1.679648995399475, -3.054124593734741, 0.0715102106332779
16175, -0.0681915357708931, -0.10379898548126221, -0.01902950368821621, 0.08200149983167648, -0.2943571209907532, -0.259362131357193, -0.0012850717175751925, -0.003436144907027483, 1.0015841722488403, -1.679648995399475, -3.054124593734741, 0.0715102106332779, 0.0, 0.0, 0.0, 0, 0, 0, 0, 0, 0, -1.6819140911102295, -3.058594226837158, 0.07168350368738174
16185, -0.06811650097370148, -0.10307255387306213, -0.018962906673550606, 0.01429353840649128, -0.10088827461004257, -0.07681218534708023, -0.0013907257234677672, -0.0034325781743973494, 1.000380516052246, -1.6819140911102295, -3.058594226837158, 0.07168350368738174, 0.0, 0.0, 0.0, 0, 0, 0, 0, 0, 0, -1.6841789484024048, -3.063066005706787, 0.07185785472393036
16195, -0.06846977770328522, -0.10492678731679916, -0.018688367679715157, 0.05281384289264679, 0.20217271149158478, -0.037052106112241745, -0.0025957573670893908, -0.0049744173884391785, 1.0001819133758545, -1.6841789484024048, -3.063066005706787, 0.07185785472393036, 0.0, 0.0, 0.0, 0, 0, 0, 0, 0, 0, -1.68644380569458, -3.0675411224365234, 0.07203235477209091
16205, -0.06890790164470673, -0.10622217506170273, -0.01765443943440914, -0.02020489051938057, 0.09302489459514618, 0.028715580701828003, -0.0036429555620998144, -0.0054798973724246025, 1.0005828142166138, -1.68644380569458, -3.0675411224365234, 0.07203235477209091, 0.0, 0.0, 0.0, 0, 0, 0, 0, 0, 0, -1.6887096166610718, -3.0720200538635254, 0.07220673561096191
16215, -0.06899243593215942, -0.10740126669406891, -0.019057918339967728, 0.07079422473907471, 0.1434466540813446, -0.3289433419704437, -0.0014568772166967392, -0.005146916955709457, 1.0011204481124878, -1.6887096166610718, -3.0720200538635254, 0.07220673561096191, 0.0, 0.0, 0.0, 0, 0, 0, 0, 0, 0, -1.6909765005111694, -3.076502799987793, 0.07238171994686127
16225, -0.06924223154783249, -0.108513742685318, -0.01822461374104023, -0.02043594978749752, 0.17067094147205353, 0.07363522052764893, -0.0006842836155556142, -0.0041691893711686134, 0.9999185800552368, -1.6909765005111694, -3.076502799987793, 0.07238171994686127, 0.0, 0.0, 0.0, 0, 0, 0, 0, 0, 0, -1.6932430267333984, -3.080989360809326, 0.07255741208791733
16235, -0.06943662464618683, -0.10900461673736572, -0.01959124766290188, -0.013038520701229572, 0.03895731270313263, -0.1008351668715477, -0.001462655607610941, -0.004242451395839453, 0.9981440901756287, -1.6932430267333984, -3.080989360809326, 0.07255741208791733, 0.0, 0.0, 0.0, 0, 0, 0, 0, 0, 0, -1.6955087184906006, -3.0854787826538086, 0.07273279875516891
16245, -0.0699818804860115, -0.10659024864435196, -0.019803008064627647, -0.0790119543671608, -0.18001091480255127, 0.0017265536589547992, -0.0020893579348921776, -0.00418971199542284, 0.9997822642326355, -1.6955087184906006, -3.0854787826538086, 0.07273279875516891, 0.0, 0.0, 0.0, 0, 0, 0, 0, 0, 0, -1.6977744102478027, -3.0899710655212402, 0.07290733605623245
16255, -0.0711110383272171, -0.10740874707698822, -0.020079825073480606, -0.23698222637176514, -0.16263644397258759, 0.11193906515836716, -0.0027009358163923025, -0.003935513086616993, 0.9996479749679565, -1.6977744102478027, -3.0899710655212402, 0.07290733605623245, 0.0, 0.0, 0.0, 0, 0, 0, 0, 0, 0, -1.7000406980514526, -3.094466209411621, 0.07308164238929749
16265, -0.07028485089540482, -0.10824831575155258, -0.019495969638228416, 0.09023124724626541, 0.17789138853549957, 0.24376527965068817, -0.0018075149273499846, -0.004098766483366489, 1.000473976135254, -1.7000406980514526, -3.094466209411621, 0.07308164238929749, 0.0, 0.0, 0.0, 0, 0, 0, 0, 0, 0, -1.7025341987609863, -3.099414110183716, 0.07327336817979813
16275, -0.07125618308782578, -0.10758716613054276, -0.019311342388391495, -0.09378531575202942, -0.0022567063570022583, 0.08123669028282166, -0.003541279351338744, -0.007294370327144861, 0.9993910193443298, -1.7025341987609863, -3.099414110183716, 0.07327336817979813, 0.0, 0.0, 0.0, 0, 0, 0, 0, 0, 0, -1.7048014402389526, -3.103916645050049, 0.07344741374254227
16285, -0.07042995095252991, -0.10837406665086746, -0.018820667639374733, 0.1502304971218109, 0.060904860496520996, 0.20378628373146057, -0.002617224585264921, -0.005843054968863726, 0.9990960955619812, -1.7048014402389526, -3.103916645050049, 0.07344741374254227, 0.0, 0.0, 0.0, 0, 0, 0, 0, 0, 0, -1.7070695161819458, -3.108424186706543, 0.07362089306116104
16295, -0.07102900743484497, -0.10869745910167694, -0.019735287874937057, 0.00870219711214304, -3.954909698222764e-05, -0.1940903216600418, -0.002935561118647456, -0.004531878046691418, 1.001712679862976, -1.7070695161819458, -3.108424186706543, 0.07362089306116104, 0.0, 0.0, 0.0, 0, 0, 0, 0, 0, 0, -1.7093385457992554, -3.112935781478882, 0.07379467785358429
16305, -0.07185950875282288, -0.1096290647983551, -0.020107628777623177, -0.1775902956724167, 0.2048606127500534, -0.02830696851015091, -0.0011322620557621121, -0.005043724551796913, 1.0011491775512695, -1.7093385457992554, -3.112935781478882, 0.07379467785358429, 0.0, 0.0, 0.0, 0, 0, 0, 0, 0, 0, -1.7116076946258545, -3.117450714111328, 0.0739697515964508
16315, -0.07145600020885468, -0.10830782353878021, -0.0195365771651268, 0.17183543741703033, -0.12398912012577057, 0.13987784087657928, -0.0021754985209554434, -0.0028840703889727592, 1.0004247426986694, -1.7116076946258545, -3.117450714111328, 0.0739697515964508, 0.0, 0.0, 0.0, 0, 0, 0, 0, 0, 0, -1.713876485824585, -3.1219685077667236, 0.0741455927491188
16325, -0.07324830442667007, -0.10720031708478928, -0.020933685824275017, -0.14068835973739624, -0.1197090595960617, -0.15019649267196655, -0.0024094649124890566, -0.0036803660914301872, 1.0014302730560303, -1.713876485824585, -3.1219685077667236, 0.0741455927491188, 0.0, 0.0, 0.0, 0, 0, 0, 0, 0, 0, -1.7161455154418945, -3.12648868560791, 0.07432214170694351
16335, -0.0733758807182312, -0.10733425617218018, -0.019651900976896286, 0.03844285011291504, 0.04449927806854248, 0.07260465621948242, -0.003510979935526848, -0.0038240605499595404, 1.0013607740402222, -1.7161455154418945, -3.12648868560791, 0.07432214170694351, 0.0, 0.0, 0.0, 0, 0, 0, 0, 0, 0, -1.718415379524231, -3.1310112476348877, 0.07449985295534134
16345, -0.07291943579912186, -0.10804764181375504, -0.019852133467793465, 0.017864612862467766, 0.03511224314570427, -0.025781307369470596, -0.0014424172695726156, -0.00552962813526392, 1.001948356628418, -1.718415379524231, -3.1310112476348877, 0.07449985295534134, 0.0, 0.0, 0.0, 0, 0, 0, 0, 0, 0, -1.7206858396530151, -3.1355371475219727, 0.07467900216579437
16355, -0.0723748505115509, -0.10919246077537537, -0.0186218973249197, 0.05074389651417732, 0.001854929025284946, 0.14949920773506165, -0.001590706524439156, -0.005067531485110521, 1.0012763738632202, -1.7206858396530151, -3.1355371475219727, 0.07467900216579437, 0.0, 0.0, 0.0, 0, 0, 0, 0, 0, 0, -1.7229559421539307, -3.1400668621063232, 0.07485975325107574
16365, -0.0730319544672966, -0.10987339168787003, -0.01955069787800312, -0.04651772975921631, 0.08518055826425552, -0.1393081545829773, -0.0025829593650996685, -0.006596307270228863, 0.9997677803039551, -1.7229559421539307, -3.1400668621063232, 0.07485975325107574, 0.0, 0.0, 0.0, 0, 0, 0, 0, 0, 0, -1.7252261638641357, -3.1446008682250977, 0.07504130899906158
16375, -0.07358627021312714, -0.11187303811311722, -0.019081300124526024, -0.09256260097026825, 0.29918530583381653, 0.1681187003850937, -0.0034233604092150927, -0.00306520308367908, 1.0001060962677002, -1.7252261638641357, -3.1446008682250977, 0.07504130899906158, 0.0, 0.0, 0.0, 0, 0, 0, 0, 0, 0, -1.7274975776672363, -3.1491384506225586, 0.0752229169011116
16385, -0.07433527708053589, -0.11250177025794983, -0.019781550392508507, -0.13958565890789032, -0.021052783355116844, 0.05843571946024895, -0.003084419295191765, -0.0026516816578805447, 0.9968594908714294, -1.7274975776672363, -3.1491384506225586, 0.0752229169011116, 0.0, 0.0, 0.0, 0, 0, 0, 0, 0, 0, -1.7297704219818115, -3.1536779403686523, 0.07540329545736313
16395, -0.07404567301273346, -0.11311162263154984, -0.018302567303180695, 0.05414522439241409, 0.04078516364097595, 0.14446131885051727, -0.0013329701032489538, -0.0035038632340729237, 0.9989927411079407, -1.7297704219818115, -3.1536779403686523, 0.07540329545736313, 0.0, 0.0, 0.0, 0, 0, 0, 0, 0, 0, -1.7320435047149658, -3.158219337463379, 0.07558181136846542
16405, -0.07452204078435898, -0.1119549423456192, -0.018305150792002678, -0.12206228822469711, -0.17025195062160492, -0.03822913020849228, -0.002585415029898286, -0.003692485159263015, 0.9992914199829102, -1.7320435047149658, -3.158219337463379, 0.07558181136846542, 0.0, 0.0, 0.0, 0, 0, 0, 0, 0, 0, -1.7343164682388306, -3.1627626419067383, 0.07575931400060654
16415, -0.07518661022186279, -0.11036688834428787, -0.019296597689390182, -0.20988592505455017, -0.25283175706863403, -0.21671392023563385, -0.004270853474736214, -0.003878643037751317, 0.999783992767334, -1.7343164682388306, -3.1627626419067383, 0.07575931400060654, 0.0, 0.0, 0.0, 0, 0, 0, 0, 0, 0, -1.7365907430648804, -3.1673083305358887, 0.0759362205862999
16425, -0.07477860897779465, -0.11270832270383835, -0.01742011494934559, 0.05805462598800659, 0.42960280179977417, 0.38764870166778564, -0.003233223455026746, -0.002504154806956649, 0.999371349811554, -1.7365907430648804, -3.1673083305358887, 0.0759362205862999, 0.0, 0.0, 0.0, 0, 0, 0, 0, 0, 0, -1.7388666868209839, -3.171856164932251, 0.07611281424760818
16435, -0.07398072630167007, -0.112574502825737, -0.01682756096124649, 0.3011150658130646, 0.059936098754405975, 0.19988901913166046, -0.0020517653319984674, -0.004248238168656826, 1.001447319984436, -1.7388666868209839, -3.171856164932251, 0.07611281424760818, 0.0, 0.0, 0.0, 0, 0, 0, 0, 0, 0, -1.7411435842514038, -3.176406145095825, 0.0762898176908493
16445, -0.07474617660045624, -0.11372493952512741, -0.018463190644979477, -0.04791700467467308, 0.2453784942626953, -0.3091915249824524, -0.002613441552966833, -0.006124377716332674, 1.0013316869735718, -1.7411435842514038, -3.176406145095825, 0.0762898176908493, 0.0, 0.0, 0.0, 0, 0, 0, 0, 0, 0, -1.7434210777282715, -3.180959701538086, 0.07646813243627548
16455, -0.07539711147546768, -0.1149582639336586, -0.018819795921444893, 0.008855843916535378, 0.23739758133888245, 0.0677419900894165, -0.003064011223614216, -0.004933228250592947, 1.0003769397735596, -1.7434210777282715, -3.180959701538086, 0.07646813243627548, 0.0, 0.0, 0.0, 0, 0, 0, 0, 0, 0, -1.7456995248794556, -3.1855175495147705, 0.07664744555950165
16465, -0.07633952796459198, -0.11672952771186829, -0.019485339522361755, -0.0947485938668251, 0.24833475053310394, -0.18990792334079742, -0.0028283472638577223, -0.0026797631289809942, 1.0011725425720215, -1.7456995248794556, -3.1855175495147705, 0.07664744555950165, 0.0, 0.0, 0.0, 0, 0, 0, 0, 0, 0, -1.7479790449142456, -3.1900782585144043, 0.07682754099369049
16475, -0.07645871490240097, -0.11563891172409058, -0.018614554777741432, -0.05077728256583214, -0.058957718312740326, 0.09364190697669983, -0.003564991056919098, -0.0025572674348950386, 1.0021958351135254, -1.7479790449142456, -3.1900782585144043, 0.07682754099369049, 0.0, 0.0, 0.0, 0, 0, 0, 0, 0, 0, -1.7502597570419312, -3.1946403980255127, 0.07700906693935394
16485, -0.07626604288816452, -0.1160101667046547, -0.01771949976682663, 0.05744102597236633, 0.16645339131355286, -0.02350778691470623, -0.001084808842279017, -0.004168711137026548, 1.000879168510437, -1.7502597570419312, -3.1946403980255127, 0.07700906693935394, 0.0, 0.0, 0.0, 0, 0, 0, 0, 0, 0, -1.7525410652160645, -3.199204206466675, 0.07719200104475021
16495, -0.07623396813869476, -0.11489842087030411, -0.01773243397474289, 0.12078945338726044, -0.06937593966722488, -0.11673138290643692, -0.0015611726557835937, -0.005237423349171877, 1.0002923011779785, -1.7525410652160645, -3.199204206466675, 0.07719200104475021, 0.0, 0.0, 0.0, 0, 0, 0, 0, 0, 0, -1.7548218965530396, -3.2037711143493652, 0.07737554609775543
16505, -0.0761413425207138, -0.11457610875368118, -0.01777460053563118, -0.041450127959251404, 0.2964877784252167, -0.090163953602314, -0.004085260909050703, -0.004710417706519365, 1.0011646747589111, -1.7548218965530396, -3.2037711143493652, 0.07737554609775543, 0.0, 0.0, 0.0, 0, 0, 0, 0, 0, 0, -1.7571030855178833, -3.208341360092163, 0.07755971699953079
16515, -0.07670578360557556, -0.11357727646827698, -0.01796020194888115, -0.022733174264431, -0.01155280601233244, 0.06231863051652908, -0.0018066458869725466, -0.0032993140630424023, 1.0009515285491943, -1.7571030855178833, -3.208341360092163, 0.07755971699953079, 0.0, 0.0, 0.0, 0, 0, 0, 0, 0, 0, -1.759385108947754, -3.212913990020752, 0.07774479687213898
16525, -0.07735730707645416, -0.11437489837408066, -0.018138566985726357, -0.22195614874362946, 0.22764341533184052, -0.0597083754837513, -0.002523631788790226, -0.003379685804247856, 1.0006754398345947, -1.759385108947754, -3.212913990020752, 0.07774479687213898, 0.0, 0.0, 0.0, 0, 0, 0, 0, 0, 0, -1.7616673707962036, -3.2174887657165527, 0.0779305100440979
16535, -0.07763775438070297, -0.11283323913812637, -0.018301524221897125, -0.014474145136773586, -0.2881558835506439, 0.0780443623661995, -0.0019233373459428549, -0.004150846507400274, 1.000080943107605, -1.7616673707962036, -3.2174887657165527, 0.0779305100440979, 0.0, 0.0, 0.0, 0, 0, 0, 0, 0, 0, -1.7639496326446533, -3.2220661640167236, 0.07811635732650757
16545, -0.07796170562505722, -0.1134454607963562, -0.017419904470443726, -0.026274045929312706, -0.018205324187874794, 0.16790495812892914, -0.002387539716437459, -0.004634390585124493, 1.0002505779266357, -1.7639496326446533, -3.2220661640167236, 0.07811635732650757, 0.0, 0.0, 0.0, 0, 0, 0, 0, 0, 0, -1.7662321329116821, -3.226646900177002, 0.0783023089170456
16555, -0.07772313058376312, -0.11306481063365936, -0.015457709319889545, 0.038907404989004135, 0.045471638441085815, 0.16524077951908112, -0.002577342791482806, -0.004048752132803202, 0.9994001984596252, -1.7662321329116821, -3.226646900177002, 0.0783023089170456, 0.0, 0.0, 0.0, 0, 0, 0, 0, 0, 0, -1.7685152292251587, -3.2312304973602295, 0.07848808914422989
16565, -0.07788650691509247, -0.11179114133119583, -0.015628565102815628, -0.0750754177570343, -0.02465158887207508, 0.021773692220449448, -0.00099389988463372, -0.0050851707346737385, 0.9994639754295349, -1.7685152292251587, -3.2312304973602295, 0.07848808914422989, 0.0, 0.0, 0.0, 0, 0, 0, 0, 0, 0, -1.7707983255386353, -3.2358171939849854, 0.07867341488599777
16575, -0.07630837708711624, -0.11284640431404114, -0.014713696204125881, 0.18412211537361145, 0.24613699316978455, 0.21148735284805298, 0.0005197342252358794, -0.005289479624480009, 1.001940131187439, -1.7707983255386353, -3.2358171939849854, 0.07867341488599777, 0.0, 0.0, 0.0, 0, 0, 0, 0, 0, 0, -1.7730801105499268, -3.240407705307007, 0.07885956764221191
16585, -0.07726551592350006, -0.11367497593164444, -0.014681396074593067, -0.03151900693774223, 0.0700133740901947, -0.11221767216920853, -0.0029990477487444878, -0.00575216906145215, 1.0012853145599365, -1.7730801105499268, -3.240407705307007, 0.07885956764221191, 0.0, 0.0, 0.0, 0, 0, 0, 0, 0, 0, -1.7753609418869019, -3.245002508163452, 0.07904727011919022
16595, -0.07728041708469391, -0.11221901327371597, -0.014805777929723263, 0.012655406259000301, -0.11400269716978073, -0.06625689566135406, -0.003390320809558034, -0.005472198594361544, 1.0012809038162231, -1.7753609418869019, -3.245002508163452, 0.07904727011919022, 0.0, 0.0, 0.0, 0, 0, 0, 0, 0, 0, -1.7776427268981934, -3.2496016025543213, 0.07923612743616104
16605, -0.07651279121637344, -0.1121661365032196, -0.013367291539907455, 0.04097731411457062, 0.08476158231496811, 0.07468348741531372, -0.002853094134479761, -0.0037112017162144184, 1.001511573791504, -1.7776427268981934, -3.2496016025543213, 0.07923612743616104, 0.0, 0.0, 0.0, 0, 0, 0, 0, 0, 0, -1.77992582321167, -3.2542037963867188, 0.07942619919776917
16615, -0.0778241753578186, -0.11156035214662552, -0.013400347903370857, -0.23558421432971954, -0.24476200342178345, 0.017673317342996597, -0.00042654413846321404, -0.0046910629607737064, 1.0014853477478027, -1.77992582321167, -3.2542037963867188, 0.07942619919776917, 0.0, 0.0, 0.0, 0, 0, 0, 0, 0, 0, -1.782208800315857, -3.2588090896606445, 0.07961755245923996
16625, -0.07744509726762772, -0.10979527980089188, -0.01434404868632555, 0.0767248347401619, -0.32709401845932007, -0.05811121314764023, -0.0029746233485639095, -0.006046460010111332, 1.0008288621902466, -1.782208800315857, -3.2588090896606445, 0.07961755245923996, 0.0, 0.0, 0.0, 0, 0, 0, 0, 0, 0, -1.7844914197921753, -3.263418436050415, 0.07980994880199432
16635, -0.0781647339463234, -0.11036307364702225, -0.015308556146919727, -0.16824480891227722, -0.02233455330133438, -0.1363379955291748, -0.002308560535311699, -0.002232530154287815, 1.000300645828247, -1.7844914197921753, -3.263418436050415, 0.07980994880199432, 0.0, 0.0, 0.0, 0, 0, 0, 0, 0, 0, -1.7867743968963623, -3.268030881881714, 0.08000300079584122
16645, -0.07952509075403214, -0.10996829718351364, -0.01601719856262207, -0.15297295153141022, -0.016767505556344986, 0.023143934085965157, -0.0025882755871862173, -0.003683424089103937, 0.9997168183326721, -1.7867743968963623, -3.268030881881714, 0.08000300079584122, 0.0, 0.0, 0.0, 0, 0, 0, 0, 0, 0, -1.789057731628418, -3.2726452350616455, 0.08019624650478363
16655, -0.07954246550798416, -0.10942312330007553, -0.017361368983983994, 0.02985834889113903, 0.19751577079296112, -0.10408167541027069, -0.0011385104153305292, -0.0016874369466677308, 1.000691533088684, -1.789057731628418, -3.2726452350616455, 0.08019624650478363, 0.0, 0.0, 0.0, 0, 0, 0, 0, 0, 0, -1.791340947151184, -3.2772607803344727, 0.08038956671953201
16665, -0.07936665415763855, -0.10903961956501007, -0.017396194860339165, -0.1208459660410881, 0.13708598911762238, 0.03863344341516495, -0.0048380885273218155, -0.004466230981051922, 1.0011581182479858, -1.791340947151184, -3.2772607803344727, 0.08038956671953201, 0.0, 0.0, 0.0, 0, 0, 0, 0, 0, 0, -1.793624997138977, -3.2818779945373535, 0.08058345317840576
16675, -0.07942477613687515, -0.11102328449487686, -0.015677498653531075, -0.004441052209585905, 0.3859085142612457, 0.2986370027065277, -0.0036488717887550592, -0.005829926114529371, 1.0006022453308105, -1.793624997138977, -3.2818779945373535, 0.08058345317840576, 0.0, 0.0, 0.0, 0, 0, 0, 0, 0, 0, -1.795911431312561, -3.286498546600342, 0.0807780772447586
16685, -0.07919023931026459, -0.11139136552810669, -0.014847096055746078, 0.07152169197797775, 0.16177672147750854, -0.1173519492149353, -0.0034915157593786716, -0.0063355229794979095, 0.9995818138122559, -1.795911431312561, -3.286498546600342, 0.0807780772447586, 0.0, 0.0, 0.0, 0, 0, 0, 0, 0, 0, -1.7981996536254883, -3.291123628616333, 0.08097279816865921
16695, -0.08044969290494919, -0.11073125898838043, -0.014609863981604576, -0.13061362504959106, 0.17197571694850922, 0.023224908858537674, -0.003735286183655262, -0.005181340966373682, 0.9986892342567444, -1.7981996536254883, -3.291123628616333, 0.08097279816865921, 0.0, 0.0, 0.0, 0, 0, 0, 0, 0, 0, -1.8004895448684692, -3.295753002166748, 0.08116690069437027
16705, -0.07992615550756454, -0.1109841987490654, -0.014102552086114883, 0.15460553765296936, 0.058309853076934814, 0.19625428318977356, -0.002960027428343892, -0.004340302664786577, 1.001115083694458, -1.8004895448684692, -3.295753002166748, 0.08116690069437027, 0.0, 0.0, 0.0, 0, 0, 0, 0, 0, 0, -1.8027808666229248, -3.3003857135772705, 0.08136102557182312
16715, -0.08141548931598663, -0.1119081974029541, -0.014101756736636162, -0.14079493284225464, 0.07481022924184799, -0.09053023904561996, -0.0025766759645193815, -0.004565362352877855, 0.9988958835601807, -1.8027808666229248, -3.3003857135772705, 0.08136102557182312, 0.0, 0.0, 0.0, 0, 0, 0, 0, 0, 0, -1.8050731420516968, -3.3050215244293213, 0.08155534416437149
16725, -0.08140473812818527, -0.11191980540752411, -0.013612747192382812, -0.14596936106681824, 0.015083602629601955, -0.06892648339271545, -0.0032119047828018665, -0.006578515749424696, 0.9994909167289734, -1.8050731420516968, -3.3050215244293213, 0.08155534416437149, 0.0, 0.0, 0.0, 0, 0, 0, 0, 0, 0, -1.8073664903640747, -3.3096611499786377, 0.0817490816116333
16735, -0.08162064850330353, -0.11076270788908005, -0.015150955878198147, -0.055558692663908005, -0.21011485159397125, -0.23731184005737305, -0.0011490110773593187, -0.006580349523574114, 0.9982547163963318, -1.8073664903640747, -3.3096611499786377, 0.0817490816116333, 0.0, 0.0, 0.0, 0, 0, 0, 0, 0, 0, -1.8096601963043213, -3.314305543899536, 0.0819416493177414
16745, -0.08165857940912247, -0.11167792975902557, -0.014372484758496284, 0.03552259877324104, 0.14226402342319489, 0.1620437204837799, -0.002377779223024845, -0.003943243995308876, 0.99969482421875, -1.8096601963043213, -3.314305543899536, 0.0819416493177414, 0.0, 0.0, 0.0, 0, 0, 0, 0, 0, 0, -1.8119539022445679, -3.3189539909362793, 0.08213302493095398
16755, -0.08118857443332672, -0.11128611862659454, -0.013475378975272179, 0.02234099805355072, -0.03844325616955757, -0.04664682224392891, -0.0027273844461888075, -0.0032347412779927254, 0.9990273118019104, -1.8119539022445679, -3.3189539909362793, 0.08213302493095398, 0.0, 0.0, 0.0, 0, 0, 0, 0, 0, 0, -1.814247965812683, -3.3236048221588135, 0.0823235735297203
16765, -0.08216149359941483, -0.11096035689115524, -0.012550503946840763, -0.12408792972564697, -0.05529463663697243, -0.09389618784189224, -0.0012091094395145774, -0.0061080073937773705, 0.999300479888916, -1.814247965812683, -3.3236048221588135, 0.0823235735297203, 0.0, 0.0, 0.0, 0, 0, 0, 0, 0, 0, -1.8165420293807983, -3.328258752822876, 0.08251319080591202
16775, -0.08145221322774887, -0.11001095175743103, -0.012090622447431087, 0.14908410608768463, -0.15480846166610718, 0.04740535840392113, -0.003495972603559494, -0.005718209780752659, 0.9997559189796448, -1.8165420293807983, -3.328258752822876, 0.08251319080591202, 0.0, 0.0, 0.0, 0, 0, 0, 0, 0, 0, -1.8188364505767822, -3.3329169750213623, 0.08270232379436493
16785, -0.08229811489582062, -0.11108317226171494, -0.011423652991652489, -0.18926744163036346, 0.29424142837524414, 0.18602398037910461, -0.004431196954101324, -0.0054762293584644794, 0.9993906021118164, -1.8188364505767822, -3.3329169750213623, 0.08270232379436493, 0.0, 0.0, 0.0, 0, 0, 0, 0, 0, 0, -1.8211328983306885, -3.3375792503356934, 0.08289116621017456
16795, -0.08186152577400208, -0.1126060038805008, -0.011196625418961048, 0.12969329953193665, 0.11019063740968704, 0.08262094855308533, -0.002441693563014269, -0.006832235958427191, 0.9990894198417664, -1.8211328983306885, -3.3375792503356934, 0.08289116621017456, 0.0, 0.0, 0.0, 0, 0, 0, 0, 0, 0, -1.8234307765960693, -3.3422460556030273, 0.0830792561173439
16805, -0.08055879920721054, -0.11397475004196167, -0.009884094819426537, 0.07145268470048904, 0.05918591469526291, 0.08536066114902496, -0.002008359879255295, -0.007526516914367676, 1.000352382659912, -1.8234307765960693, -3.3422460556030273, 0.0830792561173439, 0.0, 0.0, 0.0, 0, 0, 0, 0, 0, 0, -1.8257290124893188, -3.3469181060791016, 0.0832667127251625
16815, -0.08201263844966888, -0.11322025209665298, -0.010116084478795528, -0.15169203281402588, -0.079642154276371, -0.0923171266913414, -0.0018994114361703396, -0.004197259899228811, 0.999559760093689, -1.8257290124893188, -3.3469181060791016, 0.0832667127251625, 0.0, 0.0, 0.0, 0, 0, 0, 0, 0, 0, -1.8280274868011475, -3.3515946865081787, 0.08345387130975723
16825, -0.08037923276424408, -0.11257518827915192, -0.010027042590081692, 0.36040395498275757, -0.1725536435842514, 0.04800200089812279, -0.0027450534980744123, -0.0027244105003774166, 0.9989352822303772, -1.8280274868011475, -3.3515946865081787, 0.08345387130975723, 0.0, 0.0, 0.0, 0, 0, 0, 0, 0, 0, -1.8303260803222656, -3.356273651123047, 0.0836402103304863
16835, -0.08036018162965775, -0.11337120831012726, -0.009645906277000904, 0.07080654799938202, 0.11327698826789856, 0.09655462950468063, -0.0021887896582484245, -0.0030780213419348, 0.9996834993362427, -1.8303260803222656, -3.356273651123047, 0.0836402103304863, 0.0, 0.0, 0.0, 0, 0, 0, 0, 0, 0, -1.8326250314712524, -3.3609540462493896, 0.08382561802864075
16845, -0.08077992498874664, -0.1135731115937233, -0.00734478747472167, -0.06493568420410156, 0.09136916697025299, 0.18844696879386902, -0.0024458523839712143, -0.0031719470862299204, 0.9995701909065247, -1.8326250314712524, -3.3609540462493896, 0.08382561802864075, 0.0, 0.0, 0.0, 0, 0, 0, 0, 0, 0, -1.8349244594573975, -3.365636110305786, 0.08401042968034744
16855, -0.08002180606126785, -0.11124076694250107, -0.007991931401193142, 0.06995570659637451, -0.18658335506916046, -0.13841408491134644, -0.00258226552978158, -0.0038223406299948692, 0.9984641671180725, -1.8349244594573975, -3.365636110305786, 0.08401042968034744, 0.0, 0.0, 0.0, 0, 0, 0, 0, 0, 0, -1.8372242450714111, -3.3703200817108154, 0.08419418334960938
16865, -0.08033502846956253, -0.11196990311145782, -0.008873417973518372, 0.05029957368969917, 0.03618835657835007, -0.14974015951156616, -0.0032643619924783707, -0.005510544870048761, 0.9977619051933289, -1.8372242450714111, -3.3703200817108154, 0.08419418334960938, 0.0, 0.0, 0.0, 0, 0, 0, 0, 0, 0, -1.8395246267318726, -3.375006914138794, 0.08437597006559372
16875, -0.07898177951574326, -0.11186090856790543, -0.009440826252102852, 0.25464490056037903, -0.04402892664074898, -0.007472635246813297, -0.0013040892081335187, -0.0057426271960139275, 0.9983286261558533, -1.8395246267318726, -3.375006914138794, 0.08437597006559372, 0.0, 0.0, 0.0, 0, 0, 0, 0, 0, 0, -1.8418254852294922, -3.379697799682617, 0.08455552905797958
16885, -0.07896247506141663, -0.11167535185813904, -0.009516386315226555, 0.007891038432717323, 0.03422211483120918, 0.035643406212329865, -0.0014454175252467394, -0.00604364974424243, 0.9996218681335449, -1.8418254852294922, -3.379697799682617, 0.08455552905797958, 0.0, 0.0, 0.0, 0, 0, 0, 0, 0, 0, -1.8441261053085327, -3.3843932151794434, 0.08473385125398636
16895, -0.07903413474559784, -0.11110977083444595, -0.009948310442268848, -0.041011516004800797, -0.035324372351169586, -0.10903212428092957, -0.0020345330704003572, -0.005541520658880472, 0.9999408721923828, -1.8441261053085327, -3.3843932151794434, 0.08473385125398636, 0.0, 0.0, 0.0, 0, 0, 0, 0, 0, 0, -1.8464264869689941, -3.3890929222106934, 0.08491194993257523
16905, -0.07841837406158447, -0.11173698306083679, -0.007906387560069561, 0.02522282674908638, 0.25722435116767883, 0.29765185713768005, -0.0035162121057510376, -0.0042932420037686825, 0.9993918538093567, -1.8464264869689941, -3.3890929222106934, 0.08491194993257523, 0.0, 0.0, 0.0, 0, 0, 0, 0, 0, 0, -1.8487273454666138, -3.39379620552063, 0.08508998900651932
16915, -0.07782711833715439, -0.11037943512201309, -0.008246512152254581, 0.18018276989459991, -0.1294502168893814, 0.05345987528562546, -0.002983994781970978, -0.002837028354406357, 1.0012240409851074, -1.8487273454666138, -3.39379620552063, 0.08508998900651932, 0.0, 0.0, 0.0, 0, 0, 0, 0, 0, 0, -1.8510292768478394, -3.3985018730163574, 0.08526847511529922
16925, -0.07921531051397324, -0.11057624220848083, -0.006929885130375624, -0.13591749966144562, -0.024794926866889, 0.10554082691669464, -0.003254163544625044, -0.0061654867604374886, 1.0011299848556519, -1.8510292768478394, -3.3985018730163574, 0.08526847511529922, 0.0, 0.0, 0.0, 0, 0, 0, 0, 0, 0, -1.85333251953125, -3.4032106399536133, 0.08544787764549255
16935, -0.08008576184511185, -0.11192327737808228, -0.00807497464120388, -0.10982952266931534, 0.013726212084293365, -0.1506657600402832, -0.0019448810489848256, -0.006384233478456736, 1.0015032291412354, -1.85333251953125, -3.4032106399536133, 0.08544787764549255, 0.0, 0.0, 0.0, 0, 0, 0, 0, 0, 0, -1.8556365966796875, -3.407924175262451, 0.08562823385000229
16945, -0.0807391107082367, -0.11136928200721741, -0.007872456684708595, -0.1732412725687027, 0.06926357746124268, -0.000810622819699347, -0.0007277791737578809, -0.004848984070122242, 1.00103759765625, -1.8556365966796875, -3.407924175262451, 0.08562823385000229, 0.0, 0.0, 0.0, 0, 0, 0, 0, 0, 0, -1.8579401969909668, -3.412642002105713, 0.08580974489450455
16955, -0.08073792606592178, -0.11092404276132584, -0.007966145873069763, -0.05325452610850334, 0.12420933693647385, -0.0798099935054779, -0.000793413957580924, -0.003773896489292383, 0.9988659024238586, -1.8579401969909668, -3.412642002105713, 0.08580974489450455, 0.0, 0.0, 0.0, 0, 0, 0, 0, 0, 0, -1.8602426052093506, -3.417362928390503, 0.0859915167093277
16965, -0.08040844649076462, -0.1096687763929367, -0.007745159789919853, 0.08328548073768616, -0.11318275332450867, 0.11490677297115326, -0.0009133455459959805, -0.001819806406274438, 0.999011754989624, -1.8602426052093506, -3.417362928390503, 0.0859915167093277, 0.0, 0.0, 0.0, 0, 0, 0, 0, 0, 0, -1.8625439405441284, -3.422085762023926, 0.08617254346609116
16975, -0.08013655245304108, -0.10902036726474762, -0.00881875492632389, 0.10968293249607086, -0.10306788980960846, -0.08088771998882294, -0.002072863047942519, -0.003690537763759494, 1.0024172067642212, -1.8625439405441284, -3.422085762023926, 0.08617254346609116, 0.0, 0.0, 0.0, 0, 0, 0, 0, 0, 0, -1.864844799041748, -3.426809787750244, 0.08635412901639938
16985, -0.08075933903455734, -0.11056486517190933, -0.00889646913856268, -0.16609583795070648, 0.27981775999069214, 0.10278147459030151, -0.002463623182848096, -0.004002378322184086, 0.9995591640472412, -1.864844799041748, -3.426809787750244, 0.08635412901639938, 0.0, 0.0, 0.0, 0, 0, 0, 0, 0, 0, -1.8671458959579468, -3.4315359592437744, 0.08653662353754044
16995, -0.08041804283857346, -0.10897402465343475, -0.010336196050047874, -0.003622005693614483, -0.10816600173711777, -0.10167916119098663, -0.003975968807935715, -0.004835013300180435, 1.0002411603927612, -1.8671458959579468, -3.4315359592437744, 0.08653662353754044, 0.0, 0.0, 0.0, 0, 0, 0, 0, 0, 0, -1.869448184967041, -3.436265230178833, 0.08671896159648895
17005, -0.08041143417358398, -0.10859749466180801, -0.010764985345304012, -0.08962918817996979, -0.031704965978860855, 0.044732559472322464, -0.0038573122583329678, -0.0046020871959626675, 1.0001542568206787, -1.869448184967041, -3.436265230178833, 0.08671896159648895, 0.0, 0.0, 0.0, 0, 0, 0, 0, 0, 0, -1.8717522621154785, -3.44099760055542, 0.08690141141414642
17015, -0.07973988354206085, -0.10648958384990692, -0.010538396425545216, 0.19196738302707672, -0.2762961983680725, 0.13613925874233246, -0.0036271524149924517, -0.0053925784304738045, 0.9992796778678894, -1.8717522621154785, -3.44099760055542, 0.08690141141414642, 0.0, 0.0, 0.0, 0, 0, 0, 0, 0, 0, -1.8740580081939697, -3.4457335472106934, 0.08708391338586807
17025, -0.07953210175037384, -0.10640417784452438, -0.010815533809363842, -0.007125507108867168, 0.08113596588373184, -0.015133709646761417, -0.003896784968674183, -0.005011124070733786, 0.998849630355835, -1.8740580081939697, -3.4457335472106934, 0.08708391338586807, 0.0, 0.0, 0.0, 0, 0, 0, 0, 0, 0, -1.8763655424118042, -3.450472831726074, 0.08726567029953003
17035, -0.07991345226764679, -0.10715936124324799, -0.01138211414217949, -0.01955394446849823, -0.033665746450424194, -0.1871788650751114, -0.0019242499256506562, -0.0034728283062577248, 1.000269889831543, -1.8763655424118042, -3.450472831726074, 0.08726567029953003, 0.0, 0.0, 0.0, 0, 0, 0, 0, 0, 0, -1.8786742687225342, -3.4552152156829834, 0.08744709193706512
17045, -0.08004192262887955, -0.1056552529335022, -0.011017236858606339, -0.010970242321491241, -0.19766280055046082, -0.02021736465394497, -0.0015463074669241905, -0.0035125352442264557, 1.0003474950790405, -1.8786742687225342, -3.4552152156829834, 0.08744709193706512, 0.0, 0.0, 0.0, 0, 0, 0, 0, 0, 0, -1.8809831142425537, -3.4599597454071045, 0.08762878179550171
17055, -0.08064661920070648, -0.10566501319408417, -0.010859424248337746, -0.0732770711183548, 0.04859013110399246, 0.01990424282848835, -0.003748734947293997, -0.005458279047161341, 1.0016111135482788, -1.8809831142425537, -3.4599597454071045, 0.08762878179550171, 0.0, 0.0, 0.0, 0, 0, 0, 0, 0, 0, -1.883292555809021, -3.464707136154175, 0.08781113475561142
17065, -0.0807904452085495, -0.10727547854185104, -0.010585125535726547, -0.0775257870554924, 0.25468000769615173, 0.10474763810634613, -0.0043329945765435696, -0.003518688026815653, 1.0010230541229248, -1.883292555809021, -3.464707136154175, 0.08781113475561142, 0.0, 0.0, 0.0, 0, 0, 0, 0, 0, 0, -1.885603904724121, -3.4694573879241943, 0.08799456804990768
17075, -0.08075116574764252, -0.10893864929676056, -0.01010233536362648, -0.08747346699237823, 0.1845635324716568, 0.11336551606655121, -0.003673925530165434, -0.003763386979699135, 1.0017579793930054, -1.885603904724121, -3.4694573879241943, 0.08799456804990768, 0.0, 0.0, 0.0, 0, 0, 0, 0, 0, 0, -1.8879178762435913, -3.474210023880005, 0.08817920088768005
17085, -0.08055409789085388, -0.10803668200969696, -0.009666393510997295, -0.06456612795591354, -0.10824476927518845, 0.010339902713894844, -0.0025033385027199984, -0.005495011806488037, 0.9999804496765137, -1.8879178762435913, -3.474210023880005, 0.08817920088768005, 0.0, 0.0, 0.0, 0, 0, 0, 0, 0, 0, -1.8902336359024048, -3.4789655208587646, 0.08836494386196136
17095, -0.08085162192583084, -0.10738985985517502, -0.010445824824273586, -0.23105110228061676, 0.057585716247558594, -0.21159516274929047, -0.002277817577123642, -0.005046675447374582, 0.9985581636428833, -1.8902336359024048, -3.4789655208587646, 0.08836494386196136, 0.0, 0.0, 0.0, 0, 0, 0, 0, 0, 0, -1.892549753189087, -3.483724594116211, 0.08855035901069641
17105, -0.08144518733024597, -0.10723850876092911, -0.009809489361941814, -0.12372861802577972, 0.004679061938077211, -0.041937969624996185, -0.001771839102730155, -0.005484752357006073, 1.0003961324691772, -1.892549753189087, -3.483724594116211, 0.08855035901069641, 0.0, 0.0, 0.0, 0, 0, 0, 0, 0, 0, -1.8948662281036377, -3.488487720489502, 0.0887351706624031
17115, -0.07995838671922684, -0.10746520012617111, -0.01047187764197588, 0.161761075258255, 0.027948390692472458, -0.2560487985610962, -0.0037164425011724234, -0.0027509056963026524, 1.0022234916687012, -1.8948662281036377, -3.488487720489502, 0.0887351706624031, 0.0, 0.0, 0.0, 0, 0, 0, 0, 0, 0, -1.8974153995513916, -3.4937305450439453, 0.08893942087888718
17125, -0.08022050559520721, -0.10804974287748337, -0.009826086461544037, -0.17587676644325256, -0.023305580019950867, 0.10523616522550583, -0.00434788316488266, -0.003768512047827244, 1.0011277198791504, -1.8974153995513916, -3.4937305450439453, 0.08893942087888718, 0.0, 0.0, 0.0, 0, 0, 0, 0, 0, 0, -1.8997347354888916, -3.4984989166259766, 0.08912651985883713
17135, -0.07948354631662369, -0.11043643206357956, -0.01034492440521717, 0.19147278368473053, 0.17236796021461487, -0.09320660680532455, -0.005079105030745268, -0.00546454731374979, 0.9986214637756348, -1.8997347354888916, -3.4984989166259766, 0.08912651985883713, 0.0, 0.0, 0.0, 0, 0, 0, 0, 0, 0, -1.9020565748214722, -3.503270387649536, 0.08931365609169006
17145, -0.07888513803482056, -0.11225475370883942, -0.009244213812053204, 0.14877623319625854, 0.28038638830184937, -0.016121340915560722, -0.002107292180880904, -0.005104090087115765, 0.9987724423408508, -1.9020565748214722, -3.503270387649536, 0.08931365609169006, 0.0, 0.0, 0.0, 0, 0, 0, 0, 0, 0, -1.904380202293396, -3.5080456733703613, 0.08949945867061615
17155, -0.0794299840927124, -0.11101693660020828, -0.00840119831264019, 0.01640574261546135, -0.09828371554613113, 0.05299380049109459, -0.000927200831938535, -0.005751315969973803, 0.998595118522644, -1.904380202293396, -3.5080456733703613, 0.08949945867061615, 0.0, 0.0, 0.0, 0, 0, 0, 0, 0, 0, -1.9067037105560303, -3.512824773788452, 0.08968393504619598
17165, -0.07901886850595474, -0.11268645524978638, -0.008967310190200806, 0.08872359991073608, 0.2621898651123047, -0.13863813877105713, -0.003605622798204422, -0.004929027520120144, 0.9985830783843994, -1.9067037105560303, -3.512824773788452, 0.08968393504619598, 0.0, 0.0, 0.0, 0, 0, 0, 0, 0, 0, -1.9090274572372437, -3.5176076889038086, 0.08986727893352509
17175, -0.07822325825691223, -0.11079786717891693, -0.008762462995946407, 0.13895592093467712, -0.2231930047273636, 0.06183755397796631, -0.002916558412835002, -0.004685983061790466, 0.9990419745445251, -1.9090274572372437, -3.5176076889038086, 0.08986727893352509, 0.0, 0.0, 0.0, 0, 0, 0, 0, 0, 0, -1.911352515220642, -3.5223937034606934, 0.09004957973957062
17185, -0.07775559276342392, -0.11135834455490112, -0.009400345385074615, -0.04387982189655304, 0.20773564279079437, 0.05618996545672417, -0.0005678407615050673, -0.0047404649667441845, 1.0022469758987427, -1.911352515220642, -3.5223937034606934, 0.09004957973957062, 0.0, 0.0, 0.0, 0, 0, 0, 0, 0, 0, -1.911352515220642, -3.5223937034606934, 0.09004957973957062
17195, -0.07757902890443802, -0.1096380278468132, -0.009682860225439072, 0.0891675055027008, -0.34163227677345276, 0.11058331280946732, -0.001441576867364347, -0.0038148167077451944, 1.0010504722595215, -1.9136778116226196, -3.5271828174591064, 0.090232253074646, 0.0, 0.0, 0.0, 0, 0, 0, 0, 0, 0, -1.9136778116226196, -3.5271828174591064, 0.090232253074646
17205, -0.0783715769648552, -0.11121730506420135, -0.008770436979830265, -0.17200879752635956, 0.14001736044883728, 0.13030138611793518, -0.0015716907801106572, -0.0025901568587869406, 1.0018339157104492, -1.9160023927688599, -3.531975030899048, 0.09041641652584076, 0.0, 0.0, 0.0, 0, 0, 0, 0, 0, 0, -1.9160023927688599, -3.531975030899048, 0.09041641652584076
17215, -0.07853527367115021, -0.11194910109043121, -0.009424025192856789, -0.02111665904521942, 0.04217889532446861, -0.07356737554073334, -0.001949190511368215, -0.00366606586612761, 1.0010769367218018, -1.9183266162872314, -3.536769390106201, 0.09060195088386536, 0.0, 0.0, 0.0, 0, 0, 0, 0, 0, 0, -1.9183266162872314, -3.536769390106201, 0.09060195088386536
17225, -0.07874502241611481, -0.1128009557723999, -0.009787682443857193, -0.018715159967541695, 0.08810945600271225, 0.03373609110713005, -0.0020189203787595034, -0.004596163053065538, 1.0016484260559082, -1.9206507205963135, -3.5415656566619873, 0.09078877419233322, 0.0, 0.0, 0.0, 0, 0, 0, 0, 0, 0, -1.9206507205963135, -3.5415656566619873, 0.09078877419233322
17235, -0.07844153046607971, -0.1129816323518753, -0.008671971969306469, 0.09260052442550659, 0.005479477811604738, 0.21945437788963318, -0.002213879954069853, -0.003546833759173751, 1.001281976699829, -1.9229748249053955, -3.5463645458221436, 0.09097680449485779, 0.0, 0.0, 0.0, 0, 0, 0, 0, 0, 0, -1.9229748249053955, -3.5463645458221436, 0.09097680449485779
17245, -0.07835814356803894, -0.11300960928201675, -0.008573202416300774, -0.03390726074576378, 0.1404392123222351, 0.013003071770071983, -0.001871992601081729, -0.003740802640095353, 0.9980724453926086, -1.9252991676330566, -3.551165819168091, 0.09116598963737488, 0.0, 0.0, 0.0, 0, 0, 0, 0, 0, 0, -1.9252991676330566, -3.551165819168091, 0.09116598963737488
17255, -0.07865768671035767, -0.11333654075860977, -0.00922288279980421, -0.0006030236836522818, 0.033303480595350266, -0.09044628590345383, -0.0012575353030115366, -0.0038997612427920103, 1.0017555952072144, -1.9276236295700073, -3.55596923828125, 0.09135491400957108, 0.0, 0.0, 0.0, 0, 0, 0, 0, 0, 0, -1.9276236295700073, -3.55596923828125, 0.09135491400957108
17265, -0.07860803604125977, -0.11270373314619064, -0.008292247541248798, 0.06432749330997467, -0.1237415075302124, 0.03899632766842842, -0.0007192915072664618, -0.0016430991236120462, 1.004140019416809, -1.9299477338790894, -3.5607750415802, 0.09154379367828369, 0.0, 0.0, 0.0, 0, 0, 0, 0, 0, 0, -1.9299477338790894, -3.5607750415802, 0.09154379367828369
17275, -0.07783433794975281, -0.11300898343324661, -0.007392843719571829, 0.10216856002807617, -0.04758795350790024, 0.09588630497455597, -0.003045931924134493, -0.0037236742209643126, 1.0018901824951172, -1.932270884513855, -3.565582513809204, 0.09173525124788284, 0.0, 0.0, 0.0, 0, 0, 0, 0, 0, 0, -1.932270884513855, -3.565582513809204, 0.09173525124788284
17285, -0.07755611091852188, -0.1138802021741867, -0.006335111800581217, 0.09353924542665482, 0.047977108508348465, 0.1650981605052948, -0.0036155064590275288, -0.004480424337089062, 0.9996296763420105, -1.9345937967300415, -3.5703911781311035, 0.09192962199449539, 0.0, 0.0, 0.0, 0, 0, 0, 0, 0, 0, -1.9345937967300415, -3.5703911781311035, 0.09192962199449539
17295, -0.07869286090135574, -0.11576472222805023, -0.006378639489412308, -0.11610438674688339, 0.3311268985271454, -0.07410461455583572, -0.0019215736538171768, -0.0051177870482206345, 1.0007081031799316, -1.9369176626205444, -3.575202465057373, 0.09212513267993927, 0.0, 0.0, 0.0, 0, 0, 0, 0, 0, 0, -1.9369176626205444, -3.575202465057373, 0.09212513267993927
17305, -0.07929334789514542, -0.11433655023574829, -0.005946526303887367, -0.04687543585896492, -0.2845155894756317, 0.13933727145195007, -0.002092290436848998, -0.005269291345030069, 0.9988121390342712, -1.9392420053482056, -3.58001708984375, 0.09232109785079956, 0.0, 0.0, 0.0, 0, 0, 0, 0, 0, 0, -1.9392420053482056, -3.58001708984375, 0.09232109785079956
17315, -0.07863806933164597, -0.11334283649921417, -0.005428604315966368, 0.07322607934474945, -0.14044640958309174, 0.16684795916080475, -0.0023837306071072817, -0.004658761899918318, 0.9993467926979065, -1.9415663480758667, -3.5848350524902344, 0.09251699596643448, 0.0, 0.0, 0.0, 0, 0, 0, 0, 0, 0, -1.9415663480758667, -3.5848350524902344, 0.09251699596643448
17325, -0.0786793977022171, -0.11426714807748795, -0.004964702762663364, -0.02861795201897621, 0.1268104761838913, 0.07650793343782425, -0.0029935871716588736, -0.005326602142304182, 0.9984411001205444, -1.9438910484313965, -3.5896565914154053, 0.09271213412284851, 0.0, 0.0, 0.0, 0, 0, 0, 0, 0, 0, -1.9438910484313965, -3.5896565914154053, 0.09271213412284851
17335, -0.0790073424577713, -0.11560279875993729, -0.0066286008805036545, -0.09017233550548553, 0.031002547591924667, -0.22254274785518646, -0.004269764758646488, -0.003820133861154318, 0.9998360276222229, -1.9462164640426636, -3.5944817066192627, 0.09290625900030136, 0.0, 0.0, 0.0, 0, 0, 0, 0, 0, 0, -1.9462164640426636, -3.5944817066192627, 0.09290625900030136
17345, -0.07974101603031158, -0.11661158502101898, -0.007856117561459541, -0.08278529345989227, -0.014408335089683533, -0.1750955879688263, -0.0028923391364514828, -0.0045542181469500065, 1.0001360177993774, -1.9485434293746948, -3.5993099212646484, 0.09309946745634079, 0.0, 0.0, 0.0, 0, 0, 0, 0, 0, 0, -1.9485434293746948, -3.5993099212646484, 0.09309946745634079
17355, -0.07986245304346085, -0.11631132662296295, -0.007499149534851313, 0.10472226142883301, -0.031151730567216873, 0.089630626142025, -0.0033067709300667048, -0.006015419494360685, 0.9999139904975891, -1.9508717060089111, -3.6041412353515625, 0.0932924896478653, 0.0, 0.0, 0.0, 0, 0, 0, 0, 0, 0, -1.9508717060089111, -3.6041412353515625, 0.0932924896478653
17365, -0.08019574731588364, -0.11455101519823074, -0.007090990897268057, 0.0064180209301412106, -0.369178831577301, -0.013250011950731277, -0.0027225578669458628, -0.0031177883502095938, 0.9982610940933228, -1.9532009363174438, -3.608976364135742, 0.09348570555448532, 0.0, 0.0, 0.0, 0, 0, 0, 0, 0, 0, -1.9532009363174438, -3.608976364135742, 0.09348570555448532
17375, -0.08017009496688843, -0.1133417934179306, -0.006516301538795233, -0.006847526878118515, -0.005247787572443485, 0.2009085863828659, -0.0035430025309324265, -0.004950222093611956, 0.9990068674087524, -1.955531120300293, -3.61381459236145, 0.09367845207452774, 0.0, 0.0, 0.0, 0, 0, 0, 0, 0, 0, -1.955531120300293, -3.61381459236145, 0.09367845207452774
17385, -0.08012820035219193, -0.11344005912542343, -0.007312476634979248, -0.10009583085775375, 0.19837255775928497, -0.13742251694202423, -0.002518648747354746, -0.004051953088492155, 0.9995645880699158, -1.957862377166748, -3.6186554431915283, 0.09387002885341644, 0.0, 0.0, 0.0, 0, 0, 0, 0, 0, 0, -1.957862377166748, -3.6186554431915283, 0.09387002885341644
17395, -0.07935671508312225, -0.11156067997217178, -0.007719887420535088, 0.033254191279411316, -0.1310766041278839, -0.21070420742034912, -0.0004228347970638424, -0.004224081058055162, 1.0018466711044312, -1.96019446849823, -3.6234989166259766, 0.0940607488155365, 0.0, 0.0, 0.0, 0, 0, 0, 0, 0, 0, -1.96019446849823, -3.6234989166259766, 0.0940607488155365
17405, -0.07900135219097137, -0.11083465069532394, -0.00700864102691412, 0.11712959408760071, -0.007390216458588839, -0.026012886315584183, -0.00116036890540272, -0.0023606354370713234, 1.0022867918014526, -1.9625262022018433, -3.628345012664795, 0.09425193071365356, 0.0, 0.0, 0.0, 0, 0, 0, 0, 0, 0, -1.9625262022018433, -3.628345012664795, 0.09425193071365356
17415, -0.08058976382017136, -0.11081917583942413, -0.0065756128169596195, -0.2353280484676361, 0.09261801093816757, -0.03583122789859772, -0.004893510602414608, -0.0034438271541148424, 1.0018681287765503, -1.9648571014404297, -3.633192777633667, 0.09444492310285568, 0.0, 0.0, 0.0, 0, 0, 0, 0, 0, 0, -1.9648571014404297, -3.633192777633667, 0.09444492310285568
17425, -0.08081359416246414, -0.11191432178020477, -0.00654991390183568, 0.014347895979881287, 0.15718165040016174, 0.012190028093755245, -0.0038044212851673365, -0.0036676812451332808, 1.0018880367279053, -1.9671889543533325, -3.6380419731140137, 0.09463995695114136, 0.0, 0.0, 0.0, 0, 0, 0, 0, 0, 0, -1.9671889543533325, -3.6380419731140137, 0.09463995695114136
17435, -0.07919608056545258, -0.11091964691877365, -0.00627187080681324, 0.15783488750457764, -0.09891504794359207, -0.10628120601177216, -0.0017930669710040092, -0.004102550446987152, 0.998539388179779, -1.9695228338241577, -3.6428933143615723, 0.09483680129051208, 0.0, 0.0, 0.0, 0, 0, 0, 0, 0, 0, -1.9695228338241577, -3.6428933143615723, 0.09483680129051208
17445, -0.07872067391872406, -0.11271121352910995, -0.005856614094227552, 0.007883002050220966, 0.3393484652042389, 0.01157181616872549, -0.004458928946405649, -0.0033143977634608746, 0.9988722801208496, -1.9718576669692993, -3.647747039794922, 0.09503408521413803, 0.0, 0.0, 0.0, 0, 0, 0, 0, 0, 0, -1.9718576669692993, -3.647747039794922, 0.09503408521413803
17455, -0.07882498949766159, -0.11002273857593536, -0.006610536016523838, 0.0077189672738313675, -0.2538202702999115, 0.003148868680000305, -0.003538990393280983, -0.003461001208052039, 1.0002845525741577, -1.9741935729980469, -3.6526031494140625, 0.09523043036460876, 0.0, 0.0, 0.0, 0, 0, 0, 0, 0, 0, -1.9741935729980469, -3.6526031494140625, 0.09523043036460876
17465, -0.0788462832570076, -0.11095474660396576, -0.006550462916493416, 0.055608607828617096, 0.19993668794631958, 0.024591678753495216, -0.003021813463419676, -0.0054448856972157955, 1.000795602798462, -1.9765311479568481, -3.657461643218994, 0.09542626142501831, 0.0, 0.0, 0.0, 0, 0, 0, 0, 0, 0, -1.9765311479568481, -3.657461643218994, 0.09542626142501831
17475, -0.07969804108142853, -0.11289086937904358, -0.006852097809314728, -0.13571369647979736, 0.19084066152572632, -0.07965654134750366, -0.0026101216208189726, -0.006672966759651899, 1.003504991531372, -1.9788697957992554, -3.662323236465454, 0.0956224724650383, 0.0, 0.0, 0.0, 0, 0, 0, 0, 0, 0, -1.9788697957992554, -3.662323236465454, 0.0956224724650383
17485, -0.07937581837177277, -0.11248080432415009, -0.00630460400134325, -0.022207003086805344, -0.1396227777004242, -0.026198113337159157, -0.0033742415253072977, -0.006220905110239983, 1.000519871711731, -1.9812091588974, -3.667189359664917, 0.0958205983042717, 0.0, 0.0, 0.0, 0, 0, 0, 0, 0, 0, -1.9812091588974, -3.667189359664917, 0.0958205983042717
17495, -0.07928215712308884, -0.11376586556434631, -0.006498267874121666, -0.01157093420624733, 0.10739874094724655, 0.07565631717443466, -0.0037053991109132767, -0.003817156655713916, 1.00132417678833, -1.9835495948791504, -3.672060489654541, 0.09602079540491104, 0.0, 0.0, 0.0, 0, 0, 0, 0, 0, 0, -1.9835495948791504, -3.672060489654541, 0.09602079540491104
17505, -0.07842601835727692, -0.1140550822019577, -0.006220114883035421, 0.11445719003677368, -0.10109379142522812, 0.00905631110072136, -0.0005529536283574998, -0.004009457770735025, 1.000938057899475, -1.985891580581665, -3.6769354343414307, 0.09622219204902649, 0.0, 0.0, 0.0, 0, 0, 0, 0, 0, 0, -1.985891580581665, -3.6769354343414307, 0.09622219204902649
17515, -0.07798252999782562, -0.11352501809597015, -0.005557692144066095, -0.014269580133259296, -0.04101467505097389, -0.09125087410211563, -0.0013723077718168497, -0.004320214968174696, 0.998538613319397, -1.9882339239120483, -3.6818130016326904, 0.09642472118139267, 0.0, 0.0, 0.0, 0, 0, 0, 0, 0, 0, -1.9882339239120483, -3.6818130016326904, 0.09642472118139267
17525, -0.07821080088615417, -0.11236004531383514, -0.00488997669890523, -0.057890065014362335, -0.07903281599283218, 0.046271730214357376, -0.00359777151606977, -0.004541589412838221, 1.0005396604537964, -1.9905753135681152, -3.6866931915283203, 0.09662707895040512, 0.0, 0.0, 0.0, 0, 0, 0, 0, 0, 0, -1.9905753135681152, -3.6866931915283203, 0.09662707895040512
17535, -0.07792296260595322, -0.11030448973178864, -0.00598189327865839, 0.07484559714794159, -0.2826668918132782, -0.12583142518997192, -0.004166584461927414, -0.0037490883842110634, 1.0006847381591797, -1.9929169416427612, -3.6915762424468994, 0.09682892262935638, 0.0, 0.0, 0.0, 0, 0, 0, 0, 0, 0, -1.9929169416427612, -3.6915762424468994, 0.09682892262935638
17545, -0.07757262885570526, -0.11019337177276611, -0.004814381245523691, 0.07510164380073547, 0.029383821412920952, 0.0662318542599678, -0.0031774381641298532, -0.0030232411809265614, 0.9980852007865906, -1.995260238647461, -3.6964621543884277, 0.09703119099140167, 0.0, 0.0, 0.0, 0, 0, 0, 0, 0, 0, -1.995260238647461, -3.6964621543884277, 0.09703119099140167
17555, -0.07764070481061935, -0.10994794964790344, -0.00483193714171648, 0.012066285125911236, -0.01873358152806759, 0.008479814976453781, -0.0015785179566591978, -0.00219229469075799, 0.9992530941963196, -1.9976049661636353, -3.701349973678589, 0.09723302721977234, 0.0, 0.0, 0.0, 0, 0, 0, 0, 0, 0, -1.9976049661636353, -3.701349973678589, 0.09723302721977234
17565, -0.07649001479148865, -0.11038262397050858, -0.004721415229141712, 0.1408308744430542, 0.1109934002161026, 0.02722558006644249, -9.772315388545394e-05, -0.0032777441665530205, 0.9985463619232178, -1.9999500513076782, -3.7062389850616455, 0.09743361920118332, 0.0, 0.0, 0.0, 0, 0, 0, 0, 0, 0, -1.9999500513076782, -3.7062389850616455, 0.09743361920118332
17575, -0.07678806036710739, -0.11150466650724411, -0.003165524685755372, 0.047203853726387024, -0.014279846101999283, 0.10292348265647888, -0.0019871415570378304, -0.004358303267508745, 0.9972321391105652, -2.0022943019866943, -3.7111294269561768, 0.09763292223215103, 0.0, 0.0, 0.0, 0, 0, 0, 0, 0, 0, -2.0022943019866943, -3.7111294269561768, 0.09763292223215103
17585, -0.07724626362323761, -0.1098082959651947, -0.0034438129514455795, -0.12591001391410828, -0.19211407005786896, -0.18666554987430573, -0.003140666987746954, -0.004822923336178064, 0.9990109205245972, -2.0046377182006836, -3.716022253036499, 0.09783027321100235, 0.0, 0.0, 0.0, 0, 0, 0, 0, 0, 0, -2.0046377182006836, -3.716022253036499, 0.09783027321100235
17595, -0.07599222660064697, -0.10981453210115433, -0.004274784587323666, 0.21232743561267853, -0.07399535924196243, 0.04495588690042496, -0.0029619713313877583, -0.005384161602705717, 1.0009387731552124, -2.006981611251831, -3.7209181785583496, 0.098025843501091, 0.0, 0.0, 0.0, 0, 0, 0, 0, 0, 0, -2.006981611251831, -3.7209181785583496, 0.098025843501091
17605, -0.07639691233634949, -0.11014196276664734, -0.004759881179779768, -0.06180925667285919, -0.04366829991340637, -0.04092298075556755, -0.004159195348620415, -0.0032101613469421864, 0.9998412132263184, -2.009326696395874, -3.725817918777466, 0.09822101891040802, 0.0, 0.0, 0.0, 0, 0, 0, 0, 0, 0, -2.009326696395874, -3.725817918777466, 0.09822101891040802
17615, -0.07705226540565491, -0.11004789173603058, -0.0064151170663535595, -0.1045936793088913, 0.10068634152412415, -0.10862231254577637, -0.003086244221776724, -0.004088858608156443, 0.9980795979499817, -2.0116734504699707, -3.7307205200195312, 0.09841626137495041, 0.0, 0.0, 0.0, 0, 0, 0, 0, 0, 0, -2.0116734504699707, -3.7307205200195312, 0.09841626137495041
17625, -0.07750523835420609, -0.11086536198854446, -0.005940663628280163, -0.029946547001600266, 0.08301059156656265, 0.17758986353874207, -0.004051194991916418, -0.0031939123291522264, 0.999586284160614, -2.014021873474121, -3.7356255054473877, 0.09861046820878983, 0.0, 0.0, 0.0, 0, 0, 0, 0, 0, 0, -2.014021873474121, -3.7356255054473877, 0.09861046820878983
17635, -0.07749377936124802, -0.11107771098613739, -0.006007621996104717, 0.08300977945327759, -0.028860241174697876, 0.08599420636892319, -0.005853722337633371, -0.00445121806114912, 1.0006420612335205, -2.016371726989746, -3.740532875061035, 0.09880352020263672, 0.0, 0.0, 0.0, 0, 0, 0, 0, 0, 0, -2.016371726989746, -3.740532875061035, 0.09880352020263672
17645, -0.07673610746860504, -0.11123300343751907, -0.00621820567175746, 0.03766273334622383, 0.018386125564575195, -0.008555451408028603, -0.003296962473541498, -0.0050279502756893635, 0.9983456134796143, -2.018724203109741, -3.7454423904418945, 0.09899648278951645, 0.0, 0.0, 0.0, 0, 0, 0, 0, 0, 0, -2.018724203109741, -3.7454423904418945, 0.09899648278951645
17655, -0.07781115174293518, -0.11150461435317993, -0.004953555762767792, -0.0963059738278389, -0.061226483434438705, 0.14937065541744232, -0.0019068270921707153, -0.007096559274941683, 1.0005347728729248, -2.0210793018341064, -3.750354766845703, 0.09918896853923798, 0.0, 0.0, 0.0, 0, 0, 0, 0, 0, 0, -2.0210793018341064, -3.750354766845703, 0.09918896853923798
17665, -0.07788992673158646, -0.1129414513707161, -0.0060889506712555885, -0.004484649747610092, 0.16681396961212158, -0.20167364180088043, -0.0019271890632808208, -0.006157890893518925, 1.000485897064209, -2.023435115814209, -3.7552714347839355, 0.09938088804483414, 0.0, 0.0, 0.0, 0, 0, 0, 0, 0, 0, -2.023435115814209, -3.7552714347839355, 0.09938088804483414
17675, -0.07772388309240341, -0.11128818988800049, -0.006879433058202267, 0.1205938532948494, -0.2419082671403885, -0.06892288476228714, -0.0014233130495995283, -0.005019461736083031, 1.0014190673828125, -2.0257909297943115, -3.760193347930908, 0.09957306832075119, 0.0, 0.0, 0.0, 0, 0, 0, 0, 0, 0, -2.0257909297943115, -3.760193347930908, 0.09957306832075119
17685, -0.07797730714082718, -0.11041073501110077, -0.007159247528761625, 0.018215661868453026, -0.05527454614639282, 0.0486566536128521, -0.00031177274649962783, -0.003621600102633238, 0.9990136027336121, -2.028146505355835, -3.7651193141937256, 0.09976609796285629, 0.0, 0.0, 0.0, 0, 0, 0, 0, 0, 0, -2.028146505355835, -3.7651193141937256, 0.09976609796285629
17695, -0.07814040035009384, -0.1068430095911026, -0.007141341920942068, -0.018265997990965843, -0.4075146019458771, -0.0108689796179533, -0.0023244551848620176, -0.005560252815485001, 0.9959679841995239, -2.030501127243042, -3.770048141479492, 0.09995951503515244, 0.0, 0.0, 0.0, 0, 0, 0, 0, 0, 0, -2.030501127243042, -3.770048141479492, 0.09995951503515244
17705, -0.07782595604658127, -0.10703649371862411, -0.007321743760257959, -0.02085626684129238, 0.006600190419703722, -0.010659863241016865, -0.0022360009606927633, -0.006366983521729708, 0.9981544613838196, -2.0328550338745117, -3.774980306625366, 0.10015080124139786, 0.0, 0.0, 0.0, 0, 0, 0, 0, 0, 0, -2.0328550338745117, -3.774980306625366, 0.10015080124139786
17715, -0.07762983441352844, -0.10701833665370941, -0.0073118978179991245, 0.046841710805892944, -0.044287655502557755, -0.021550405770540237, 0.00033038679976016283, -0.005933599546551704, 1.0002174377441406, -2.0352094173431396, -3.779917001724243, 0.10033928602933884, 0.0, 0.0, 0.0, 0, 0, 0, 0, 0, 0, -2.0352094173431396, -3.779917001724243, 0.10033928602933884
17725, -0.07688472419977188, -0.10490956902503967, -0.005826559849083424, 0.07196813076734543, -0.19455355405807495, 0.28087276220321655, -0.0015079897129908204, -0.004611437674611807, 1.0006060600280762, -2.0375630855560303, -3.784858465194702, 0.1005268543958664, 0.0, 0.0, 0.0, 0, 0, 0, 0, 0, 0, -2.0375630855560303, -3.784858465194702, 0.1005268543958664
17735, -0.07600998878479004, -0.10331722348928452, -0.0063547356985509396, 0.04907147213816643, 0.017394641414284706, -0.08134531229734421, -0.003538546385243535, -0.00468224473297596, 1.0021809339523315, -2.0399158000946045, -3.7898035049438477, 0.10071462392807007, 0.0, 0.0, 0.0, 0, 0, 0, 0, 0, 0, -2.0399158000946045, -3.7898035049438477, 0.10071462392807007
17745, -0.07585403323173523, -0.1040678471326828, -0.0063207559287548065, -0.07406822592020035, 0.13924670219421387, -0.04231903329491615, -0.0028844515327364206, -0.0042594498954713345, 0.9999808669090271, -2.042268753051758, -3.7947518825531006, 0.10090342164039612, 0.0, 0.0, 0.0, 0, 0, 0, 0, 0, 0, -2.042268753051758, -3.7947518825531006, 0.10090342164039612
17755, -0.07652312517166138, -0.10578355193138123, -0.007377218455076218, -0.19112631678581238, 0.4332394003868103, -0.21261171996593475, -0.0018397490493953228, -0.0031024361960589886, 0.9997614026069641, -2.0446228981018066, -3.799703359603882, 0.1010931059718132, 0.0, 0.0, 0.0, 0, 0, 0, 0, 0, 0, -2.0446228981018066, -3.799703359603882, 0.1010931059718132
17765, -0.07586129009723663, -0.1065203845500946, -0.006577083375304937, 0.07255837321281433, 0.21089686453342438, 0.20453615486621857, -0.0037916305009275675, -0.004217657260596752, 1.002780795097351, -2.0469777584075928, -3.804657220840454, 0.10128263384103775, 0.0, 0.0, 0.0, 0, 0, 0, 0, 0, 0, -2.0469777584075928, -3.804657220840454, 0.10128263384103775
17775, -0.0770525336265564, -0.10755041241645813, -0.0066358367912471294, -0.13904696702957153, 0.11378268152475357, 0.040116868913173676, -0.003113730810582638, -0.004720864351838827, 1.0020616054534912, -2.049333333969116, -3.8096134662628174, 0.10147323459386826, 0.0, 0.0, 0.0, 0, 0, 0, 0, 0, 0, -2.049333333969116, -3.8096134662628174, 0.10147323459386826
17785, -0.07631774246692657, -0.10710654407739639, -0.00610724464058876, 0.1399586945772171, -0.1411561816930771, 0.12662948668003082, -0.002686689142137766, -0.005013489630073309, 1.0000407695770264, -2.0516903400421143, -3.81457257270813, 0.10166608542203903, 0.0, 0.0, 0.0, 0, 0, 0, 0, 0, 0, -2.0516903400421143, -3.81457257270813, 0.10166608542203903
17795, -0.07546761631965637, -0.10735759139060974, -0.006366103421896696, -0.01601146161556244, 0.06781729310750961, -0.13436433672904968, -0.0027457927353680134, -0.00469363946467638, 1.0006437301635742, -2.0540482997894287, -3.8195347785949707, 0.10186005383729935, 0.0, 0.0, 0.0, 0, 0, 0, 0, 0, 0, -2.0540482997894287, -3.8195347785949707, 0.10186005383729935
17805, -0.07546733319759369, -0.10925089567899704, -0.00568340253084898, -0.07529062032699585, 0.3126544952392578, 0.06079207360744476, -0.00248118513263762, -0.0033645026851445436, 1.0014935731887817, -2.0564069747924805, -3.824500322341919, 0.10205435752868652, 0.0, 0.0, 0.0, 0, 0, 0, 0, 0, 0, -2.0564069747924805, -3.824500322341919, 0.10205435752868652
17815, -0.07598184049129486, -0.1100294217467308, -0.0058155725710093975, -0.15262794494628906, 0.3065907657146454, -0.06667573750019073, -0.0012508932268247008, -0.0047841379418969154, 1.0001106262207031, -2.0587666034698486, -3.8294684886932373, 0.10224950313568115, 0.0, 0.0, 0.0, 0, 0, 0, 0, 0, 0, -2.0587666034698486, -3.8294684886932373, 0.10224950313568115
17825, -0.07700782269239426, -0.10898769646883011, -0.005333881359547377, -0.18289095163345337, -0.017813073471188545, 0.1164092943072319, -0.0007210063049569726, -0.002237610286101699, 0.9998747706413269, -2.061126232147217, -3.834439277648926, 0.10244525223970413, 0.0, 0.0, 0.0, 0, 0, 0, 0, 0, 0, -2.061126232147217, -3.834439277648926, 0.10244525223970413
17835, -0.0763680562376976, -0.10758202522993088, -0.006086145527660847, 0.10756281763315201, -0.17667458951473236, -0.047545045614242554, -0.0012171396519988775, -0.004429686348885298, 1.0002082586288452, -2.0634853839874268, -3.839412212371826, 0.10264084488153458, 0.0, 0.0, 0.0, 0, 0, 0, 0, 0, 0, -2.0634853839874268, -3.839412212371826, 0.10264084488153458
17845, -0.07577560842037201, -0.10706216841936111, -0.005503629334270954, 0.023277396336197853, -0.045545440167188644, 0.09030326455831528, -0.0036295601166784763, -0.004093619994819164, 1.0019848346710205, -2.0658440589904785, -3.8443872928619385, 0.10283638536930084, 0.0, 0.0, 0.0, 0, 0, 0, 0, 0, 0, -2.0658440589904785, -3.8443872928619385, 0.10283638536930084
17855, -0.07655514031648636, -0.10721559822559357, -0.005690732970833778, -0.1373891830444336, -0.0876048356294632, -0.10661791265010834, -0.0037466175854206085, -0.0029180264100432396, 1.0002092123031616, -2.0682032108306885, -3.849364995956421, 0.10303273797035217, 0.0, 0.0, 0.0, 0, 0, 0, 0, 0, 0, -2.0682032108306885, -3.849364995956421, 0.10303273797035217
17865, -0.07700961828231812, -0.10763527452945709, -0.0060707079246640205, 0.07382945716381073, -0.012989255599677563, -0.01316153071820736, -0.003428056603297591, -0.004973508417606354, 1.0011850595474243, -2.070564031600952, -3.8543448448181152, 0.1032300516963005, 0.0, 0.0, 0.0, 0, 0, 0, 0, 0, 0, -2.070564031600952, -3.8543448448181152, 0.1032300516963005
17875, -0.07748007774353027, -0.10870450735092163, -0.005842151120305061, 0.019381506368517876, 0.2754030227661133, 0.011237949132919312, -0.0022770646028220654, -0.0039152526296675205, 0.9999328255653381, -2.0729262828826904, -3.8593268394470215, 0.10342805832624435, 0.0, 0.0, 0.0, 0, 0, 0, 0, 0, 0, -2.075289487838745, -3.864311933517456, 0.10362644493579865
17885, -0.07670140266418457, -0.10870493948459625, -0.003474584547802806, 0.10354235768318176, -0.09039866179227829, 0.37833139300346375, -0.0017979106632992625, -0.0018216215539723635, 1.0009002685546875, -2.075289487838745, -3.864311933517456, 0.10362644493579865, 0.0, 0.0, 0.0, 0, 0, 0, 0, 0, 0, -2.077652931213379, -3.8692989349365234, 0.10382518917322159
17895, -0.07643342018127441, -0.11073306202888489, -0.0022310777567327023, -0.003202954074367881, 0.24388021230697632, 0.13697735965251923, -0.005719562526792288, -0.0025312830694019794, 0.9988532662391663, -2.077652931213379, -3.8692989349365234, 0.10382518917322159, 0.0, 0.0, 0.0, 0, 0, 0, 0, 0, 0, -2.0800178050994873, -3.874286651611328, 0.10402403026819229
17905, -0.07651633769273758, -0.11019357293844223, -0.0026136774104088545, 0.054693374782800674, -0.01971866562962532, -0.06409942358732224, -0.004289971198886633, -0.0015143589116632938, 0.9979221224784851, -2.0800178050994873, -3.874286651611328, 0.10402403026819229, 0.0, 0.0, 0.0, 0, 0, 0, 0, 0, 0, -2.082385778427124, -3.879274845123291, 0.104221411049366
17915, -0.0759795606136322, -0.11066476255655289, -0.002851254539564252, 0.12219962477684021, 0.11747108399868011, 0.18482346832752228, -0.0011552422074601054, -0.0036877042148262262, 0.9987950325012207, -2.082385778427124, -3.879274845123291, 0.104221411049366, 0.0, 0.0, 0.0, 0, 0, 0, 0, 0, 0, -2.0847549438476562, -3.8842644691467285, 0.10441712290048599
17925, -0.07592348009347916, -0.10863525420427322, -0.002195103093981743, 0.0044583952985703945, -0.1909196376800537, 0.06542149186134338, -0.0009334792848676443, -0.005929967388510704, 1.0019598007202148, -2.0847549438476562, -3.8842644691467285, 0.10441712290048599, 0.0, 0.0, 0.0, 0, 0, 0, 0, 0, 0, -2.0871236324310303, -3.8892571926116943, 0.10461287945508957
17935, -0.07648760825395584, -0.10902485996484756, -0.0023048745933920145, -0.04594364017248154, 0.09739180654287338, -0.0020917807705700397, 0.0008977055549621582, -0.0043759457767009735, 1.0003771781921387, -2.0871236324310303, -3.8892571926116943, 0.10461287945508957, 0.0, 0.0, 0.0, 0, 0, 0, 0, 0, 0, -2.0894906520843506, -3.894253730773926, 0.10480950027704239
17945, -0.0766896978020668, -0.1094476729631424, -0.003027157625183463, -0.015614058822393417, -0.05484833940863609, -0.23835082352161407, -0.0015791453188285232, -0.001873454893939197, 1.0010457038879395, -2.0894906520843506, -3.894253730773926, 0.10480950027704239, 0.0, 0.0, 0.0, 0, 0, 0, 0, 0, 0, -2.091856002807617, -3.89925217628479, 0.10500672459602356
17955, -0.07711178064346313, -0.11150868982076645, -0.0014496814692392945, -0.02335086464881897, 0.24315562844276428, 0.1924099177122116, -0.004120664671063423, -0.0029054770711809397, 0.9986981153488159, -2.091856002807617, -3.89925217628479, 0.10500672459602356, 0.0, 0.0, 0.0, 0, 0, 0, 0, 0, 0, -2.094221830368042, -3.9042515754699707, 0.10520362854003906
17965, -0.07763597369194031, -0.11167937517166138, -0.0022717781830579042, -0.14810337126255035, 0.08580227941274643, -0.2051824927330017, -0.0032996628433465958, -0.004646668676286936, 0.9968176484107971, -2.094221830368042, -3.9042515754699707, 0.10520362854003906, 0.0, 0.0, 0.0, 0, 0, 0, 0, 0, 0, -2.0965893268585205, -3.909252882003784, 0.10539854317903519
17975, -0.07622772455215454, -0.11186856031417847, -0.002279420616105199, 0.1446666717529297, 0.12410174310207367, -0.03762701898813248, -0.0025014227721840143, -0.0056065283715724945, 0.9981848001480103, -2.0965893268585205, -3.909252882003784, 0.10539854317903519, 0.0, 0.0, 0.0, 0, 0, 0, 0, 0, 0, -2.0965893268585205, -3.909252882003784, 0.10539854317903519
17985, -0.07594695687294006, -0.11231236904859543, -0.0028385657351464033, -0.02245413139462471, 0.09364619851112366, -0.09980183094739914, -0.0004913893644697964, -0.004867867566645145, 1.004159688949585, -2.0989582538604736, -3.914257526397705, 0.1055912896990776, 0.0, 0.0, 0.0, 0, 0, 0, 0, 0, 0, -2.0989582538604736, -3.914257526397705, 0.1055912896990776
17995, -0.07646287977695465, -0.11309681087732315, -0.0025338882114738226, 0.023119401186704636, 0.0215115025639534, 0.04460132494568825, -0.001467425376176834, -0.0029418335761874914, 1.0012331008911133, -2.1015636920928955, -3.919766664505005, 0.10580434650182724, 0.0, 0.0, 0.0, 0, 0, 0, 0, 0, 0, -2.1015636920928955, -3.919766664505005, 0.10580434650182724
18005, -0.07626445591449738, -0.1148734912276268, -0.0020476425997912884, 0.027153147384524345, 0.17992821335792542, 0.001348780351690948, -0.000372838054317981, -0.004443169571459293, 1.0000274181365967, -2.103931427001953, -3.9247777462005615, 0.10600057989358902, 0.0, 0.0, 0.0, 0, 0, 0, 0, 0, 0, -2.103931427001953, -3.9247777462005615, 0.10600057989358902
18015, -0.07669885456562042, -0.11442653834819794, -0.002560954773798585, -0.20866474509239197, -0.22995810210704803, -0.17093370854854584, -0.0015125664649531245, -0.0031777354888617992, 0.9998665452003479, -2.1062982082366943, -3.929791212081909, 0.10619770735502243, 0.0, 0.0, 0.0, 0, 0, 0, 0, 0, 0, -2.1062982082366943, -3.929791212081909, 0.10619770735502243
18025, -0.07705670595169067, -0.11442218720912933, -0.0016425583744421601, -0.08300172537565231, -0.19028674066066742, 0.136545792222023, -0.0018255244940519333, -0.0022849368397146463, 1.0017814636230469, -2.108664035797119, -3.934807062149048, 0.10639512538909912, 0.0, 0.0, 0.0, 0, 0, 0, 0, 0, 0, -2.108664035797119, -3.934807062149048, 0.10639512538909912
18035, -0.07711239904165268, -0.11346013844013214, -0.001537229516543448, -0.09788864105939865, -0.2115507572889328, -0.10319585353136063, -0.002783399075269699, -0.0036595209967345, 1.000692367553711, -2.111029624938965, -3.939824342727661, 0.10659367591142654, 0.0, 0.0, 0.0, 0, 0, 0, 0, 0, 0, -2.111029624938965, -3.939824342727661, 0.10659367591142654
18045, -0.07650650292634964, -0.11297130584716797, -0.0017714689020067453, 0.1294712871313095, 0.02875657193362713, -0.05415377765893936, -0.00421144487336278, -0.0042173354886472225, 0.998371422290802, -2.113395929336548, -3.9448435306549072, 0.10679350793361664, 0.0, 0.0, 0.0, 0, 0, 0, 0, 0, 0, -2.113395929336548, -3.9448435306549072, 0.10679350793361664
18055, -0.07717084884643555, -0.11313523352146149, -0.0021828438621014357, -0.05573631823062897, 0.10487953573465347, 0.036767423152923584, -0.0011452801991254091, -0.0024332033935934305, 1.0024272203445435, -2.1157639026641846, -3.9498651027679443, 0.1069931909441948, 0.0, 0.0, 0.0, 0, 0, 0, 0, 0, 0, -2.1157639026641846, -3.9498651027679443, 0.1069931909441948
18065, -0.0761040449142456, -0.11106190830469131, -0.0026728713419288397, 0.1204955205321312, -0.12914671003818512, -0.08550221472978592, -0.001056570908986032, -0.006576741114258766, 1.0012341737747192, -2.1181325912475586, -3.9548885822296143, 0.10719339549541473, 0.0, 0.0, 0.0, 0, 0, 0, 0, 0, 0, -2.1181325912475586, -3.9548885822296143, 0.10719339549541473
18075, -0.07626933604478836, -0.10889916121959686, -0.0028508466202765703, 0.03533575311303139, -0.1566777378320694, 0.030792325735092163, -0.002564299153164029, -0.00531065883114934, 1.000196933746338, -2.1205005645751953, -3.9599153995513916, 0.10739509016275406, 0.0, 0.0, 0.0, 0, 0, 0, 0, 0, 0, -2.1205005645751953, -3.9599153995513916, 0.10739509016275406
18085, -0.07620477676391602, -0.10900217294692993, -0.003927156794816256, 0.048958636820316315, 0.04876689612865448, 0.11376436054706573, -0.0021970043890178204, -0.0028402842581272125, 1.0000038146972656, -2.122868061065674, -3.9649465084075928, 0.10759738087654114, 0.0, 0.0, 0.0, 0, 0, 0, 0, 0, 0, -2.122868061065674, -3.9649465084075928, 0.10759738087654114
18095, -0.07647618651390076, -0.10968334972858429, -0.004734019748866558, -0.20148257911205292, 0.10633939504623413, -0.15660062432289124, -0.003311895066872239, -0.006435933988541365, 1.000058650970459, -2.1252357959747314, -3.969980239868164, 0.10779960453510284, 0.0, 0.0, 0.0, 0, 0, 0, 0, 0, 0, -2.1252357959747314, -3.969980239868164, 0.10779960453510284
18105, -0.07660683244466782, -0.11018058657646179, -0.00573663180693984, -0.030574122443795204, 0.19595836102962494, -0.15392734110355377, -0.0037316130474209785, -0.005916090216487646, 0.9987925291061401, -2.1276040077209473, -3.9750173091888428, 0.10800155997276306, 0.0, 0.0, 0.0, 0, 0, 0, 0, 0, 0, -2.1276040077209473, -3.9750173091888428, 0.10800155997276306
18115, -0.07675504684448242, -0.10778319090604782, -0.005715798586606979, -0.07151421159505844, -0.23979896306991577, -0.03442062810063362, -0.002574668498709798, -0.004494631662964821, 0.9989774823188782, -2.1299736499786377, -3.9800589084625244, 0.10820281505584717, 0.0, 0.0, 0.0, 0, 0, 0, 0, 0, 0, -2.1299736499786377, -3.9800589084625244, 0.10820281505584717
18125, -0.07702314853668213, -0.10781227797269821, -0.00639050267636776, -0.12698841094970703, 0.14036458730697632, -0.0618688240647316, -0.0022537836339324713, -0.0035058120265603065, 1.0031698942184448, -2.1323442459106445, -3.9851043224334717, 0.10840319842100143, 0.0, 0.0, 0.0, 0, 0, 0, 0, 0, 0, -2.1323442459106445, -3.9851043224334717, 0.10840319842100143
18135, -0.07686227560043335, -0.10648912936449051, -0.006227508652955294, -0.06550966203212738, -0.30234789848327637, -0.037796590477228165, -0.0020463087130337954, -0.003963122144341469, 1.0000255107879639, -2.1347153186798096, -3.990152359008789, 0.10860457271337509, 0.0, 0.0, 0.0, 0, 0, 0, 0, 0, 0, -2.1347153186798096, -3.990152359008789, 0.10860457271337509
18145, -0.07729686796665192, -0.10654009133577347, -0.00584615720435977, -0.04384037107229233, 0.012523203156888485, 0.07294224947690964, -0.0020398686174303293, -0.0025498978793621063, 1.000389575958252, -2.1370866298675537, -3.9952025413513184, 0.10880715399980545, 0.0, 0.0, 0.0, 0, 0, 0, 0, 0, 0, -2.1370866298675537, -3.9952025413513184, 0.10880715399980545
18155, -0.07818349450826645, -0.1069992333650589, -0.004475360736250877, -0.23805803060531616, 0.09488269686698914, 0.0033677504397928715, -0.003762422828003764, -0.0019362283637747169, 1.0014915466308594, -2.139458417892456, -4.0002546310424805, 0.10900991410017014, 0.0, 0.0, 0.0, 0, 0, 0, 0, 0, 0, -2.139458417892456, -4.0002546310424805, 0.10900991410017014
18165, -0.0782780647277832, -0.10690664499998093, -0.0039833057671785355, -0.039468370378017426, 0.06065350025892258, 0.013573724776506424, -0.00283250049687922, -0.004474223591387272, 1.0010404586791992, -2.141831398010254, -4.005307197570801, 0.10921362042427063, 0.0, 0.0, 0.0, 0, 0, 0, 0, 0, 0, -2.141831398010254, -4.005307197570801, 0.10921362042427063
18175, -0.07683611661195755, -0.10822390019893646, -0.003724741982296109, 0.12111644446849823, 0.28009259700775146, 0.0009110077517107129, -0.001376920030452311, -0.00414349464699626, 0.999740719795227, -2.1442055702209473, -4.010361671447754, 0.10941846668720245, 0.0, 0.0, 0.0, 0, 0, 0, 0, 0, 0, -2.1442055702209473, -4.010361671447754, 0.10941846668720245
18185, -0.0770060122013092, -0.10823093354701996, -0.003997426480054855, -0.09295196831226349, 0.03368423134088516, -0.06174956634640694, -0.002227113815024495, -0.0028383706230670214, 0.9998179078102112, -2.1465799808502197, -4.015419006347656, 0.10962362587451935, 0.0, 0.0, 0.0, 0, 0, 0, 0, 0, 0, -2.1465799808502197, -4.015419006347656, 0.10962362587451935
18195, -0.07721812278032303, -0.10558298230171204, -0.00390790868550539, 0.06935745477676392, -0.23431113362312317, 0.13298429548740387, -0.002631888957694173, -0.001795635442249477, 1.0015677213668823, -2.148954391479492, -4.020478248596191, 0.10982859134674072, 0.0, 0.0, 0.0, 0, 0, 0, 0, 0, 0, -2.148954391479492, -4.020478248596191, 0.10982859134674072
18205, -0.07695896178483963, -0.10457662492990494, -0.006190366577357054, -0.014626776799559593, -0.07762912660837173, -0.11422614753246307, -0.001984797418117523, -0.00262862048111856, 1.001731038093567, -2.151329278945923, -4.025538444519043, 0.11003410071134567, 0.0, 0.0, 0.0, 0, 0, 0, 0, 0, 0, -2.151329278945923, -4.025538444519043, 0.11003410071134567
18215, -0.07741697132587433, -0.10654301196336746, -0.006537849083542824, -0.07647359371185303, 0.26627370715141296, -0.06312262266874313, -0.003335809102281928, -0.003977908752858639, 1.000727653503418, -2.1537044048309326, -4.030599594116211, 0.11024104058742523, 0.0, 0.0, 0.0, 0, 0, 0, 0, 0, 0, -2.1537044048309326, -4.030599594116211, 0.11024104058742523
18225, -0.07633324712514877, -0.10606112331151962, -0.006147211417555809, 0.21698644757270813, 0.18247927725315094, 0.1267542541027069, -0.0037114990409463644, -0.004997558891773224, 0.9999735355377197, -2.156080484390259, -4.035662651062012, 0.11044919490814209, 0.0, 0.0, 0.0, 0, 0, 0, 0, 0, 0, -2.156080484390259, -4.035662651062012, 0.11044919490814209
18235, -0.07654382288455963, -0.10490377247333527, -0.007808014750480652, -0.018639087677001953, -0.08759800344705582, -0.3122554123401642, -0.0025783281307667494, -0.005539973732084036, 0.9981383085250854, -2.1584579944610596, -4.04072904586792, 0.11065754294395447, 0.0, 0.0, 0.0, 0, 0, 0, 0, 0, 0, -2.1584579944610596, -4.04072904586792, 0.11065754294395447
18245, -0.07661067694425583, -0.10531005263328552, -0.009059538133442402, 0.06457509100437164, -0.0411321297287941, -0.2251526117324829, -0.0013753067469224334, -0.0053321970626711845, 0.9995781183242798, -2.160836696624756, -4.045799255371094, 0.11086484789848328, 0.0, 0.0, 0.0, 0, 0, 0, 0, 0, 0, -2.160836696624756, -4.045799255371094, 0.11086484789848328
18255, -0.07617201656103134, -0.10572371631860733, -0.008170929737389088, 0.04759600758552551, 0.06109184771776199, 0.23791132867336273, -0.0007432521670125425, -0.002260552952066064, 1.0000566244125366, -2.163215160369873, -4.050873756408691, 0.11107128858566284, 0.0, 0.0, 0.0, 0, 0, 0, 0, 0, 0, -2.163215160369873, -4.050873756408691, 0.11107128858566284
18265, -0.07709182798862457, -0.10422024130821228, -0.008347248658537865, -0.019404320046305656, -0.0923113152384758, 0.012959147803485394, -0.0030215398874133825, -0.0031268184538930655, 0.9995369911193848, -2.165592908859253, -4.05595064163208, 0.1112777516245842, 0.0, 0.0, 0.0, 0, 0, 0, 0, 0, 0, -2.165592908859253, -4.05595064163208, 0.1112777516245842
18275, -0.07672356814146042, -0.10424264520406723, -0.007777735590934753, 0.22357289493083954, -0.0912109836935997, 0.24766093492507935, -0.004104967694729567, -0.005361282732337713, 1.0006638765335083, -2.167970895767212, -4.061028957366943, 0.11148425191640854, 0.0, 0.0, 0.0, 0, 0, 0, 0, 0, 0, -2.167970895767212, -4.061028957366943, 0.11148425191640854
18285, -0.07671606540679932, -0.10464206337928772, -0.00622920086607337, -0.02358858473598957, -0.0823361948132515, 0.2122451514005661, -0.0018797953380271792, -0.003828826593235135, 0.9986876249313354, -2.1703505516052246, -4.066109657287598, 0.11169099807739258, 0.0, 0.0, 0.0, 0, 0, 0, 0, 0, 0, -2.1703505516052246, -4.066109657287598, 0.11169099807739258
18295, -0.07631777971982956, -0.10486135631799698, -0.006802346091717482, 0.06363887339830399, 0.16450530290603638, -0.09652870148420334, -0.0027498749550431967, -0.00574365584179759, 0.9991814494132996, -2.172731399536133, -4.071193695068359, 0.11189739406108856, 0.0, 0.0, 0.0, 0, 0, 0, 0, 0, 0, -2.172731399536133, -4.071193695068359, 0.11189739406108856
18305, -0.0777183547616005, -0.10737208276987076, -0.007457946892827749, -0.17710065841674805, 0.26678261160850525, -0.04769529029726982, -0.004885062109678984, -0.005335959605872631, 1.0010709762573242, -2.1751129627227783, -4.0762810707092285, 0.1121029257774353, 0.0, 0.0, 0.0, 0, 0, 0, 0, 0, 0, -2.1751129627227783, -4.0762810707092285, 0.1121029257774353
18315, -0.07840937376022339, -0.10678696632385254, -0.008007170632481575, -0.05127011239528656, 0.10613595694303513, -0.21271543204784393, -0.0028235656209290028, -0.004780311603099108, 0.9998024106025696, -2.1774964332580566, -4.0813727378845215, 0.11230873316526413, 0.0, 0.0, 0.0, 0, 0, 0, 0, 0, 0, -2.1774964332580566, -4.0813727378845215, 0.11230873316526413
18325, -0.07747931033372879, -0.10881418734788895, -0.0079799210652709, 0.24313673377037048, 0.30861541628837585, -0.031634751707315445, -0.00403947476297617, -0.004326183814555407, 0.9995844960212708, -2.1798815727233887, -4.08646821975708, 0.11251498758792877, 0.0, 0.0, 0.0, 0, 0, 0, 0, 0, 0, -2.1798815727233887, -4.08646821975708, 0.11251498758792877
18335, -0.07744771987199783, -0.10950993746519089, -0.008528390899300575, -0.058633144944906235, 0.1448698490858078, -0.10582831501960754, -0.004917787853628397, -0.003353383857756853, 1.0003454685211182, -2.1822686195373535, -4.091566562652588, 0.1127210184931755, 0.0, 0.0, 0.0, 0, 0, 0, 0, 0, 0, -2.1822686195373535, -4.091566562652588, 0.1127210184931755
18345, -0.07740167528390884, -0.10845789313316345, -0.008816663175821304, 0.15486478805541992, -0.13293616473674774, -0.016615066677331924, -0.0009485018090344965, -0.00333376950584352, 1.000718355178833, -2.1846580505371094, -4.096667289733887, 0.11292713135480881, 0.0, 0.0, 0.0, 0, 0, 0, 0, 0, 0, -2.1846580505371094, -4.096667289733887, 0.11292713135480881
18355, -0.07747489959001541, -0.10708440840244293, -0.008786173537373543, -0.027207564562559128, -0.2295406311750412, 0.1017678827047348, 0.001652299426496029, -0.0029433651361614466, 0.9993506669998169, -2.1870479583740234, -4.101770401000977, 0.11313382536172867, 0.0, 0.0, 0.0, 0, 0, 0, 0, 0, 0, -2.1870479583740234, -4.101770401000977, 0.11313382536172867
18365, -0.07721423357725143, -0.10747925937175751, -0.010041317902505398, 0.13401342928409576, 0.12999188899993896, -0.12942971289157867, -0.0026200711727142334, -0.0038902494125068188, 0.9980650544166565, -2.1894359588623047, -4.106874942779541, 0.11334061622619629, 0.0, 0.0, 0.0, 0, 0, 0, 0, 0, 0, -2.1894359588623047, -4.106874942779541, 0.11334061622619629
18375, -0.0781639963388443, -0.10675924271345139, -0.010603363625705242, -0.10403671860694885, -0.10290144383907318, -0.17045462131500244, -0.0039976551197469234, -0.005016101058572531, 0.9988091588020325, -2.1918227672576904, -4.1119818687438965, 0.11354648321866989, 0.0, 0.0, 0.0, 0, 0, 0, 0, 0, 0, -2.1918227672576904, -4.1119818687438965, 0.11354648321866989
18385, -0.07881846278905869, -0.10592349618673325, -0.011554530821740627, 0.014069975353777409, 0.006903895176947117, -0.032386839389801025, -0.0043090046383440495, -0.004442776553332806, 0.9992412328720093, -2.194211006164551, -4.117091655731201, 0.11375122517347336, 0.0, 0.0, 0.0, 0, 0, 0, 0, 0, 0, -2.194211006164551, -4.117091655731201, 0.11375122517347336
18395, -0.07879260927438736, -0.10558698326349258, -0.01396457850933075, -0.06599590927362442, 0.07427456974983215, -0.17965266108512878, -0.0024885840248316526, -0.003750337054952979, 0.9989638328552246, -2.196601629257202, -4.122204303741455, 0.11395501345396042, 0.0, 0.0, 0.0, 0, 0, 0, 0, 0, 0, -2.196601629257202, -4.122204303741455, 0.11395501345396042
