timeTick, roll, pitch, yaw, gyroX, gyroY, gyroZ, accX, accY, accZ, stateX, stateY, stateZ, target_x, target_y, target_z, otX, otY, otZ, otRoll, otPitch, otYaw, kalX, kalY, kalZ
13975, 0.0670931413769722, -0.07149195671081543, 0.06454850733280182, 0, 0, 0, 0, 0, 0, 0, 0, 0, 0, 0, 0, 0, 0, 0, 0, 0, 0, 0, 0, 0
13985, 0.06644222140312195, -0.07276421785354614, 0.06359296292066574, 0.0859777182340622, -0.07229216396808624, 0.012163565494120121, -0.0007823018240742385, -0.004188643302768469, 1.00071382522583, -0.2263360470533371, -3.6620445251464844, 0.0443195141851902, 0.0, 0.0, 0.0, 0, 0, 0, 0, 0, 0, -0.2263360470533371, -3.6620445251464844, 0.0443195141851902
13995, 0.06611212342977524, -0.07401730865240097, 0.0654224082827568, 0.0630296990275383, 0.17088089883327484, 0.052726153284311295, -0.0018497442360967398, -0.003369851503521204, 1.0007516145706177, -0.22646456956863403, -3.6689038276672363, 0.04436453431844711, 0.0, 0.0, 0.0, 0, 0, 0, 0, 0, 0, -0.22646456956863403, -3.6689038276672363, 0.04436453431844711
14005, 0.06638714671134949, -0.07351186126470566, 0.06518782675266266, -0.1357845962047577, -0.11205203831195831, 0.03047712706029415, -0.001763728680089116, -0.005672896280884743, 0.999083936214447, -0.22659341990947723, -3.6757683753967285, 0.04441004619002342, 0.0, 0.0, 0.0, 0, 0, 0, 0, 0, 0, -0.22659341990947723, -3.6757683753967285, 0.04441004619002342
14015, 0.06625699996948242, -0.07292131334543228, 0.06539475172758102, -0.13982191681861877, 0.24615296721458435, -0.010129502043128014, 0.00039627397200092673, -0.005593585316091776, 1.001630187034607, -0.2267226129770279, -3.6826391220092773, 0.04445571452379227, 0.0, 0.0, 0.0, 0, 0, 0, 0, 0, 0, -0.2267226129770279, -3.6826391220092773, 0.04445571452379227
14025, 0.06598091870546341, -0.07381387054920197, 0.06589848548173904, 0.03923492506146431, -0.10190176218748093, 0.027498170733451843, 0.0016662926645949483, -0.004984498023986816, 1.0006498098373413, -0.22685036063194275, -3.68951678276062, 0.044502004981040955, 0.0, 0.0, 0.0, 0, 0, 0, 0, 0, 0, -0.22685036063194275, -3.68951678276062, 0.044502004981040955
14035, 0.06568983197212219, -0.07316423952579498, 0.06489669531583786, 0.18230128288269043, -0.22754007577896118, 0.06279149651527405, 9.48850647546351e-05, -0.004360211081802845, 1.0013426542282104, -0.226975679397583, -3.6964004039764404, 0.04454931616783142, 0.0, 0.0, 0.0, 0, 0, 0, 0, 0, 0, -0.226975679397583, -3.6964004039764404, 0.04454931616783142
14045, 0.06651042401790619, -0.07291704416275024, 0.0650327280163765, -0.032877665013074875, 0.3362858295440674, -0.058768048882484436, -0.00030087950290180743, -0.007009608205407858, 1.0013272762298584, -0.22709932923316956, -3.7032899856567383, 0.044597841799259186, 0.0, 0.0, 0.0, 0, 0, 0, 0, 0, 0, -0.22709932923316956, -3.7032899856567383, 0.044597841799259186
14055, 0.06573792546987534, -0.07292583584785461, 0.0642886683344841, 0.041101936250925064, -0.13893428444862366, -0.012614263221621513, -0.0008745919330976903, -0.006361974403262138, 1.0006598234176636, -0.22722192108631134, -3.7101869583129883, 0.04464775696396828, 0.0, 0.0, 0.0, 0, 0, 0, 0, 0, 0, -0.22722192108631134, -3.7101869583129883, 0.04464775696396828
14065, 0.06594228744506836, -0.07304374873638153, 0.06431683897972107, 0.08315609395503998, 0.19616183638572693, -0.005838172044605017, -0.0017575514502823353, -0.007024796213954687, 0.9972541332244873, -0.22734388709068298, -3.7170917987823486, 0.0446980856359005, 0.0, 0.0, 0.0, 0, 0, 0, 0, 0, 0, -0.22734388709068298, -3.7170917987823486, 0.0446980856359005
14075, 0.06564894318580627, -0.07437761127948761, 0.06272250413894653, -0.09979027509689331, -0.04800914600491524, -0.30537205934524536, -0.002709104912355542, -0.007444802206009626, 0.998647153377533, -0.22746609151363373, -3.7240042686462402, 0.044746898114681244, 0.0, 0.0, 0.0, 0, 0, 0, 0, 0, 0, -0.22746609151363373, -3.7240042686462402, 0.044746898114681244
14085, 0.06519398093223572, -0.07296301424503326, 0.06184592470526695, 0.08859036862850189, -0.06816013902425766, -0.1339854896068573, -0.0015749110607430339, -0.006070077884942293, 0.9988915920257568, -0.22758923470973969, -3.730924606323242, 0.044793881475925446, 0.0, 0.0, 0.0, 0, 0, 0, 0, 0, 0, -0.22758923470973969, -3.730924606323242, 0.044793881475925446
14095, 0.06486473232507706, -0.07290453463792801, 0.061541903764009476, -0.010470799170434475, 0.04044027999043465, 0.12472201138734818, -0.0020626788027584553, -0.0060692718252539635, 0.9986964464187622, -0.2277129888534546, -3.7378525733947754, 0.04483960196375847, 0.0, 0.0, 0.0, 0, 0, 0, 0, 0, 0, -0.2277129888534546, -3.7378525733947754, 0.04483960196375847
14105, 0.06549090147018433, -0.07289951294660568, 0.06278939545154572, 0.000132095578010194, 0.14753516018390656, -0.08361371606588364, -0.0026467253919690847, -0.007108320016413927, 1.0005260705947876, -0.2278374433517456, -3.7447876930236816, 0.04488420486450195, 0.0, 0.0, 0.0, 0, 0, 0, 0, 0, 0, -0.2278374433517456, -3.7447876930236816, 0.04488420486450195
14115, 0.06543325632810593, -0.07383407652378082, 0.061693839728832245, 0.09669020026922226, -0.25321340560913086, 0.22691009938716888, -0.001958164619281888, -0.004767289850860834, 0.9996997117996216, -0.22796285152435303, -3.75173020362854, 0.044928744435310364, 0.0, 0.0, 0.0, 0, 0, 0, 0, 0, 0, -0.22796285152435303, -3.75173020362854, 0.044928744435310364
14125, 0.06465145945549011, -0.07293485105037689, 0.06133927032351494, 0.04416697472333908, -0.12053456157445908, -0.10302538424730301, 0.0009876596741378307, -0.005135116167366505, 0.9999059438705444, -0.2280886322259903, -3.7586793899536133, 0.044973425567150116, 0.0, 0.0, 0.0, 0, 0, 0, 0, 0, 0, -0.2280886322259903, -3.7586793899536133, 0.044973425567150116
14135, 0.06338780373334885, -0.07152432948350906, 0.06003215163946152, -0.1602948158979416, -0.09427241235971451, -0.026559634134173393, -0.00010612487676553428, -0.005325951147824526, 0.9993945956230164, -0.22821304202079773, -3.765634536743164, 0.04501807317137718, 0.0, 0.0, 0.0, 0, 0, 0, 0, 0, 0, -0.22821304202079773, -3.765634536743164, 0.04501807317137718
14145, 0.06302261352539062, -0.0735158622264862, 0.060382064431905746, -0.04131295159459114, 0.05220045894384384, 0.12826821208000183, -0.00040748261380940676, -0.0059767188504338264, 1.0005388259887695, -0.2283354103565216, -3.7725958824157715, 0.04506267234683037, 0.0, 0.0, 0.0, 0, 0, 0, 0, 0, 0, -0.2283354103565216, -3.7725958824157715, 0.04506267234683037
14155, 0.06246201694011688, -0.07429870963096619, 0.06043010205030441, -0.10161891579627991, 0.10679994523525238, 0.14416725933551788, -0.0006898051942698658, -0.006875885184854269, 1.0003803968429565, -0.2284570336341858, -3.779564142227173, 0.04510734975337982, 0.0, 0.0, 0.0, 0, 0, 0, 0, 0, 0, -0.2284570336341858, -3.779564142227173, 0.04510734975337982
14165, 0.06207204982638359, -0.07539458572864532, 0.060692302882671356, -0.038027241826057434, 0.02667626552283764, 0.27997004985809326, 0.00016159587539732456, -0.00506493728607893, 1.0015863180160522, -0.22857791185379028, -3.7865400314331055, 0.04515295475721359, 0.0, 0.0, 0.0, 0, 0, 0, 0, 0, 0, -0.22857791185379028, -3.7865400314331055, 0.04515295475721359
14175, 0.0615478977560997, -0.07577276974916458, 0.06124263256788254, -0.03137380629777908, 0.03178470954298973, -0.25303396582603455, -0.001711307093501091, -0.0032482342794537544, 1.0020091533660889, -0.22869795560836792, -3.793522357940674, 0.04520013555884361, 0.0, 0.0, 0.0, 0, 0, 0, 0, 0, 0, -0.22869795560836792, -3.793522357940674, 0.04520013555884361
14185, 0.06200723350048065, -0.07561738789081573, 0.061692651361227036, 0.09500908851623535, -0.16391006112098694, -0.0691683366894722, -0.001518509816378355, -0.0038669933564960957, 0.9986982941627502, -0.22881782054901123, -3.8005096912384033, 0.04524848610162735, 0.0, 0.0, 0.0, 0, 0, 0, 0, 0, 0, -0.22881782054901123, -3.8005096912384033, 0.04524848610162735
14195, 0.062161996960639954, -0.07557719945907593, 0.06108711287379265, -0.21233955025672913, 0.14806336164474487, 0.24323609471321106, -0.0004898579209111631, -0.006724258419126272, 1.002345323562622, -0.22893768548965454, -3.807502031326294, 0.04529707506299019, 0.0, 0.0, 0.0, 0, 0, 0, 0, 0, 0, -0.22893768548965454, -3.807502031326294, 0.04529707506299019
14205, 0.06209748983383179, -0.0776190236210823, 0.061587270349264145, 0.022989630699157715, 0.10983536392450333, 0.1851382553577423, -0.0009947667131200433, -0.005811506416648626, 1.001058578491211, -0.22905729711055756, -3.8145010471343994, 0.045346710830926895, 0.0, 0.0, 0.0, 0, 0, 0, 0, 0, 0, -0.22905729711055756, -3.8145010471343994, 0.045346710830926895
14215, 0.06225685030221939, -0.07734609395265579, 0.06252830475568771, -0.07645059376955032, -0.07054854929447174, 0.05176710709929466, -0.002422336721792817, -0.005512197967618704, 0.9996019601821899, -0.22917644679546356, -3.821507215499878, 0.045397862792015076, 0.0, 0.0, 0.0, 0, 0, 0, 0, 0, 0, -0.22917644679546356, -3.821507215499878, 0.045397862792015076
14225, 0.062093187123537064, -0.07790998369455338, 0.06336620450019836, 0.004042306449264288, -0.09062287956476212, -0.006570124067366123, -0.001390584628097713, -0.006510770879685879, 0.9979287385940552, -0.22929583489894867, -3.828519821166992, 0.045449208468198776, 0.0, 0.0, 0.0, 0, 0, 0, 0, 0, 0, -0.22929583489894867, -3.828519821166992, 0.045449208468198776
14235, 0.06400264799594879, -0.07684139162302017, 0.06402792036533356, 0.05926546826958656, -0.12773987650871277, -0.029879625886678696, -0.001849282649345696, -0.006876362953335047, 0.9990028142929077, -0.22941558063030243, -3.8355395793914795, 0.045499272644519806, 0.0, 0.0, 0.0, 0, 0, 0, 0, 0, 0, -0.22941558063030243, -3.8355395793914795, 0.045499272644519806
14245, 0.0639176219701767, -0.07572324573993683, 0.06330743432044983, 0.06823954731225967, -0.07400159537792206, -0.23255541920661926, -0.0006662603700533509, -0.0058888099156320095, 1.0015649795532227, -0.22953520715236664, -3.842566967010498, 0.045548371970653534, 0.0, 0.0, 0.0, 0, 0, 0, 0, 0, 0, -0.22953520715236664, -3.842566967010498, 0.045548371970653534
14255, 0.06318545341491699, -0.07531321048736572, 0.06338021904230118, -0.07628335803747177, -0.4251546561717987, 0.1540219485759735, -0.00022064756194595248, -0.006337863393127918, 1.0000591278076172, -0.22965475916862488, -3.8496015071868896, 0.045597806572914124, 0.0, 0.0, 0.0, 0, 0, 0, 0, 0, 0, -0.22965475916862488, -3.8496015071868896, 0.045597806572914124
14265, 0.06304065883159637, -0.07240594178438187, 0.0641622543334961, -0.020258957520127296, 0.0017366086831316352, 0.13258901238441467, 0.0018649949925020337, -0.007199846673756838, 1.0009245872497559, -0.22977325320243835, -3.8566431999206543, 0.04564804583787918, 0.0, 0.0, 0.0, 0, 0, 0, 0, 0, 0, -0.22977325320243835, -3.8566431999206543, 0.04564804583787918
14275, 0.06365397572517395, -0.07132148742675781, 0.06361549347639084, -0.003463139757514, 0.047632846981287, 0.16070155799388885, -0.0026588498149067163, -0.0064832549542188644, 0.9993306398391724, -0.22988976538181305, -3.86369252204895, 0.045698899775743484, 0.0, 0.0, 0.0, 0, 0, 0, 0, 0, 0, -0.22988976538181305, -3.86369252204895, 0.045698899775743484
14285, 0.06352783739566803, -0.07141363620758057, 0.06486515700817108, -0.002683438127860427, 0.12698981165885925, -0.15524956583976746, -0.002313872566446662, -0.005019380711019039, 1.0004023313522339, -0.23000594973564148, -3.8707494735717773, 0.04574970528483391, 0.0, 0.0, 0.0, 0, 0, 0, 0, 0, 0, -0.23000594973564148, -3.8707494735717773, 0.04574970528483391
14295, 0.06344955414533615, -0.07196861505508423, 0.06399509310722351, -0.019529584795236588, 0.21487177908420563, 0.1684494912624359, -0.0007025033119134605, -0.005509097129106522, 0.9995430707931519, -0.2301231175661087, -3.8778128623962402, 0.04580048844218254, 0.0, 0.0, 0.0, 0, 0, 0, 0, 0, 0, -0.2301231175661087, -3.8778128623962402, 0.04580048844218254
14305, 0.06329630315303802, -0.07238698750734329, 0.06474736332893372, 0.12649962306022644, 0.36030223965644836, 0.1914253830909729, -0.00019919523037970066, -0.00626690499484539, 1.000289797782898, -0.23024019598960876, -3.884882688522339, 0.045851197093725204, 0.0, 0.0, 0.0, 0, 0, 0, 0, 0, 0, -0.23024019598960876, -3.884882688522339, 0.045851197093725204
14315, 0.06267406046390533, -0.07409878820180893, 0.0652831569314003, -0.10125146806240082, 0.08873473852872849, -0.3252468705177307, -0.001284605823457241, -0.006027608644217253, 1.0007503032684326, -0.23036839067935944, -3.8926680088043213, 0.04590710997581482, 0.0, 0.0, 0.0, 0, 0, 0, 0, 0, 0, -0.23036839067935944, -3.8926680088043213, 0.04590710997581482
14325, 0.06303179264068604, -0.07408570498228073, 0.06448069214820862, -0.07980559766292572, -0.015804272145032883, 0.10170043259859085, -0.00032006698893383145, -0.005905406549572945, 1.0017032623291016, -0.23048491775989532, -3.8997530937194824, 0.045958492904901505, 0.0, 0.0, 0.0, 0, 0, 0, 0, 0, 0, -0.23048491775989532, -3.8997530937194824, 0.045958492904901505
14335, 0.06217333301901817, -0.07480072975158691, 0.06360319256782532, 0.12645845115184784, 0.18426449596881866, -0.12516161799430847, 0.0002637499419506639, -0.005794076714664698, 1.0017828941345215, -0.23060081899166107, -3.9068453311920166, 0.04601108655333519, 0.0, 0.0, 0.0, 0, 0, 0, 0, 0, 0, -0.23060081899166107, -3.9068453311920166, 0.04601108655333519
14345, 0.062343474477529526, -0.07711372524499893, 0.064039446413517, -0.06353481858968735, 0.23059017956256866, 0.0915338546037674, -0.0007943313685245812, -0.0029600299894809723, 1.0036410093307495, -0.23071527481079102, -3.9139440059661865, 0.04606596380472183, 0.0, 0.0, 0.0, 0, 0, 0, 0, 0, 0, -0.23071527481079102, -3.9139440059661865, 0.04606596380472183
14355, 0.06240710988640785, -0.07791575789451599, 0.06379331648349762, 0.09638457745313644, 0.1822446584701538, -0.11284255236387253, -0.0016315157990902662, -0.0062942043878138065, 1.000836968421936, -0.2308291643857956, -3.9210479259490967, 0.046123385429382324, 0.0, 0.0, 0.0, 0, 0, 0, 0, 0, 0, -0.2308291643857956, -3.9210479259490967, 0.046123385429382324
14365, 0.06299760937690735, -0.07725641876459122, 0.06370163708925247, 0.11521374434232712, -0.35070860385894775, -0.007438561413437128, -0.0023131496272981167, -0.006748294923454523, 0.9995050430297852, -0.23094330728054047, -3.9281578063964844, 0.046182118356227875, 0.0, 0.0, 0.0, 0, 0, 0, 0, 0, 0, -0.23094330728054047, -3.9281578063964844, 0.046182118356227875
14375, 0.06288699060678482, -0.07689807564020157, 0.06329309940338135, -0.037109870463609695, 0.17341788113117218, 0.19368161261081696, 0.0002399681106908247, -0.008715907111763954, 1.0017883777618408, -0.23105758428573608, -3.9352757930755615, 0.04624123126268387, 0.0, 0.0, 0.0, 0, 0, 0, 0, 0, 0, -0.23105758428573608, -3.9352757930755615, 0.04624123126268387
14385, 0.06305018812417984, -0.07769429683685303, 0.06476230919361115, -0.0989074781537056, -0.13591307401657104, 0.04016371816396713, 0.0015449809143319726, -0.006008455995470285, 1.001259207725525, -0.23117083311080933, -3.9424021244049072, 0.0463017001748085, 0.0, 0.0, 0.0, 0, 0, 0, 0, 0, 0, -0.23117083311080933, -3.9424021244049072, 0.0463017001748085
14395, 0.06233951821923256, -0.07900890707969666, 0.0643487200140953, -0.048716600984334946, 0.2662571668624878, -0.09950374811887741, 0.00019693341164384037, -0.006016628351062536, 1.0000839233398438, -0.2312818467617035, -3.949536085128784, 0.046363431960344315, 0.0, 0.0, 0.0, 0, 0, 0, 0, 0, 0, -0.2312818467617035, -3.949536085128784, 0.046363431960344315
14405, 0.06277302652597427, -0.07857239246368408, 0.0655422955751419, 0.2035471498966217, 0.034987907856702805, 0.2820702791213989, -0.000999314128421247, -0.005282254423946142, 0.9992191791534424, -0.23139126598834991, -3.956676721572876, 0.04642526060342789, 0.0, 0.0, 0.0, 0, 0, 0, 0, 0, 0, -0.23139126598834991, -3.956676721572876, 0.04642526060342789
14415, 0.062465231865644455, -0.07806072384119034, 0.06575649976730347, 0.17540349066257477, -0.005418908782303333, -0.04628240317106247, 0.0011185138719156384, -0.006598157342523336, 0.9994716048240662, -0.23149974644184113, -3.9638240337371826, 0.04648665711283684, 0.0, 0.0, 0.0, 0, 0, 0, 0, 0, 0, -0.23149974644184113, -3.9638240337371826, 0.04648665711283684
14425, 0.06387483328580856, -0.07820022851228714, 0.06573231518268585, -0.005262376740574837, -0.20042645931243896, 0.050432078540325165, -0.00038514193147420883, -0.006653136108070612, 1.0001591444015503, -0.23160682618618011, -3.9709787368774414, 0.04654758796095848, 0.0, 0.0, 0.0, 0, 0, 0, 0, 0, 0, -0.23160682618618011, -3.9709787368774414, 0.04654758796095848
14435, 0.06342432647943497, -0.0771963968873024, 0.06489507108926773, 0.09808357059955597, 0.10333175212144852, 0.0664580911397934, -0.00016471961862407625, -0.00557498587295413, 1.0003793239593506, -0.23171262443065643, -3.9781408309936523, 0.046608321368694305, 0.0, 0.0, 0.0, 0, 0, 0, 0, 0, 0, -0.23171262443065643, -3.9781408309936523, 0.046608321368694305
14445, 0.06263401359319687, -0.0785648301243782, 0.06413140147924423, -0.22536629438400269, 0.2232876569032669, -0.21475547552108765, -0.001738660503178835, -0.0056175668723881245, 1.0017832517623901, -0.23181793093681335, -3.985309362411499, 0.04666972905397415, 0.0, 0.0, 0.0, 0, 0, 0, 0, 0, 0, -0.23181793093681335, -3.985309362411499, 0.04666972905397415
14455, 0.06234017387032509, -0.07789147645235062, 0.06471714377403259, -0.031538307666778564, -0.11165864020586014, -0.02879432588815689, 0.0006102679180912673, -0.0038640571292489767, 1.002171277999878, -0.2319231480360031, -3.9924840927124023, 0.0467328205704689, 0.0, 0.0, 0.0, 0, 0, 0, 0, 0, 0, -0.2319231480360031, -3.9924840927124023, 0.0467328205704689
14465, 0.06245928257703781, -0.0791369378566742, 0.06582999974489212, 0.07736676931381226, 0.1587655395269394, 0.226339653134346, -0.0009549678070470691, -0.0033501877915114164, 1.00197434425354, -0.23202763497829437, -3.999664068222046, 0.04679795354604721, 0.0, 0.0, 0.0, 0, 0, 0, 0, 0, 0, -0.23202763497829437, -3.999664068222046, 0.04679795354604721
14475, 0.06344184279441833, -0.07750978320837021, 0.0648321658372879, 0.22516129910945892, -0.114338718354702, 0.169014111161232, -0.0019114048918709159, -0.004949731286615133, 0.9979158043861389, -0.2321312576532364, -4.0068488121032715, 0.04686415195465088, 0.0, 0.0, 0.0, 0, 0, 0, 0, 0, 0, -0.2321312576532364, -4.0068488121032715, 0.04686415195465088
14485, 0.06410790234804153, -0.07719944417476654, 0.06489934772253036, -0.09252892434597015, -0.32247868180274963, -0.0908040702342987, -0.0012977677397429943, -0.005750223062932491, 0.9988046884536743, -0.23223482072353363, -4.014039039611816, 0.046929482370615005, 0.0, 0.0, 0.0, 0, 0, 0, 0, 0, 0, -0.23223482072353363, -4.014039039611816, 0.046929482370615005
14495, 0.06315700709819794, -0.07750461250543594, 0.0649542510509491, 0.0703369602560997, -0.04207921400666237, 0.0004810069513041526, 0.0008502612472511828, -0.00749570457264781, 0.9993863105773926, -0.23233778774738312, -4.021236419677734, 0.046993330121040344, 0.0, 0.0, 0.0, 0, 0, 0, 0, 0, 0, -0.23233778774738312, -4.021236419677734, 0.046993330121040344
14505, 0.06424252688884735, -0.07588844001293182, 0.06452328711748123, -0.05696051940321922, 0.1059519425034523, -0.028153495863080025, -0.001629229518584907, -0.006654603872448206, 0.9995129108428955, -0.2324398010969162, -4.028441905975342, 0.047056324779987335, 0.0, 0.0, 0.0, 0, 0, 0, 0, 0, 0, -0.2324398010969162, -4.028441905975342, 0.047056324779987335
14515, 0.06363345682621002, -0.07538436353206635, 0.0646001324057579, -0.029245687648653984, 0.11343394219875336, -0.046371232718229294, -0.0034475415013730526, -0.006886637303978205, 0.9984150528907776, -0.23254191875457764, -4.0356550216674805, 0.04711846634745598, 0.0, 0.0, 0.0, 0, 0, 0, 0, 0, 0, -0.23254191875457764, -4.0356550216674805, 0.04711846634745598
14525, 0.06404677778482437, -0.07588852196931839, 0.06377315521240234, -0.006245265249162912, 0.219075545668602, 0.08983267843723297, -0.001428846619091928, -0.00760395172983408, 1.0000026226043701, -0.23264539241790771, -4.042876243591309, 0.047179609537124634, 0.0, 0.0, 0.0, 0, 0, 0, 0, 0, 0, -0.23264539241790771, -4.042876243591309, 0.047179609537124634
14535, 0.06461605429649353, -0.07621639221906662, 0.06435476243495941, 0.07252947986125946, -0.0629635602235794, 0.014545419253408909, -0.0007783306646160781, -0.0069596972316503525, 1.0000133514404297, -0.23274961113929749, -4.050105571746826, 0.047240301966667175, 0.0, 0.0, 0.0, 0, 0, 0, 0, 0, 0, -0.23274961113929749, -4.050105571746826, 0.047240301966667175
14545, 0.0642494261264801, -0.0757402628660202, 0.06355002522468567, 0.02515488862991333, -0.03515508770942688, -0.13884322345256805, -0.0008554700762033463, -0.008691353723406792, 1.002116322517395, -0.23285336792469025, -4.057343482971191, 0.04730159044265747, 0.0, 0.0, 0.0, 0, 0, 0, 0, 0, 0, -0.23285336792469025, -4.057343482971191, 0.04730159044265747
14555, 0.06464167684316635, -0.07500248402357101, 0.06302031129598618, -0.015098880976438522, -0.04720620438456535, 0.20054493844509125, -0.0006984579958952963, -0.00479962769895792, 1.001179575920105, -0.23295652866363525, -4.064589977264404, 0.047364551573991776, 0.0, 0.0, 0.0, 0, 0, 0, 0, 0, 0, -0.23295652866363525, -4.064589977264404, 0.047364551573991776
14565, 0.06430838257074356, -0.07598774880170822, 0.0626254603266716, 0.10595131665468216, 0.24365660548210144, -0.036078862845897675, -0.0013809057418256998, -0.0038315695710480213, 0.9970917701721191, -0.23305948078632355, -4.071843147277832, 0.04742826148867607, 0.0, 0.0, 0.0, 0, 0, 0, 0, 0, 0, -0.23305948078632355, -4.071843147277832, 0.04742826148867607
14575, 0.06460469216108322, -0.07572890818119049, 0.06302350759506226, -0.03940192237496376, -0.012083013541996479, 0.09242969751358032, -7.40153482183814e-05, -0.005230380222201347, 0.9982893466949463, -0.23316220939159393, -4.0791015625, 0.047490306198596954, 0.0, 0.0, 0.0, 0, 0, 0, 0, 0, 0, -0.23316220939159393, -4.0791015625, 0.047490306198596954
14585, 0.06459671258926392, -0.07561984658241272, 0.06203971803188324, -0.008376258425414562, 0.11535538733005524, -0.12251219898462296, 5.8125780924456194e-05, -0.004094271920621395, 1.000346302986145, -0.2332642525434494, -4.086365222930908, 0.04755055904388428, 0.0, 0.0, 0.0, 0, 0, 0, 0, 0, 0, -0.2332642525434494, -4.086365222930908, 0.04755055904388428
14595, 0.0646493136882782, -0.07561273872852325, 0.0625484362244606, -0.07998807728290558, 0.138303741812706, 0.12425127625465393, 0.001231811591424048, -0.006297537125647068, 1.0011166334152222, -0.23336492478847504, -4.093635082244873, 0.04761083796620369, 0.0, 0.0, 0.0, 0, 0, 0, 0, 0, 0, -0.23336492478847504, -4.093635082244873, 0.04761083796620369
14605, 0.06388577818870544, -0.07591830939054489, 0.061589114367961884, 0.2129065841436386, -0.17502819001674652, 0.147588849067688, -0.002045570407062769, -0.0044499835930764675, 0.9994769096374512, -0.23346398770809174, -4.100911617279053, 0.04767198488116264, 0.0, 0.0, 0.0, 0, 0, 0, 0, 0, 0, -0.23346398770809174, -4.100911617279053, 0.04767198488116264
14615, 0.06513813138008118, -0.0758582353591919, 0.06307768076658249, 0.1842065453529358, 0.18813030421733856, -0.01977521926164627, -0.001229959772899747, -0.008443951606750488, 1.000267744064331, -0.23356248438358307, -4.108194351196289, 0.04773344472050667, 0.0, 0.0, 0.0, 0, 0, 0, 0, 0, 0, -0.23356248438358307, -4.108194351196289, 0.04773344472050667
14625, 0.06534890085458755, -0.0745435282588005, 0.06290517002344131, -0.0346270315349102, -0.2430935800075531, -0.1760333627462387, -0.0025526497047394514, -0.006817181129008532, 1.001029133796692, -0.23366154730319977, -4.115485668182373, 0.04779493808746338, 0.0, 0.0, 0.0, 0, 0, 0, 0, 0, 0, -0.23366154730319977, -4.115485668182373, 0.04779493808746338
14635, 0.0662129670381546, -0.07590819150209427, 0.06339477747678757, 0.09656721353530884, 0.2961808443069458, -0.09363210201263428, -0.002034578938037157, -0.005897001828998327, 0.9999046325683594, -0.23376168310642242, -4.122784614562988, 0.04785662889480591, 0.0, 0.0, 0.0, 0, 0, 0, 0, 0, 0, -0.23376168310642242, -4.122784614562988, 0.04785662889480591
14645, 0.06476150453090668, -0.07567388564348221, 0.0628412738442421, 0.005786510184407234, 0.20249538123607635, 0.259380042552948, -0.0020576040260493755, -0.006097604986280203, 1.000031590461731, -0.23386253416538239, -4.130090713500977, 0.04791848361492157, 0.0, 0.0, 0.0, 0, 0, 0, 0, 0, 0, -0.23386253416538239, -4.130090713500977, 0.04791848361492157
14655, 0.06485473364591599, -0.07659575343132019, 0.06334253400564194, 0.04724840447306633, 0.05852731689810753, 0.16646169126033783, -0.002393308561295271, -0.006976285949349403, 0.997356116771698, -0.2339640110731125, -4.137403964996338, 0.04797995090484619, 0.0, 0.0, 0.0, 0, 0, 0, 0, 0, 0, -0.2339640110731125, -4.137403964996338, 0.04797995090484619
14665, 0.06591250002384186, -0.0758812204003334, 0.06261956691741943, 0.236349418759346, 0.03514794632792473, -0.027532244101166725, -0.0015491103986278176, -0.00550989992916584, 0.9987962245941162, -0.2340664267539978, -4.1447248458862305, 0.048039838671684265, 0.0, 0.0, 0.0, 0, 0, 0, 0, 0, 0, -0.2340664267539978, -4.1447248458862305, 0.048039838671684265
14675, 0.06652642041444778, -0.07533440738916397, 0.06370197981595993, -0.10576827824115753, 0.22367702424526215, 0.03837484121322632, -0.0017235829727724195, -0.005143350921571255, 0.999161958694458, -0.234169602394104, -4.152052402496338, 0.048098135739564896, 0.0, 0.0, 0.0, 0, 0, 0, 0, 0, 0, -0.234169602394104, -4.152052402496338, 0.048098135739564896
14685, 0.06632839888334274, -0.0770038366317749, 0.06468802690505981, -0.03630265220999718, 0.06337154656648636, 0.20466618239879608, -0.0016009507235139608, -0.0062677301466465, 1.0000758171081543, -0.23427331447601318, -4.159386157989502, 0.04815588518977165, 0.0, 0.0, 0.0, 0, 0, 0, 0, 0, 0, -0.23427331447601318, -4.159386157989502, 0.04815588518977165
14695, 0.06666981428861618, -0.07837241888046265, 0.0649331584572792, -0.007485588546842337, -0.06677617132663727, -0.012897131033241749, -0.0020053572952747345, -0.005208063870668411, 1.0003361701965332, -0.2343774437904358, -4.166726589202881, 0.04821394383907318, 0.0, 0.0, 0.0, 0, 0, 0, 0, 0, 0, -0.2343774437904358, -4.166726589202881, 0.04821394383907318
14705, 0.06690899282693863, -0.0767192542552948, 0.06428959965705872, 0.015378902666270733, -0.14926335215568542, -0.0758509635925293, -0.00039748084964230657, -0.0055279480293393135, 0.9979817271232605, -0.23448169231414795, -4.174073696136475, 0.048271965235471725, 0.0, 0.0, 0.0, 0, 0, 0, 0, 0, 0, -0.23448169231414795, -4.174073696136475, 0.048271965235471725
14715, 0.06794667989015579, -0.07807721197605133, 0.06436105072498322, 0.03373875468969345, -0.24278448522090912, 0.05898887664079666, -0.0008052812190726399, -0.005207519978284836, 0.9989778995513916, -0.23458556830883026, -4.181427001953125, 0.04832887277007103, 0.0, 0.0, 0.0, 0, 0, 0, 0, 0, 0, -0.23458556830883026, -4.181427001953125, 0.04832887277007103
14725, 0.06728571653366089, -0.07767395675182343, 0.06436921656131744, 0.006685386411845684, 0.38320857286453247, 0.12738467752933502, -0.0026125204749405384, -0.007286790758371353, 1.0009281635284424, -0.23468932509422302, -4.18878698348999, 0.048384666442871094, 0.0, 0.0, 0.0, 0, 0, 0, 0, 0, 0, -0.23468932509422302, -4.18878698348999, 0.048384666442871094
14735, 0.06741362065076828, -0.08052415400743484, 0.06410461664199829, 0.09462719410657883, 0.08337633311748505, -0.17904065549373627, -0.0015571149997413158, -0.00801464170217514, 1.0002490282058716, -0.23479360342025757, -4.196155071258545, 0.048440780490636826, 0.0, 0.0, 0.0, 0, 0, 0, 0, 0, 0, -0.23479360342025757, -4.196155071258545, 0.048440780490636826
14745, 0.06783060729503632, -0.08190678060054779, 0.06479457020759583, -0.01940542832016945, 0.2064683437347412, 0.03270488604903221, -0.00018300165538676083, -0.005431343335658312, 0.9993978142738342, -0.23489812016487122, -4.203530788421631, 0.04849759116768837, 0.0, 0.0, 0.0, 0, 0, 0, 0, 0, 0, -0.23489812016487122, -4.203530788421631, 0.04849759116768837
14755, 0.0672602429986, -0.0837368369102478, 0.0658571645617485, -0.06054775044322014, 0.1578715592622757, 0.003955451771616936, -0.0006642602966167033, -0.00617732759565115, 0.9991336464881897, -0.23500171303749084, -4.210914134979248, 0.04855406656861305, 0.0, 0.0, 0.0, 0, 0, 0, 0, 0, 0, -0.23500171303749084, -4.210914134979248, 0.04855406656861305
14765, 0.0672566145658493, -0.08157794922590256, 0.06586068868637085, 0.014024145901203156, -0.3298177421092987, -0.15797139704227448, -0.002641618950292468, -0.0068322899751365185, 0.9994993805885315, -0.2351044863462448, -4.218304634094238, 0.048609718680381775, 0.0, 0.0, 0.0, 0, 0, 0, 0, 0, 0, -0.2351044863462448, -4.218304634094238, 0.048609718680381775
14775, 0.06811068207025528, -0.0810890793800354, 0.06524214148521423, 0.13306671380996704, 0.17311328649520874, 0.02369658090174198, -0.002646293956786394, -0.007964782416820526, 1.0005375146865845, -0.2352079451084137, -4.225703239440918, 0.04866480082273483, 0.0, 0.0, 0.0, 0, 0, 0, 0, 0, 0, -0.2352079451084137, -4.225703239440918, 0.04866480082273483
14785, 0.06915171444416046, -0.08156558871269226, 0.06627123057842255, -0.04735540226101875, 0.08978777378797531, -0.049088772386312485, -8.883030204742681e-07, -0.007926201447844505, 1.000998854637146, -0.2353120893239975, -4.2331109046936035, 0.04872003570199013, 0.0, 0.0, 0.0, 0, 0, 0, 0, 0, 0, -0.2353120893239975, -4.2331109046936035, 0.04872003570199013
14795, 0.06928005069494247, -0.08179934322834015, 0.06619931012392044, -0.0025088037364184856, 0.00569378724321723, 0.003760888474062085, -0.002462545642629266, -0.007504958659410477, 1.0011333227157593, -0.23541608452796936, -4.240527153015137, 0.04877621680498123, 0.0, 0.0, 0.0, 0, 0, 0, 0, 0, 0, -0.23541608452796936, -4.240527153015137, 0.04877621680498123
14805, 0.06842822581529617, -0.07980339974164963, 0.06762998551130295, -0.03895416855812073, -0.10878296196460724, 0.02794814296066761, -0.0021619335748255253, -0.007615276146680117, 0.9996809363365173, -0.23552022874355316, -4.247951984405518, 0.04883331060409546, 0.0, 0.0, 0.0, 0, 0, 0, 0, 0, 0, -0.23552022874355316, -4.247951984405518, 0.04883331060409546
14815, 0.06806808710098267, -0.0810999944806099, 0.06769619882106781, -0.05716382712125778, 0.2532907724380493, -0.09887424856424332, 1.6929661796893924e-05, -0.0070893289521336555, 1.0004979372024536, -0.23562470078468323, -4.255385875701904, 0.04889080300927162, 0.0, 0.0, 0.0, 0, 0, 0, 0, 0, 0, -0.23562470078468323, -4.255385875701904, 0.04889080300927162
14825, 0.06885544955730438, -0.08279436826705933, 0.06815427541732788, 0.10401271283626556, -0.01630781590938568, 0.0135145653039217, 0.0002892472257371992, -0.004329472780227661, 1.0003995895385742, -0.23572832345962524, -4.262827396392822, 0.04894855618476868, 0.0, 0.0, 0.0, 0, 0, 0, 0, 0, 0, -0.23572832345962524, -4.262827396392822, 0.04894855618476868
14835, 0.06781578809022903, -0.08350840955972672, 0.06716419756412506, -0.16263867914676666, 0.09674869477748871, -0.13828086853027344, 0.0020999382250010967, -0.004546473268419504, 0.9978792071342468, -0.235830157995224, -4.270274639129639, 0.04900609701871872, 0.0, 0.0, 0.0, 0, 0, 0, 0, 0, 0, -0.235830157995224, -4.270274639129639, 0.04900609701871872
14845, 0.0673883929848671, -0.08461500704288483, 0.06817706674337387, 0.15579363703727722, 0.21403169631958008, 0.0621190220117569, -0.00028917143936268985, -0.003659079782664776, 1.0017911195755005, -0.2359294891357422, -4.2777276039123535, 0.04906294867396355, 0.0, 0.0, 0.0, 0, 0, 0, 0, 0, 0, -0.2359294891357422, -4.2777276039123535, 0.04906294867396355
14855, 0.06668610870838165, -0.08561572432518005, 0.06962387263774872, -0.05381566286087036, 0.030816389247775078, 0.26990363001823425, -0.00022794546384830028, -0.005984847899526358, 1.0008699893951416, -0.23602695763111115, -4.285186290740967, 0.04912029579281807, 0.0, 0.0, 0.0, 0, 0, 0, 0, 0, 0, -0.23602695763111115, -4.285186290740967, 0.04912029579281807
14865, 0.06701092422008514, -0.08702965080738068, 0.06863109022378922, -0.018373295664787292, 0.07073774188756943, 0.007840600796043873, -0.0014096606755629182, -0.005094901658594608, 0.9993691444396973, -0.23612359166145325, -4.292651176452637, 0.04917848855257034, 0.0, 0.0, 0.0, 0, 0, 0, 0, 0, 0, -0.23612359166145325, -4.292651176452637, 0.04917848855257034
14875, 0.06588386744260788, -0.08693220466375351, 0.06746742129325867, -0.0430058091878891, 0.020942343398928642, -0.11665936559438705, -0.00033274744055233896, -0.007624384015798569, 0.9992304444313049, -0.23621951043605804, -4.30012321472168, 0.04923630878329277, 0.0, 0.0, 0.0, 0, 0, 0, 0, 0, 0, -0.23621951043605804, -4.30012321472168, 0.04923630878329277
14885, 0.06703857332468033, -0.08639192581176758, 0.06723015755414963, 0.10230620950460434, -0.008332965895533562, 0.12860947847366333, 2.491764462320134e-05, -0.007044218480587006, 0.9994315505027771, -0.2363142967224121, -4.307602882385254, 0.049293484538793564, 0.0, 0.0, 0.0, 0, 0, 0, 0, 0, 0, -0.2363142967224121, -4.307602882385254, 0.049293484538793564
14895, 0.06754184514284134, -0.08498509228229523, 0.06889480352401733, 0.016682030633091927, 0.06611699610948563, 0.1841847449541092, -0.0011106791207566857, -0.006705127190798521, 1.0002989768981934, -0.23640763759613037, -4.315090179443359, 0.04935041815042496, 0.0, 0.0, 0.0, 0, 0, 0, 0, 0, 0, -0.23640763759613037, -4.315090179443359, 0.04935041815042496
14905, 0.06775569170713425, -0.0846768468618393, 0.06816648691892624, 0.18543002009391785, -0.06846380233764648, -0.26927289366722107, -0.0012204243103042245, -0.007387907709926367, 0.9992191791534424, -0.23650044202804565, -4.322585582733154, 0.04940734803676605, 0.0, 0.0, 0.0, 0, 0, 0, 0, 0, 0, -0.23650044202804565, -4.322585582733154, 0.04940734803676605
14915, 0.0687018483877182, -0.08170914649963379, 0.06808343529701233, 0.15037035942077637, -0.3924533724784851, 0.05720241367816925, -0.0021618823520839214, -0.00551675446331501, 0.9979969263076782, -0.2365933507680893, -4.3300886154174805, 0.04946363344788551, 0.0, 0.0, 0.0, 0, 0, 0, 0, 0, 0, -0.2365933507680893, -4.3300886154174805, 0.04946363344788551
14925, 0.06916292756795883, -0.08064696937799454, 0.06957446783781052, -0.056279685348272324, 0.2041996270418167, 0.31934311985969543, -0.0021686539985239506, -0.007254680152982473, 1.0015597343444824, -0.23668667674064636, -4.337599277496338, 0.04951898753643036, 0.0, 0.0, 0.0, 0, 0, 0, 0, 0, 0, -0.23668667674064636, -4.337599277496338, 0.04951898753643036
14935, 0.06920231133699417, -0.08256609737873077, 0.06990805268287659, 0.07002340257167816, 0.043024834245443344, 0.027589786797761917, -0.00223001791164279, -0.006351880729198456, 1.000178337097168, -0.23678073287010193, -4.345117568969727, 0.04957479238510132, 0.0, 0.0, 0.0, 0, 0, 0, 0, 0, 0, -0.23678073287010193, -4.345117568969727, 0.04957479238510132
14945, 0.06790927052497864, -0.07959932088851929, 0.06859666854143143, 0.07945958524942398, -0.3040480613708496, -0.12986217439174652, -0.003319967770949006, -0.004562205169349909, 1.000295877456665, -0.23687532544136047, -4.352643013000488, 0.049631521105766296, 0.0, 0.0, 0.0, 0, 0, 0, 0, 0, 0, -0.23687532544136047, -4.352643013000488, 0.049631521105766296
14955, 0.06806597858667374, -0.07957294583320618, 0.0684201791882515, 0.008993278257548809, -0.01164750475436449, 0.14828814566135406, -0.0020257753785699606, -0.004912144038826227, 1.0009422302246094, -0.23697127401828766, -4.360175132751465, 0.04968855902552605, 0.0, 0.0, 0.0, 0, 0, 0, 0, 0, 0, -0.23697127401828766, -4.360175132751465, 0.04968855902552605
14965, 0.0686655193567276, -0.08007842302322388, 0.07057089358568192, 0.028699031099677086, 0.2504625916481018, 0.1774216890335083, 0.0006734492490068078, -0.0038525245618075132, 1.0004042387008667, -0.23706771433353424, -4.36771297454834, 0.049746323376894, 0.0, 0.0, 0.0, 0, 0, 0, 0, 0, 0, -0.23706771433353424, -4.36771297454834, 0.049746323376894
14975, 0.06941897422075272, -0.0803648978471756, 0.0707070603966713, 0.049101997166872025, 0.05399616062641144, 0.015602067112922668, -0.0018830039771273732, -0.004199279006570578, 0.9994576573371887, -0.2371632605791092, -4.375256061553955, 0.049804627895355225, 0.0, 0.0, 0.0, 0, 0, 0, 0, 0, 0, -0.2371632605791092, -4.375256061553955, 0.049804627895355225
14985, 0.06920261681079865, -0.08317234367132187, 0.07281586527824402, 0.08735036104917526, 0.3095758259296417, 0.1254761517047882, -0.0004953002789989114, -0.007696603424847126, 0.9992170333862305, -0.2372584044933319, -4.382804870605469, 0.04986240714788437, 0.0, 0.0, 0.0, 0, 0, 0, 0, 0, 0, -0.2372584044933319, -4.382804870605469, 0.04986240714788437
14995, 0.07005718350410461, -0.08379900455474854, 0.07336054742336273, -0.07381892949342728, 0.25931158661842346, 0.057419147342443466, 0.0002711079432629049, -0.005873197223991156, 0.9993147850036621, -0.23735259473323822, -4.390361309051514, 0.04991947486996651, 0.0, 0.0, 0.0, 0, 0, 0, 0, 0, 0, -0.23735259473323822, -4.390361309051514, 0.04991947486996651
15005, 0.06940771639347076, -0.0850829929113388, 0.07404832541942596, -0.09403964132070541, 0.13419947028160095, 0.05318508297204971, -0.0031867995858192444, -0.004227262455970049, 0.9989696741104126, -0.23744620382785797, -4.397924900054932, 0.049975886940956116, 0.0, 0.0, 0.0, 0, 0, 0, 0, 0, 0, -0.23744620382785797, -4.397924900054932, 0.049975886940956116
15015, 0.06919776648283005, -0.08496616780757904, 0.07429136335849762, 0.08233455568552017, 0.22137551009655, 0.20272375643253326, 0.00034473888808861375, -0.005805443041026592, 1.0011488199234009, -0.23754015564918518, -4.405494689941406, 0.050031743943691254, 0.0, 0.0, 0.0, 0, 0, 0, 0, 0, 0, -0.23754015564918518, -4.405494689941406, 0.050031743943691254
15025, 0.06953883171081543, -0.08609589189291, 0.07641734182834625, -0.05433432757854462, -0.14423394203186035, 0.30843210220336914, -0.0005340785719454288, -0.004185009747743607, 1.0007269382476807, -0.23763345181941986, -4.413070201873779, 0.050088152289390564, 0.0, 0.0, 0.0, 0, 0, 0, 0, 0, 0, -0.23763345181941986, -4.413070201873779, 0.050088152289390564
15035, 0.0698305144906044, -0.08497237414121628, 0.07593438029289246, -0.07024300843477249, -0.038987092673778534, -0.04465925320982933, -0.0020496987272053957, -0.0035108705051243305, 0.9980043768882751, -0.23772591352462769, -4.420651435852051, 0.05014508590102196, 0.0, 0.0, 0.0, 0, 0, 0, 0, 0, 0, -0.23772591352462769, -4.420651435852051, 0.05014508590102196
15045, 0.06914157420396805, -0.08361008018255234, 0.07609160244464874, 0.05484555661678314, -0.13365039229393005, 0.05285010486841202, 0.0003275706258136779, -0.006042078137397766, 1.0000087022781372, -0.2378181517124176, -4.4282379150390625, 0.05020119994878769, 0.0, 0.0, 0.0, 0, 0, 0, 0, 0, 0, -0.2378181517124176, -4.4282379150390625, 0.05020119994878769
15055, 0.0686248317360878, -0.08274029940366745, 0.07551133632659912, -0.04789022356271744, -0.0886709913611412, 0.1448802351951599, -0.0011462022084742785, -0.005827068816870451, 0.9995636940002441, -0.23790942132472992, -4.435830593109131, 0.05025678873062134, 0.0, 0.0, 0.0, 0, 0, 0, 0, 0, 0, -0.23790942132472992, -4.435830593109131, 0.05025678873062134
15065, 0.06794533133506775, -0.08304236084222794, 0.07610033452510834, 0.0794239193201065, 0.0814758688211441, 0.19558949768543243, -0.003815567586570978, -0.005237393081188202, 0.9990033507347107, -0.23800042271614075, -4.443429946899414, 0.050312068313360214, 0.0, 0.0, 0.0, 0, 0, 0, 0, 0, 0, -0.23800042271614075, -4.443429946899414, 0.050312068313360214
15075, 0.06811875849962234, -0.08397166430950165, 0.0774562656879425, -0.01782103069126606, -0.06186659261584282, -0.027174631133675575, -0.0002270093245897442, -0.004903392866253853, 0.9988402128219604, -0.23809245228767395, -4.451035976409912, 0.050366319715976715, 0.0, 0.0, 0.0, 0, 0, 0, 0, 0, 0, -0.23809245228767395, -4.451035976409912, 0.050366319715976715
15085, 0.06837708503007889, -0.08431742340326309, 0.07747312635183334, 0.0038665703032165766, 0.15453468263149261, -0.1109863817691803, -6.439517892431468e-05, -0.004981439560651779, 0.9979417324066162, -0.23818440735340118, -4.458648204803467, 0.05041929706931114, 0.0, 0.0, 0.0, 0, 0, 0, 0, 0, 0, -0.23818440735340118, -4.458648204803467, 0.05041929706931114
15095, 0.06810741871595383, -0.08246605098247528, 0.07693779468536377, 0.23610720038414001, -0.20448970794677734, 0.0860988199710846, -5.388204590417445e-05, -0.006352859083563089, 0.9996367692947388, -0.23827484250068665, -4.46626615524292, 0.05047097057104111, 0.0, 0.0, 0.0, 0, 0, 0, 0, 0, 0, -0.23827484250068665, -4.46626615524292, 0.05047097057104111
15105, 0.06796644628047943, -0.08323154598474503, 0.07686339318752289, 0.012110288254916668, 0.12090378999710083, -0.12669089436531067, 6.183483492350206e-05, -0.007845875807106495, 0.9982810020446777, -0.23836374282836914, -4.473891258239746, 0.05052164942026138, 0.0, 0.0, 0.0, 0, 0, 0, 0, 0, 0, -0.23836374282836914, -4.473891258239746, 0.05052164942026138
15115, 0.0675760954618454, -0.08315078914165497, 0.07654719054698944, 0.07756620645523071, 0.07343622297048569, 0.3303162455558777, -0.00017992741777561605, -0.006552809849381447, 0.9983590841293335, -0.238451287150383, -4.48152494430542, 0.05057106912136078, 0.0, 0.0, 0.0, 0, 0, 0, 0, 0, 0, -0.238451287150383, -4.48152494430542, 0.05057106912136078
15125, 0.06701928377151489, -0.08333297818899155, 0.0779450535774231, -0.05329042300581932, 0.0511225089430809, 0.07085919380187988, -0.0008808091515675187, -0.005723760463297367, 0.9999662041664124, -0.23853759467601776, -4.489166259765625, 0.05061906576156616, 0.0, 0.0, 0.0, 0, 0, 0, 0, 0, 0, -0.23853759467601776, -4.489166259765625, 0.05061906576156616
15135, 0.0677902102470398, -0.08226209133863449, 0.0772014781832695, 0.15276920795440674, 0.09090320020914078, -0.2607734501361847, -0.0008110040798783302, -0.006400671321898699, 1.0002739429473877, -0.2386230230331421, -4.496814727783203, 0.05066670849919319, 0.0, 0.0, 0.0, 0, 0, 0, 0, 0, 0, -0.2386230230331421, -4.496814727783203, 0.05066670849919319
15145, 0.06652848422527313, -0.08336660265922546, 0.07746638357639313, -0.09857313334941864, -0.23233142495155334, 0.13664652407169342, -0.00018850574269890785, -0.00586243299767375, 0.9991227984428406, -0.23871596157550812, -4.505236625671387, 0.0507192499935627, 0.0, 0.0, 0.0, 0, 0, 0, 0, 0, 0, -0.23871596157550812, -4.505236625671387, 0.0507192499935627
15155, 0.06660901755094528, -0.0827258825302124, 0.07738588750362396, -0.06066484376788139, -0.12887096405029297, -0.2653408944606781, -0.0015268208226189017, -0.005357779562473297, 0.9997288584709167, -0.23871596157550812, -4.505236625671387, 0.0507192499935627, 0.0, 0.0, 0.0, 0, 0, 0, 0, 0, 0, -0.23879964649677277, -4.512899875640869, 0.05076657980680466
15165, 0.06620989739894867, -0.08132282644510269, 0.0769963413476944, 0.03448496013879776, -0.35107406973838806, -0.21769200265407562, -0.000735536334104836, -0.004650556948035955, 1.0008996725082397, -0.23888294398784637, -4.520569324493408, 0.05081408843398094, 0.0, 0.0, 0.0, 0, 0, 0, 0, 0, 0, -0.23888294398784637, -4.520569324493408, 0.05081408843398094
15175, 0.06604708731174469, -0.08033150434494019, 0.07627697288990021, -0.08396691083908081, -0.3124541938304901, 0.2267163097858429, -0.0024004727602005005, -0.007467405870556831, 1.001720666885376, -0.23888294398784637, -4.520569324493408, 0.05081408843398094, 0.0, 0.0, 0.0, 0, 0, 0, 0, 0, 0, -0.23896612226963043, -4.528244972229004, 0.05086253210902214
15185, 0.06460441648960114, -0.07913800328969955, 0.07599378377199173, -0.08829694241285324, -0.029674401506781578, -0.13527102768421173, -0.0019248472526669502, -0.008047166280448437, 1.0013206005096436, -0.23904989659786224, -4.535928726196289, 0.05091241002082825, 0.0, 0.0, 0.0, 0, 0, 0, 0, 0, 0, -0.23904989659786224, -4.535928726196289, 0.05091241002082825
15195, 0.06386491656303406, -0.0800328329205513, 0.07572709023952484, -0.10731838643550873, 0.16237428784370422, 0.09061581641435623, -0.0005110548227094114, -0.0040457225404679775, 0.9996629953384399, -0.23904989659786224, -4.535928726196289, 0.05091241002082825, 0.0, 0.0, 0.0, 0, 0, 0, 0, 0, 0, -0.23913410305976868, -4.5436201095581055, 0.05096355453133583
15205, 0.06396284699440002, -0.07918890565633774, 0.07585720717906952, -0.026813430711627007, -0.06620418280363083, 0.10835358500480652, -0.0015490229707211256, -0.0030743118841201067, 0.9989413022994995, -0.23913410305976868, -4.5436201095581055, 0.05096355453133583, 0.0, 0.0, 0.0, 0, 0, 0, 0, 0, 0, -0.23921802639961243, -4.5513176918029785, 0.05101444199681282
15215, 0.06415735185146332, -0.07903111726045609, 0.07625000923871994, 0.1218942329287529, 0.022580213844776154, 0.13388307392597198, -0.0013243018183857203, -0.004844133276492357, 1.000983476638794, -0.23921802639961243, -4.5513176918029785, 0.05101444199681282, 0.0, 0.0, 0.0, 0, 0, 0, 0, 0, 0, -0.23930975794792175, -4.55979061126709, 0.05107000842690468
15225, 0.06371086835861206, -0.08109740167856216, 0.07729961723089218, -0.019511697813868523, 0.2535320818424225, -0.001978735439479351, -0.0008251303224824369, -0.006481250282377005, 1.0014874935150146, -0.23930975794792175, -4.55979061126709, 0.05107000842690468, 0.0, 0.0, 0.0, 0, 0, 0, 0, 0, 0, -0.23940101265907288, -4.568270206451416, 0.05112670361995697
15235, 0.06458660215139389, -0.08072888106107712, 0.0787585899233818, 0.1940537989139557, -0.07634738832712173, 0.13973158597946167, -0.000308478920487687, -0.00574901606887579, 1.0003944635391235, -0.23940101265907288, -4.568270206451416, 0.05112670361995697, 0.0, 0.0, 0.0, 0, 0, 0, 0, 0, 0, -0.2394832968711853, -4.575986385345459, 0.051179490983486176
15245, 0.06351195275783539, -0.07871565967798233, 0.0782739594578743, -0.06771023571491241, -0.3792189955711365, -0.025629693642258644, -0.0006062899483367801, -0.006057578604668379, 1.0012285709381104, -0.2394832968711853, -4.575986385345459, 0.051179490983486176, 0.0, 0.0, 0.0, 0, 0, 0, 0, 0, 0, -0.23956455290317535, -4.583709239959717, 0.051233094185590744
15255, 0.06413474678993225, -0.07871159166097641, 0.07861224561929703, 0.12284369021654129, -0.03248929977416992, 0.22642748057842255, -0.0003837220137938857, -0.005660909693688154, 1.000035285949707, -0.23956455290317535, -4.583709239959717, 0.051233094185590744, 0.0, 0.0, 0.0, 0, 0, 0, 0, 0, 0, -0.23964489996433258, -4.591439247131348, 0.051287341862916946
15265, 0.06370394676923752, -0.07885667681694031, 0.07770668715238571, -0.08676572889089584, 0.18959328532218933, 0.09470084309577942, 0.0004555945051833987, -0.0032468352001160383, 0.9995575547218323, -0.23964489996433258, -4.591439247131348, 0.051287341862916946, 0.0, 0.0, 0.0, 0, 0, 0, 0, 0, 0, -0.23972392082214355, -4.599174976348877, 0.0513417012989521
15275, 0.06411708146333694, -0.07790350914001465, 0.07687029987573624, -0.12519288063049316, -0.003314259694889188, -0.1595798134803772, -0.00329150864854455, -0.006188822910189629, 0.998497486114502, -0.23972392082214355, -4.599174976348877, 0.0513417012989521, 0.0, 0.0, 0.0, 0, 0, 0, 0, 0, 0, -0.2398025095462799, -4.606916427612305, 0.05139540135860443
15285, 0.06562506407499313, -0.07562059164047241, 0.0785488486289978, 0.21466369926929474, -0.3731253147125244, 0.20334100723266602, -0.0023860796354711056, -0.005404585041105747, 0.9993048310279846, -0.2398025095462799, -4.606916427612305, 0.05139540135860443, 0.0, 0.0, 0.0, 0, 0, 0, 0, 0, 0, -0.23988226056098938, -4.614664554595947, 0.0514480397105217
15295, 0.06579690426588058, -0.07517381757497787, 0.079897940158844, 0.010645928792655468, -0.07262423634529114, 0.21477621793746948, 0.0001524138788226992, -0.00594703946262598, 0.9991084337234497, -0.23988226056098938, -4.614664554595947, 0.0514480397105217, 0.0, 0.0, 0.0, 0, 0, 0, 0, 0, 0, -0.2399623543024063, -4.622419357299805, 0.051499899476766586
15305, 0.0660448968410492, -0.07391437143087387, 0.0800192579627037, -0.015055617317557335, -0.1915951818227768, 0.19084049761295319, -0.001322094351053238, -0.007662699557840824, 0.9974455237388611, -0.2399623543024063, -4.622419357299805, 0.051499899476766586, 0.0, 0.0, 0.0, 0, 0, 0, 0, 0, 0, -0.2400418072938919, -4.630181789398193, 0.051550351083278656
15315, 0.0649944543838501, -0.07632549852132797, 0.0795578882098198, -0.0175536647439003, 0.3391188979148865, -0.06481127440929413, -0.0002039100945694372, -0.006898908410221338, 0.9976152777671814, -0.2400418072938919, -4.630181789398193, 0.051550351083278656, 0.0, 0.0, 0.0, 0, 0, 0, 0, 0, 0, -0.2401207983493805, -4.6379523277282715, 0.05159858241677284
15325, 0.0647868886590004, -0.07723621279001236, 0.0794302225112915, -0.05589620769023895, 0.10243368148803711, 0.13002903759479523, -0.0010193410562351346, -0.006183958146721125, 0.9989129900932312, -0.2401207983493805, -4.6379523277282715, 0.05159858241677284, 0.0, 0.0, 0.0, 0, 0, 0, 0, 0, 0, -0.24019914865493774, -4.645730495452881, 0.05164496973156929
15335, 0.06493738293647766, -0.07699576765298843, 0.07925458997488022, 0.06356373429298401, -0.20966006815433502, -0.041180189698934555, -0.0012747152941301465, -0.004833792336285114, 0.9993364214897156, -0.24019914865493774, -4.645730495452881, 0.05164496973156929, 0.0, 0.0, 0.0, 0, 0, 0, 0, 0, 0, -0.24027705192565918, -4.653515815734863, 0.05169033259153366
15345, 0.06483061611652374, -0.07558368891477585, 0.0779811292886734, 0.05922997370362282, -0.20913028717041016, -0.04789697751402855, 0.0003322704287711531, -0.006505751516669989, 1.0003950595855713, -0.24027705192565918, -4.653515815734863, 0.05169033259153366, 0.0, 0.0, 0.0, 0, 0, 0, 0, 0, 0, -0.24035419523715973, -4.661307334899902, 0.05173541232943535
15355, 0.06336107105016708, -0.07673786580562592, 0.07724892348051071, -0.12135817110538483, 0.18839627504348755, -0.0863637924194336, -0.0013467440148815513, -0.007290899287909269, 0.9992015361785889, -0.24035419523715973, -4.661307334899902, 0.05173541232943535, 0.0, 0.0, 0.0, 0, 0, 0, 0, 0, 0, -0.240430548787117, -4.669106483459473, 0.051780302077531815
15365, 0.06318541616201401, -0.07850848138332367, 0.07768891006708145, 0.06873095035552979, 0.1272863745689392, 0.1417456865310669, -0.0004460271738935262, -0.005542111583054066, 0.9964446425437927, -0.240430548787117, -4.669106483459473, 0.051780302077531815, 0.0, 0.0, 0.0, 0, 0, 0, 0, 0, 0, -0.24050652980804443, -4.676913261413574, 0.05182356387376785
15375, 0.06302200257778168, -0.07671259343624115, 0.0769629180431366, 0.060139525681734085, -0.3195990025997162, 0.029164856299757957, -0.002518453635275364, -0.006235569715499878, 0.9981735944747925, -0.24050652980804443, -4.676913261413574, 0.05182356387376785, 0.0, 0.0, 0.0, 0, 0, 0, 0, 0, 0, -0.24058251082897186, -4.684727191925049, 0.05186393857002258
15385, 0.06410404294729233, -0.07605700939893723, 0.0774361789226532, 0.12041869014501572, 0.10871589928865433, 0.3219420313835144, 0.0002290940610691905, -0.003795997239649296, 1.0003132820129395, -0.24058251082897186, -4.684727191925049, 0.05186393857002258, 0.0, 0.0, 0.0, 0, 0, 0, 0, 0, 0, -0.24065819382667542, -4.692547798156738, 0.051902830600738525
15395, 0.06454888731241226, -0.07729414105415344, 0.07688945531845093, 0.07940617203712463, 0.07692781090736389, -0.12207121402025223, 0.0009822339052334428, -0.0036803369875997305, 0.9994853138923645, -0.24065819382667542, -4.692547798156738, 0.051902830600738525, 0.0, 0.0, 0.0, 0, 0, 0, 0, 0, 0, -0.24073229730129242, -4.700373649597168, 0.051941558718681335
15405, 0.0644419938325882, -0.07762578874826431, 0.07644186913967133, 0.00739835761487484, 0.010822565294802189, 0.11006426811218262, -0.0011755165178328753, -0.0047862837091088295, 0.9993493556976318, -0.24073229730129242, -4.700373649597168, 0.051941558718681335, 0.0, 0.0, 0.0, 0, 0, 0, 0, 0, 0, -0.2408052235841751, -4.70820426940918, 0.051979899406433105
15415, 0.06444773077964783, -0.07765255123376846, 0.07632961124181747, 0.053268272429704666, -0.019618796184659004, 0.034182339906692505, -0.0016722881700843573, -0.0077667138539254665, 0.9995393753051758, -0.2408052235841751, -4.70820426940918, 0.051979899406433105, 0.0, 0.0, 0.0, 0, 0, 0, 0, 0, 0, -0.24087822437286377, -4.716041564941406, 0.05201781913638115
15425, 0.06486400961875916, -0.07817672938108444, 0.0761437714099884, 0.0643409863114357, 0.2092023342847824, -0.04293511435389519, -0.0012308747973293066, -0.0072186971083283424, 1.0018144845962524, -0.24087822437286377, -4.716041564941406, 0.05201781913638115, 0.0, 0.0, 0.0, 0, 0, 0, 0, 0, 0, -0.24095140397548676, -4.723886966705322, 0.05205626040697098
15435, 0.06435786187648773, -0.08068057149648666, 0.07477293163537979, 0.013471513986587524, 0.3438567817211151, -0.2407565712928772, -0.0021590013056993484, -0.007987258955836296, 0.9992524981498718, -0.24095140397548676, -4.723886966705322, 0.05205626040697098, 0.0, 0.0, 0.0, 0, 0, 0, 0, 0, 0, -0.24102483689785004, -4.731740951538086, 0.0520952008664608
15445, 0.06462161988019943, -0.08077134191989899, 0.07473751902580261, 0.12273498624563217, -0.11643429100513458, 0.03783604875206947, -0.0028410095255821943, -0.005832768976688385, 1.0027316808700562, -0.24102483689785004, -4.731740951538086, 0.0520952008664608, 0.0, 0.0, 0.0, 0, 0, 0, 0, 0, 0, -0.24109923839569092, -4.739603042602539, 0.05213494971394539
15455, 0.06429765373468399, -0.08156036585569382, 0.07419705390930176, -0.03634105622768402, 0.14487726986408234, -0.0630960762500763, -0.0009707759018056095, -0.0034009215887635946, 1.0007169246673584, -0.24109923839569092, -4.739603042602539, 0.05213494971394539, 0.0, 0.0, 0.0, 0, 0, 0, 0, 0, 0, -0.24117417633533478, -4.747471332550049, 0.05217616260051727
15465, 0.06457514315843582, -0.08303642272949219, 0.07378340512514114, -0.046488337218761444, 0.19487117230892181, -0.1261351853609085, 0.0002398533106315881, -0.006365146022289991, 1.0010716915130615, -0.24117417633533478, -4.747471332550049, 0.05217616260051727, 0.0, 0.0, 0.0, 0, 0, 0, 0, 0, 0, -0.2412482649087906, -4.755345344543457, 0.052218131721019745
15475, 0.06344606727361679, -0.08234798163175583, 0.07345855981111526, -0.22175146639347076, -0.11587556451559067, 0.029232438653707504, 0.0014312842395156622, -0.006757021881639957, 1.0002464056015015, -0.2412482649087906, -4.755345344543457, 0.052218131721019745, 0.0, 0.0, 0.0, 0, 0, 0, 0, 0, 0, -0.24132035672664642, -4.763226509094238, 0.05226079374551773
15485, 0.06395334005355835, -0.08459065109491348, 0.0737111046910286, 0.0608757846057415, 0.23963558673858643, 0.09000273048877716, -0.0010424369247630239, -0.006273902952671051, 0.9994897246360779, -0.24132035672664642, -4.763226509094238, 0.05226079374551773, 0.0, 0.0, 0.0, 0, 0, 0, 0, 0, 0, -0.24139054119586945, -4.771115303039551, 0.052303727716207504
15495, 0.0639582946896553, -0.08518318086862564, 0.07367409765720367, -0.01655634306371212, -0.10975206643342972, -0.0907844826579094, -0.0029201062861829996, -0.006717382930219173, 1.0010286569595337, -0.24139054119586945, -4.771115303039551, 0.052303727716207504, 0.0, 0.0, 0.0, 0, 0, 0, 0, 0, 0, -0.24146103858947754, -4.779011249542236, 0.052346713840961456
15505, 0.06422054767608643, -0.08408114314079285, 0.07363969087600708, -0.03852199763059616, -0.1016029343008995, -0.058047741651535034, -0.001076672924682498, -0.00483336579054594, 1.000732660293579, -0.24146103858947754, -4.779011249542236, 0.052346713840961456, 0.0, 0.0, 0.0, 0, 0, 0, 0, 0, 0, -0.24153250455856323, -4.786914348602295, 0.05239007622003555
15515, 0.063177190721035, -0.08341124653816223, 0.0739053413271904, -0.13499879837036133, -0.05663587898015976, 0.02282419614493847, -0.0018235476454719901, -0.005325708072632551, 1.0005027055740356, -0.24153250455856323, -4.786914348602295, 0.05239007622003555, 0.0, 0.0, 0.0, 0, 0, 0, 0, 0, 0, -0.2416037917137146, -4.794823169708252, 0.052433960139751434
15525, 0.06430917233228683, -0.0836980938911438, 0.07538386434316635, 0.17793940007686615, 0.045682959258556366, 0.15063078701496124, -0.002352943876758218, -0.005741120781749487, 0.9994856119155884, -0.2416037917137146, -4.794823169708252, 0.052433960139751434, 0.0, 0.0, 0.0, 0, 0, 0, 0, 0, 0, -0.24167555570602417, -4.802738666534424, 0.0524778813123703
15535, 0.06289070099592209, -0.08605192601680756, 0.07511384040117264, -0.01665131002664566, 0.21502746641635895, -0.03493807464838028, -0.003063553711399436, -0.0060292379930615425, 0.9987172484397888, -0.24167555570602417, -4.802738666534424, 0.0524778813123703, 0.0, 0.0, 0.0, 0, 0, 0, 0, 0, 0, -0.2417486011981964, -4.8106608390808105, 0.05252108722925186
15545, 0.06247637793421745, -0.08697670698165894, 0.07488490641117096, 0.015330479480326176, 0.020731329917907715, 0.0515369176864624, 0.00016436248552054167, -0.004399455618113279, 0.9996271133422852, -0.2417486011981964, -4.8106608390808105, 0.05252108722925186, 0.0, 0.0, 0.0, 0, 0, 0, 0, 0, 0, -0.24182191491127014, -4.818589687347412, 0.052563440054655075
15555, 0.061394933611154556, -0.08812183141708374, 0.07440587878227234, -0.02508654072880745, 0.13166692852973938, 0.009018953889608383, -0.0007664661388844252, -0.00350815593264997, 0.9993353486061096, -0.24182191491127014, -4.818589687347412, 0.052563440054655075, 0.0, 0.0, 0.0, 0, 0, 0, 0, 0, 0, -0.2418944239616394, -4.826523780822754, 0.05260513350367546
15565, 0.060038819909095764, -0.08763961493968964, 0.07434454560279846, -0.21913692355155945, -0.04145539924502373, -0.02275388315320015, -0.0008856105268932879, -0.006738335359841585, 1.0011682510375977, -0.2418944239616394, -4.826523780822754, 0.05260513350367546, 0.0, 0.0, 0.0, 0, 0, 0, 0, 0, 0, -0.24196629226207733, -4.834463596343994, 0.0526469461619854
15575, 0.05980107933282852, -0.08942575752735138, 0.07446461170911789, -0.1094202846288681, 0.21893587708473206, 0.07398762553930283, -0.0022217233199626207, -0.005834975279867649, 1.0016508102416992, -0.24196629226207733, -4.834463596343994, 0.0526469461619854, 0.0, 0.0, 0.0, 0, 0, 0, 0, 0, 0, -0.24203801155090332, -4.842410564422607, 0.052689988166093826
15585, 0.05930805578827858, -0.08871249109506607, 0.07350388914346695, -0.10052737593650818, -0.06469450891017914, -0.12837456166744232, -0.0017576501704752445, -0.006256189197301865, 0.99949049949646, -0.24203801155090332, -4.842410564422607, 0.052689988166093826, 0.0, 0.0, 0.0, 0, 0, 0, 0, 0, 0, -0.242110013961792, -4.8503642082214355, 0.05273400992155075
15595, 0.06046442687511444, -0.08633781224489212, 0.0753423199057579, 0.13683028519153595, -0.308910995721817, 0.1839701235294342, -0.0007193897617980838, -0.005647127982228994, 0.9999271035194397, -0.242110013961792, -4.8503642082214355, 0.05273400992155075, 0.0, 0.0, 0.0, 0, 0, 0, 0, 0, 0, -0.2421819567680359, -4.8583245277404785, 0.05277802422642708
15605, 0.06204722821712494, -0.08615469932556152, 0.07670809328556061, 0.16617843508720398, 0.0798286572098732, 0.10073520988225937, -0.0021693166345357895, -0.00489549245685339, 1.0004295110702515, -0.2421819567680359, -4.8583245277404785, 0.05277802422642708, 0.0, 0.0, 0.0, 0, 0, 0, 0, 0, 0, -0.2422538548707962, -4.866291522979736, 0.05282209813594818
15615, 0.06187351420521736, -0.08719426393508911, 0.0758204460144043, -0.06275881081819534, 0.1476716846227646, -0.08890687674283981, -0.000426207174314186, -0.007740012835711241, 0.9992309808731079, -0.2422538548707962, -4.866291522979736, 0.05282209813594818, 0.0, 0.0, 0.0, 0, 0, 0, 0, 0, 0, -0.24232563376426697, -4.874265193939209, 0.05286626145243645
15625, 0.06103536859154701, -0.08743146806955338, 0.07552763819694519, -0.08897873014211655, 0.07656103372573853, -0.03520958870649338, -0.0008653782424516976, -0.007678553927689791, 1.001295804977417, -0.24232563376426697, -4.874265193939209, 0.05286626145243645, 0.0, 0.0, 0.0, 0, 0, 0, 0, 0, 0, -0.24239669740200043, -4.882247447967529, 0.05291060358285904
15635, 0.061471085995435715, -0.08698530495166779, 0.07572624087333679, 0.11856986582279205, -0.37188130617141724, -0.20399707555770874, -0.0018398341489955783, -0.005098037887364626, 1.0008413791656494, -0.24239669740200043, -4.882247447967529, 0.05291060358285904, 0.0, 0.0, 0.0, 0, 0, 0, 0, 0, 0, -0.24246732890605927, -4.890237331390381, 0.05295554921030998
15645, 0.06235970929265022, -0.08559275418519974, 0.07531865686178207, 0.16061480343341827, -0.20377743244171143, -0.0830361545085907, -0.0019653933122754097, -0.005852034781128168, 1.0020123720169067, -0.24246732890605927, -4.890237331390381, 0.05295554921030998, 0.0, 0.0, 0.0, 0, 0, 0, 0, 0, 0, -0.24253825843334198, -4.898233890533447, 0.05300182104110718
15655, 0.06212957948446274, -0.08621574938297272, 0.0750725269317627, -0.05760253593325615, 0.17964546382427216, 0.017394382506608963, -0.001883990247733891, -0.006036068312823772, 0.9972149133682251, -0.24253825843334198, -4.898233890533447, 0.05300182104110718, 0.0, 0.0, 0.0, 0, 0, 0, 0, 0, 0, -0.24260933697223663, -4.9062371253967285, 0.05304836109280586
15665, 0.06169167906045914, -0.08533769845962524, 0.07651166617870331, -0.13171517848968506, -0.21861182153224945, 0.1733500361442566, -0.0022834804840385914, -0.004463180433958769, 0.9992942214012146, -0.24260933697223663, -4.9062371253967285, 0.05304836109280586, 0.0, 0.0, 0.0, 0, 0, 0, 0, 0, 0, -0.24268057942390442, -4.914246559143066, 0.053093548864126205
15675, 0.061480872333049774, -0.08697667717933655, 0.07699227333068848, -0.11819960922002792, 0.27610793709754944, 0.19598443806171417, 0.0012062726309522986, -0.003209297312423587, 0.9988773465156555, -0.24268057942390442, -4.914246559143066, 0.053093548864126205, 0.0, 0.0, 0.0, 0, 0, 0, 0, 0, 0, -0.24275147914886475, -4.9222612380981445, 0.053137730807065964
15685, 0.06125316768884659, -0.08658429235219955, 0.07790860533714294, -0.028836218640208244, 0.10112171620130539, 0.03742533549666405, 0.001576849608682096, -0.003916378132998943, 0.9986916184425354, -0.24275147914886475, -4.9222612380981445, 0.053137730807065964, 0.0, 0.0, 0.0, 0, 0, 0, 0, 0, 0, -0.24282009899616241, -4.930280685424805, 0.05318090692162514
15695, 0.061505276709795, -0.08738907426595688, 0.07839594036340714, -0.03319453075528145, 0.04291190579533577, 0.24226057529449463, -4.070375507581048e-05, -0.004965437110513449, 0.9999485611915588, -0.24282009899616241, -4.930280685424805, 0.05318090692162514, 0.0, 0.0, 0.0, 0, 0, 0, 0, 0, 0, -0.2428862303495407, -4.938305377960205, 0.05322327837347984
15705, 0.06154732406139374, -0.0867094025015831, 0.07805752754211426, -0.014717074111104012, -0.233749657869339, -0.12525738775730133, -0.0006845546886324883, -0.005023415666073561, 0.9997394680976868, -0.2428862303495407, -4.938305377960205, 0.05322327837347984, 0.0, 0.0, 0.0, 0, 0, 0, 0, 0, 0, -0.242950901389122, -4.946336269378662, 0.053265176713466644
15715, 0.0610235296189785, -0.08714058250188828, 0.07836487144231796, -0.036949995905160904, 0.03615327551960945, 0.1474725604057312, -0.0025588630232959986, -0.00634482316672802, 1.0004795789718628, -0.242950901389122, -4.946336269378662, 0.053265176713466644, 0.0, 0.0, 0.0, 0, 0, 0, 0, 0, 0, -0.24301525950431824, -4.954373359680176, 0.05330691114068031
15725, 0.06182883679866791, -0.08802425116300583, 0.07789433002471924, 0.08374008536338806, 0.05983048677444458, -0.09065943956375122, -0.00038065877743065357, -0.006592170335352421, 1.0005207061767578, -0.24301525950431824, -4.954373359680176, 0.05330691114068031, 0.0, 0.0, 0.0, 0, 0, 0, 0, 0, 0, -0.24307973682880402, -4.962418079376221, 0.053348880261182785
15735, 0.062298357486724854, -0.08736997842788696, 0.07863280922174454, 0.21123003959655762, -0.06385041773319244, 0.08395681530237198, -0.0008323382353410125, -0.00640395050868392, 0.9987373352050781, -0.24307973682880402, -4.962418079376221, 0.053348880261182785, 0.0, 0.0, 0.0, 0, 0, 0, 0, 0, 0, -0.24314354360103607, -4.970469951629639, 0.05339060723781586
15745, 0.06288352608680725, -0.08736377209424973, 0.07903879135847092, 0.09684089571237564, -0.12008506059646606, 0.019563544541597366, -0.0005463454872369766, -0.006517807021737099, 0.9989162683486938, -0.24314354360103607, -4.970469951629639, 0.05339060723781586, 0.0, 0.0, 0.0, 0, 0, 0, 0, 0, 0, -0.24320636689662933, -4.97852897644043, 0.053431570529937744
15755, 0.06410350650548935, -0.08545012772083282, 0.07909835875034332, 0.17044618725776672, -0.2815195620059967, 0.11536835134029388, 0.0003483662731014192, -0.008114516735076904, 0.9979271292686462, -0.24320636689662933, -4.97852897644043, 0.053431570529937744, 0.0, 0.0, 0.0, 0, 0, 0, 0, 0, 0, -0.24326811730861664, -4.986595630645752, 0.05347112566232681
15765, 0.06551038473844528, -0.08570344001054764, 0.08059508353471756, 0.011908125132322311, 0.17364542186260223, 0.3713449239730835, -0.0006657264893874526, -0.00697728106752038, 1.002084732055664, -0.24326811730861664, -4.986595630645752, 0.05347112566232681, 0.0, 0.0, 0.0, 0, 0, 0, 0, 0, 0, -0.24332860112190247, -4.994670867919922, 0.05351020395755768
15775, 0.06492099165916443, -0.0853433832526207, 0.07982617616653442, -0.17721444368362427, -0.04341890662908554, -0.07431744784116745, -0.0014933859929442406, -0.008765250444412231, 0.9999757409095764, -0.24332860112190247, -4.994670867919922, 0.05351020395755768, 0.0, 0.0, 0.0, 0, 0, 0, 0, 0, 0, -0.24338865280151367, -5.0027546882629395, 0.0535501129925251
15785, 0.06499428302049637, -0.08791592717170715, 0.07989931851625443, -0.10067681223154068, 0.39201363921165466, 0.09156543761491776, 0.00023387616965919733, -0.00650207931175828, 0.9979473352432251, -0.24338865280151367, -5.0027546882629395, 0.0535501129925251, 0.0, 0.0, 0.0, 0, 0, 0, 0, 0, 0, -0.24344800412654877, -5.010847091674805, 0.05358964204788208
15795, 0.06484059244394302, -0.08787903934717178, 0.08087766915559769, -0.054354142397642136, -0.1224554106593132, 0.23370060324668884, -0.001615953166037798, -0.006795317865908146, 0.9982286691665649, -0.24344800412654877, -5.010847091674805, 0.05358964204788208, 0.0, 0.0, 0.0, 0, 0, 0, 0, 0, 0, -0.24350614845752716, -5.018947601318359, 0.05362744256854057
15805, 0.06642987579107285, -0.08669892698526382, 0.08130113780498505, 0.19794996082782745, -0.17271305620670319, 0.06713364273309708, -0.0027036007959395647, -0.006796051282435656, 0.9998579621315002, -0.24350614845752716, -5.018947601318359, 0.05362744256854057, 0.0, 0.0, 0.0, 0, 0, 0, 0, 0, 0, -0.24356456100940704, -5.027055740356445, 0.053663890808820724
15815, 0.06692097336053848, -0.08628425747156143, 0.08070521801710129, 0.027473891153931618, -0.0386931486427784, -0.19792041182518005, -0.004024058114737272, -0.006261001341044903, 1.0000970363616943, -0.24356456100940704, -5.027055740356445, 0.053663890808820724, 0.0, 0.0, 0.0, 0, 0, 0, 0, 0, 0, -0.24362462759017944, -5.0351715087890625, 0.05370011180639267
15825, 0.06687935441732407, -0.08488496392965317, 0.08047376573085785, -0.1322328746318817, -0.37803852558135986, -0.1511642038822174, -0.0037989700213074684, -0.0060665421187877655, 1.0015394687652588, -0.24362462759017944, -5.0351715087890625, 0.05370011180639267, 0.0, 0.0, 0.0, 0, 0, 0, 0, 0, 0, -0.24368713796138763, -5.043294429779053, 0.05373673513531685
15835, 0.06751663982868195, -0.08393018692731857, 0.07967247068881989, -0.11583097279071808, -0.14014281332492828, -0.05003855749964714, -0.0022025650832802057, -0.00448980089277029, 0.999708890914917, -0.24368713796138763, -5.043294429779053, 0.05373673513531685, 0.0, 0.0, 0.0, 0, 0, 0, 0, 0, 0, -0.24375133216381073, -5.0514235496521, 0.05377388373017311
15845, 0.06653127819299698, -0.08407195657491684, 0.07959742099046707, -0.09458637982606888, 0.13042008876800537, -0.16324974596500397, -0.0016892433632165194, -0.004864920862019062, 0.9998660683631897, -0.24375133216381073, -5.0514235496521, 0.05377388373017311, 0.0, 0.0, 0.0, 0, 0, 0, 0, 0, 0, -0.243816077709198, -5.059558391571045, 0.053811028599739075
15855, 0.06691701710224152, -0.08427039533853531, 0.0800943672657013, 0.10608536750078201, 0.049796413630247116, 0.10546211898326874, -0.001923126052133739, -0.00812352355569601, 1.0004100799560547, -0.243816077709198, -5.059558391571045, 0.053811028599739075, 0.0, 0.0, 0.0, 0, 0, 0, 0, 0, 0, -0.2438811957836151, -5.067699909210205, 0.05384809151291847
15865, 0.06625371426343918, -0.08260127156972885, 0.08044537901878357, -0.12245243787765503, -0.06309415400028229, -0.002906551817432046, -0.0019010428804904222, -0.005892548710107803, 0.999276340007782, -0.2438811957836151, -5.067699909210205, 0.05384809151291847, 0.0, 0.0, 0.0, 0, 0, 0, 0, 0, 0, -0.243946835398674, -5.075849533081055, 0.053885068744421005
15875, 0.06553707271814346, -0.0821550190448761, 0.07891397178173065, -0.2429678589105606, -0.1686023324728012, -0.2638387084007263, 0.0005511869676411152, -0.003794032149016857, 0.9994999766349792, -0.243946835398674, -5.075849533081055, 0.053885068744421005, 0.0, 0.0, 0.0, 0, 0, 0, 0, 0, 0, -0.2440119981765747, -5.084005832672119, 0.053921617567539215
15885, 0.06641547381877899, -0.08297517895698547, 0.07993149757385254, 0.06417600810527802, 0.15630193054676056, 0.11933711171150208, -0.0004291610384825617, -0.006089902017265558, 0.9985466003417969, -0.2440119981765747, -5.084005832672119, 0.053921617567539215, 0.0, 0.0, 0.0, 0, 0, 0, 0, 0, 0, -0.2440757006406784, -5.092167854309082, 0.05395745486021042
15895, 0.0663537085056305, -0.08253248780965805, 0.07967274636030197, -0.020208297297358513, -0.09592568129301071, -0.13147103786468506, -0.00021175765141379088, -0.004837146028876305, 0.9992680549621582, -0.2440757006406784, -5.092167854309082, 0.05395745486021042, 0.0, 0.0, 0.0, 0, 0, 0, 0, 0, 0, -0.24413810670375824, -5.10033655166626, 0.05399223417043686
15905, 0.06714741885662079, -0.08408796787261963, 0.08055476099252701, 0.05445379391312599, 0.1560526043176651, -0.08013685047626495, -0.0016592149622738361, -0.0067788297310471535, 0.998799741268158, -0.24413810670375824, -5.10033655166626, 0.05399223417043686, 0.0, 0.0, 0.0, 0, 0, 0, 0, 0, 0, -0.24419981241226196, -5.108511924743652, 0.05402605980634689
15915, 0.06657300144433975, -0.0842680037021637, 0.07983000576496124, -0.10220936685800552, 0.017093950882554054, -0.17468062043190002, -0.0011059724492952228, -0.005296554882079363, 1.000217318534851, -0.24419981241226196, -5.108511924743652, 0.05402605980634689, 0.0, 0.0, 0.0, 0, 0, 0, 0, 0, 0, -0.24426127970218658, -5.11669397354126, 0.05405950918793678
15925, 0.06606608629226685, -0.08435626327991486, 0.08031062036752701, -0.18271265923976898, 0.0406067930161953, 0.18690402805805206, -0.0035143804270774126, -0.005447369534522295, 1.0010993480682373, -0.24426127970218658, -5.11669397354126, 0.05405950918793678, 0.0, 0.0, 0.0, 0, 0, 0, 0, 0, 0, -0.24432344734668732, -5.124882698059082, 0.05409342423081398
15935, 0.06673569232225418, -0.08466082811355591, 0.08004723489284515, 0.11510065943002701, -0.2395840287208557, -0.0720633938908577, -0.0014704574132338166, -0.004954186733812094, 1.0007237195968628, -0.24432344734668732, -5.124882698059082, 0.05409342423081398, 0.0, 0.0, 0.0, 0, 0, 0, 0, 0, 0, -0.24438665807247162, -5.133077621459961, 0.05412821099162102
15945, 0.06605253368616104, -0.08379064500331879, 0.0798836499452591, 0.04746804013848305, 0.1097232848405838, -0.07862639427185059, -0.0012898914283141494, -0.005083992145955563, 0.9993318915367126, -0.24438665807247162, -5.133077621459961, 0.05412821099162102, 0.0, 0.0, 0.0, 0, 0, 0, 0, 0, 0, -0.2444499433040619, -5.141278266906738, 0.05416319891810417
15955, 0.06583452224731445, -0.08303769677877426, 0.07946308702230453, -0.10169669985771179, 0.1970360428094864, 0.01410847157239914, -0.0017527758609503508, -0.005727541167289019, 0.9999839663505554, -0.2444499433040619, -5.141278266906738, 0.05416319891810417, 0.0, 0.0, 0.0, 0, 0, 0, 0, 0, 0, -0.24451327323913574, -5.149485111236572, 0.054197750985622406
15965, 0.06683386117219925, -0.08262750506401062, 0.08071808516979218, 0.13227835297584534, 0.10604192316532135, 0.19408878684043884, -0.0017325723310932517, -0.0072431061416864395, 1.0028456449508667, -0.24451327323913574, -5.149485111236572, 0.054197750985622406, 0.0, 0.0, 0.0, 0, 0, 0, 0, 0, 0, -0.2445768564939499, -5.1576995849609375, 0.05423321574926376
15975, 0.06572602689266205, -0.08249979466199875, 0.08075186610221863, -0.17303933203220367, 0.15110261738300323, -0.046243272721767426, -0.001621242961846292, -0.005064444150775671, 1.0028283596038818, -0.2445768564939499, -5.1576995849609375, 0.05423321574926376, 0.0, 0.0, 0.0, 0, 0, 0, 0, 0, 0, -0.2446407824754715, -5.165920734405518, 0.054271090775728226
15985, 0.06646928936243057, -0.08295851200819016, 0.08060038089752197, 0.13732123374938965, 0.13944126665592194, -0.0987013503909111, 0.00045214357669465244, -0.0060033975169062614, 1.0013492107391357, -0.2446407824754715, -5.165920734405518, 0.054271090775728226, 0.0, 0.0, 0.0, 0, 0, 0, 0, 0, 0, -0.24470391869544983, -5.1741485595703125, 0.05431171506643295
15995, 0.06541842967271805, -0.08465557545423508, 0.08073095232248306, -0.03898926079273224, 0.17580707371234894, -0.11404391378164291, 0.00037955661537125707, -0.006858817767351866, 1.0006195306777954, -0.24470391869544983, -5.1741485595703125, 0.05431171506643295, 0.0, 0.0, 0.0, 0, 0, 0, 0, 0, 0, -0.24476535618305206, -5.1823835372924805, 0.05435418710112572
16005, 0.0658731609582901, -0.0863330066204071, 0.0819595530629158, -0.033969733864068985, 0.21989580988883972, 0.10988985747098923, 0.0015113713452592492, -0.006707534659653902, 0.9987544417381287, -0.24476535618305206, -5.1823835372924805, 0.05435418710112572, 0.0, 0.0, 0.0, 0, 0, 0, 0, 0, 0, -0.24483047425746918, -5.191450595855713, 0.05440084636211395
16015, 0.06517969816923141, -0.08603354543447495, 0.08197484910488129, -0.050332359969615936, 0.026980988681316376, 0.03377556800842285, -0.000625311047770083, -0.0057146018370985985, 0.9994708299636841, -0.24483047425746918, -5.191450595855713, 0.05440084636211395, 0.0, 0.0, 0.0, 0, 0, 0, 0, 0, 0, -0.24483047425746918, -5.191450595855713, 0.05440084636211395
16025, 0.06588370352983475, -0.08366283029317856, 0.08080369234085083, 0.13852429389953613, -0.28919878602027893, -0.1538674533367157, -0.000886611407622695, -0.005464179441332817, 0.9983645677566528, -0.24488753080368042, -5.199700832366943, 0.05444254353642464, 0.0, 0.0, 0.0, 0, 0, 0, 0, 0, 0, -0.24488753080368042, -5.199700832366943, 0.05444254353642464
16035, 0.06596115976572037, -0.08589950948953629, 0.08168219774961472, 0.012815110385417938, 0.19310101866722107, -0.10990133136510849, -0.0029701946768909693, -0.005782844498753548, 0.9986625909805298, -0.244949072599411, -5.208784103393555, 0.05448709428310394, 0.0, 0.0, 0.0, 0, 0, 0, 0, 0, 0, -0.244949072599411, -5.208784103393555, 0.05448709428310394
16045, 0.06666240841150284, -0.08560965210199356, 0.08282840251922607, 0.05227522552013397, -0.04277413338422775, 0.17358338832855225, -0.0019512035651132464, -0.006695724092423916, 0.9989913702011108, -0.24500538408756256, -5.217048645019531, 0.05452616885304451, 0.0, 0.0, 0.0, 0, 0, 0, 0, 0, 0, -0.24500538408756256, -5.217048645019531, 0.05452616885304451
16055, 0.06540433317422867, -0.0841764584183693, 0.08101348578929901, -0.14298750460147858, -0.17749318480491638, -0.1675938367843628, -0.0013297908008098602, -0.007064053323119879, 0.9981321692466736, -0.24506287276744843, -5.225320339202881, 0.05456428974866867, 0.0, 0.0, 0.0, 0, 0, 0, 0, 0, 0, -0.24506287276744843, -5.225320339202881, 0.05456428974866867
16065, 0.0651082843542099, -0.08288218826055527, 0.08149991184473038, 0.017754612490534782, -0.21375466883182526, 0.08378208428621292, -0.0003748837916646153, -0.007693525403738022, 0.9982560276985168, -0.245120570063591, -5.23360013961792, 0.054601240903139114, 0.0, 0.0, 0.0, 0, 0, 0, 0, 0, 0, -0.245120570063591, -5.23360013961792, 0.054601240903139114
16075, 0.06409639120101929, -0.08276008814573288, 0.08191196620464325, -0.19668292999267578, 0.003973198588937521, -0.13408569991588593, -0.0014867499703541398, -0.006715827155858278, 0.998821496963501, -0.24517770111560822, -5.241888523101807, 0.05463672801852226, 0.0, 0.0, 0.0, 0, 0, 0, 0, 0, 0, -0.24517770111560822, -5.241888523101807, 0.05463672801852226
16085, 0.06434132158756256, -0.0833725854754448, 0.0835602730512619, 0.06892641633749008, 0.07755524665117264, 0.2634813189506531, -0.0003070985258091241, -0.00554717006161809, 0.9992139339447021, -0.24523426592350006, -5.250184535980225, 0.05467101186513901, 0.0, 0.0, 0.0, 0, 0, 0, 0, 0, 0, -0.24523426592350006, -5.250184535980225, 0.05467101186513901
16095, 0.06424720585346222, -0.08327686041593552, 0.08333887904882431, -0.004507378209382296, -0.017727289348840714, 0.08345585316419601, -0.001933669438585639, -0.00492108752951026, 1.0021227598190308, -0.2452901005744934, -5.258487701416016, 0.054704658687114716, 0.0, 0.0, 0.0, 0, 0, 0, 0, 0, 0, -0.2452901005744934, -5.258487701416016, 0.054704658687114716
16105, 0.06568361818790436, -0.08195378631353378, 0.08423957973718643, 0.13675133883953094, -0.2492171972990036, 0.0073809633031487465, -0.00177976384293288, -0.0044041965156793594, 0.9996501207351685, -0.24534551799297333, -5.2667975425720215, 0.054738909006118774, 0.0, 0.0, 0.0, 0, 0, 0, 0, 0, 0, -0.24534551799297333, -5.2667975425720215, 0.054738909006118774
16115, 0.06575030833482742, -0.08391670137643814, 0.08409704267978668, -0.04777850583195686, 0.13147883117198944, -0.1445523500442505, -0.0025962365325540304, -0.006583475973457098, 0.9989331960678101, -0.2454012781381607, -5.275113105773926, 0.054773878306150436, 0.0, 0.0, 0.0, 0, 0, 0, 0, 0, 0, -0.2454012781381607, -5.275113105773926, 0.054773878306150436
16125, 0.06544823199510574, -0.08332634717226028, 0.08353415876626968, -0.09917265176773071, -0.09843344241380692, 0.04247583821415901, -6.468765059253201e-05, -0.005958921276032925, 0.9997546672821045, -0.24545755982398987, -5.283435344696045, 0.054808326065540314, 0.0, 0.0, 0.0, 0, 0, 0, 0, 0, 0, -0.24545755982398987, -5.283435344696045, 0.054808326065540314
16135, 0.06469587981700897, -0.0812031701207161, 0.08442027121782303, -0.012336412444710732, -0.29925936460494995, 0.024935225024819374, -0.0007028901600278914, -0.003601147560402751, 0.9985945820808411, -0.2455136924982071, -5.291765213012695, 0.054842106997966766, 0.0, 0.0, 0.0, 0, 0, 0, 0, 0, 0, -0.2455136924982071, -5.291765213012695, 0.054842106997966766
16145, 0.06476079672574997, -0.08224803954362869, 0.08404641598463058, 0.075010746717453, 0.24216628074645996, -0.02782970294356346, -0.002231165999546647, -0.004212541971355677, 1.00009286403656, -0.2455688863992691, -5.300100803375244, 0.05487516149878502, 0.0, 0.0, 0.0, 0, 0, 0, 0, 0, 0, -0.2455688863992691, -5.300100803375244, 0.05487516149878502
16155, 0.06505610793828964, -0.08315937966108322, 0.08405087888240814, 0.03346500173211098, 0.1397785246372223, 0.13555514812469482, -0.002372127491980791, -0.004221930634230375, 1.001958966255188, -0.24562405049800873, -5.308441162109375, 0.05490767955780029, 0.0, 0.0, 0.0, 0, 0, 0, 0, 0, 0, -0.24562405049800873, -5.308441162109375, 0.05490767955780029
16165, 0.06524012982845306, -0.08463942259550095, 0.08465558290481567, 0.16845154762268066, 0.2551932632923126, 0.08330784738063812, -0.0020201695151627064, -0.00541645847260952, 1.0036636590957642, -0.24567994475364685, -5.316787242889404, 0.05494097247719765, 0.0, 0.0, 0.0, 0, 0, 0, 0, 0, 0, -0.24567994475364685, -5.316787242889404, 0.05494097247719765
16175, 0.06578053534030914, -0.0835803747177124, 0.08355825394392014, 0.06326545029878616, -0.056628674268722534, -0.32918792963027954, 0.00041792719275690615, -0.006054028868675232, 0.9992826581001282, -0.24573636054992676, -5.325139045715332, 0.054976627230644226, 0.0, 0.0, 0.0, 0, 0, 0, 0, 0, 0, -0.24573636054992676, -5.325139045715332, 0.054976627230644226
16185, 0.06509973108768463, -0.0837574154138565, 0.08272106945514679, -0.16897335648536682, 0.05751362070441246, -0.19738012552261353, 0.0016113254241645336, -0.005066738463938236, 0.9976769089698792, -0.24579212069511414, -5.333497524261475, 0.055013712495565414, 0.0, 0.0, 0.0, 0, 0, 0, 0, 0, 0, -0.24579212069511414, -5.333497524261475, 0.055013712495565414
16195, 0.06522685289382935, -0.08459233492612839, 0.0837596133351326, 0.011476462706923485, 0.01081635057926178, 0.21193595230579376, -0.0006205358658917248, -0.004186608828604221, 0.9980151653289795, -0.2458457499742508, -5.341862201690674, 0.05504966899752617, 0.0, 0.0, 0.0, 0, 0, 0, 0, 0, 0, -0.2458457499742508, -5.341862201690674, 0.05504966899752617
16205, 0.06539590656757355, -0.08612046390771866, 0.08416152000427246, 0.040750812739133835, 0.08761607110500336, 0.13267792761325836, -0.002176364418119192, -0.004015135113149881, 0.9995049238204956, -0.24589768052101135, -5.3502326011657715, 0.05508370324969292, 0.0, 0.0, 0.0, 0, 0, 0, 0, 0, 0, -0.24589768052101135, -5.3502326011657715, 0.05508370324969292
16215, 0.06624779105186462, -0.08623838424682617, 0.0832057073712349, 0.07735327631235123, 0.04266132786870003, -0.10373905301094055, -0.0015333278570324183, -0.004302771762013435, 1.0004559755325317, -0.24594943225383759, -5.358608245849609, 0.05511654540896416, 0.0, 0.0, 0.0, 0, 0, 0, 0, 0, 0, -0.24594943225383759, -5.358608245849609, 0.05511654540896416
16225, 0.0657346174120903, -0.08732840418815613, 0.08371056616306305, -0.13380341231822968, 0.12871795892715454, 0.13837400078773499, -0.000500667083542794, -0.007063200697302818, 1.0010911226272583, -0.2460014373064041, -5.3669891357421875, 0.05514940991997719, 0.0, 0.0, 0.0, 0, 0, 0, 0, 0, 0, -0.2460014373064041, -5.3669891357421875, 0.05514940991997719
16235, 0.06568873673677444, -0.08663274347782135, 0.083306685090065, -0.08872127532958984, 0.024404376745224, -0.2035919427871704, -0.002085865242406726, -0.007026691921055317, 0.9982419610023499, -0.24605314433574677, -5.3753767013549805, 0.055183034390211105, 0.0, 0.0, 0.0, 0, 0, 0, 0, 0, 0, -0.24605314433574677, -5.3753767013549805, 0.055183034390211105
16245, 0.06528878211975098, -0.08590608090162277, 0.08349061012268066, -0.035565391182899475, 0.05853945389389992, -0.04095770791172981, -0.0010763603495433927, -0.006100558675825596, 0.9990770220756531, -0.2461046427488327, -5.383771896362305, 0.055216629058122635, 0.0, 0.0, 0.0, 0, 0, 0, 0, 0, 0, -0.2461046427488327, -5.383771896362305, 0.055216629058122635
16255, 0.06370580196380615, -0.08577943593263626, 0.08267263323068619, -0.17549028992652893, 0.019170278683304787, -0.035508956760168076, -0.0016551947919651866, -0.008669967763125896, 0.9998888373374939, -0.2461562305688858, -5.39217472076416, 0.055249154567718506, 0.0, 0.0, 0.0, 0, 0, 0, 0, 0, 0, -0.2461562305688858, -5.39217472076416, 0.055249154567718506
16265, 0.06452452391386032, -0.08627831935882568, 0.08205853402614594, 0.18238039314746857, 0.07589574158191681, 0.007329683285206556, -0.000514282553922385, -0.007094415370374918, 0.9994224905967712, -0.24620774388313293, -5.400585651397705, 0.055280882865190506, 0.0, 0.0, 0.0, 0, 0, 0, 0, 0, 0, -0.24620774388313293, -5.400585651397705, 0.055280882865190506
16275, 0.06451812386512756, -0.08770665526390076, 0.08256933093070984, -0.023611634969711304, 0.10088976472616196, 0.06608811020851135, -0.0017685543280094862, -0.004785066936165094, 1.002188801765442, -0.24625879526138306, -5.409005641937256, 0.055312078446149826, 0.0, 0.0, 0.0, 0, 0, 0, 0, 0, 0, -0.24625879526138306, -5.409005641937256, 0.055312078446149826
16285, 0.06461580842733383, -0.08706698566675186, 0.08350773900747299, -0.014840754680335522, -0.228891521692276, 0.06098988279700279, -0.0004288888885639608, -0.005334962625056505, 1.0016289949417114, -0.24630938470363617, -5.41743278503418, 0.055343907326459885, 0.0, 0.0, 0.0, 0, 0, 0, 0, 0, 0, -0.24630938470363617, -5.41743278503418, 0.055343907326459885
16295, 0.06500709801912308, -0.08823203295469284, 0.08349309116601944, -0.008956399746239185, 0.29061418771743774, 0.12184544652700424, -0.0016583906253799796, -0.005283816251903772, 1.0009840726852417, -0.24635964632034302, -5.42586612701416, 0.05537751317024231, 0.0, 0.0, 0.0, 0, 0, 0, 0, 0, 0, -0.24635964632034302, -5.42586612701416, 0.05537751317024231
16305, 0.06491518765687943, -0.0883730947971344, 0.08481117337942123, -0.043691471219062805, 0.0568547248840332, 0.1576899290084839, -0.0016358119901269674, -0.006086766254156828, 1.0007835626602173, -0.24640968441963196, -5.4343061447143555, 0.055412404239177704, 0.0, 0.0, 0.0, 0, 0, 0, 0, 0, 0, -0.24640968441963196, -5.4343061447143555, 0.055412404239177704
16315, 0.06562749296426773, -0.0867602601647377, 0.08458855748176575, 0.1175045296549797, -0.27086514234542847, -0.19087724387645721, -0.0006614751182496548, -0.00811772607266903, 1.0010125637054443, -0.2464599609375, -5.442752838134766, 0.055448126047849655, 0.0, 0.0, 0.0, 0, 0, 0, 0, 0, 0, -0.2464599609375, -5.442752838134766, 0.055448126047849655
16325, 0.06559937447309494, -0.08361169695854187, 0.08403364568948746, -0.06745989620685577, -0.36107853055000305, -0.005503333639353514, 0.0008867722353897989, -0.008275806903839111, 0.99936842918396, -0.24650992453098297, -5.451207160949707, 0.05548477917909622, 0.0, 0.0, 0.0, 0, 0, 0, 0, 0, 0, -0.24650992453098297, -5.451207160949707, 0.05548477917909622
16335, 0.06593560427427292, -0.08261871337890625, 0.08303781598806381, 0.013507046736776829, 0.01048455573618412, -0.07598040997982025, 7.3317614806001075e-06, -0.007444087415933609, 0.9974475502967834, -0.24655836820602417, -5.459670543670654, 0.05552157759666443, 0.0, 0.0, 0.0, 0, 0, 0, 0, 0, 0, -0.24655836820602417, -5.459670543670654, 0.05552157759666443
16345, 0.06583486497402191, -0.08045167475938797, 0.08234860002994537, -0.09650801122188568, -0.35611492395401, -0.06288127601146698, -0.0014199578436091542, -0.006984391249716282, 1.001426100730896, -0.24660499393939972, -5.468142509460449, 0.05555703118443489, 0.0, 0.0, 0.0, 0, 0, 0, 0, 0, 0, -0.24660499393939972, -5.468142509460449, 0.05555703118443489
16355, 0.06672077625989914, -0.08152630180120468, 0.08400459587574005, -0.009412754327058792, 0.0999981090426445, 0.26422643661499023, -0.0019083792576566339, -0.004825187847018242, 1.0004807710647583, -0.246650829911232, -5.476623058319092, 0.055591970682144165, 0.0, 0.0, 0.0, 0, 0, 0, 0, 0, 0, -0.246650829911232, -5.476623058319092, 0.055591970682144165
16365, 0.06814868003129959, -0.08223098516464233, 0.08311072736978531, 0.13292989134788513, 0.1890999674797058, -0.183771014213562, -0.0018492441158741713, -0.005776888690888882, 0.9994638562202454, -0.24669696390628815, -5.485110759735107, 0.05562760680913925, 0.0, 0.0, 0.0, 0, 0, 0, 0, 0, 0, -0.24669696390628815, -5.485110759735107, 0.05562760680913925
16375, 0.06811998784542084, -0.08178675174713135, 0.08387663960456848, -0.037862613797187805, 0.014120116829872131, 0.1931210607290268, -0.0008204046171158552, -0.007502057123929262, 1.0008407831192017, -0.24674363434314728, -5.49360466003418, 0.05566323548555374, 0.0, 0.0, 0.0, 0, 0, 0, 0, 0, 0, -0.24674363434314728, -5.49360466003418, 0.05566323548555374
16385, 0.0691155269742012, -0.08224379271268845, 0.08416035026311874, 0.15774449706077576, 0.069858118891716, 0.01963571459054947, -0.003797390731051564, -0.004675958305597305, 1.0003756284713745, -0.24679040908813477, -5.502106189727783, 0.05569892376661301, 0.0, 0.0, 0.0, 0, 0, 0, 0, 0, 0, -0.24679040908813477, -5.502106189727783, 0.05569892376661301
16395, 0.06990212947130203, -0.08277514576911926, 0.08439897745847702, 0.07136914134025574, -0.09135396033525467, 0.23621539771556854, -0.0013829403324052691, -0.007020690478384495, 0.9984239339828491, -0.2468380182981491, -5.510614395141602, 0.05573525279760361, 0.0, 0.0, 0.0, 0, 0, 0, 0, 0, 0, -0.2468380182981491, -5.510614395141602, 0.05573525279760361
16405, 0.06930551677942276, -0.08210550993680954, 0.0836053118109703, -0.0047194259241223335, -0.21805600821971893, 0.08156805485486984, -0.0025661408435553312, -0.007886163890361786, 0.9976766705513, -0.24688665568828583, -5.519129276275635, 0.05577119439840317, 0.0, 0.0, 0.0, 0, 0, 0, 0, 0, 0, -0.24688665568828583, -5.519129276275635, 0.05577119439840317
16415, 0.06982890516519547, -0.081165611743927, 0.08315485715866089, 0.1558043211698532, -0.12819930911064148, -0.04034833237528801, -0.0007301542209461331, -0.004731090739369392, 0.9979618787765503, -0.2469356656074524, -5.527652263641357, 0.05580538883805275, 0.0, 0.0, 0.0, 0, 0, 0, 0, 0, 0, -0.2469356656074524, -5.527652263641357, 0.05580538883805275
16425, 0.06975571811199188, -0.08176243305206299, 0.08272803574800491, -0.05694477632641792, 0.19471997022628784, 0.015981141477823257, -0.0003265653213020414, -0.006977758836001158, 1.0007845163345337, -0.24698473513126373, -5.536182403564453, 0.05583769828081131, 0.0, 0.0, 0.0, 0, 0, 0, 0, 0, 0, -0.24698473513126373, -5.536182403564453, 0.05583769828081131
16435, 0.07107439637184143, -0.07949639856815338, 0.08349233120679855, 0.15886688232421875, -0.2062285840511322, 0.1997179388999939, -0.0021897712722420692, -0.006116189993917942, 1.0009247064590454, -0.24703307449817657, -5.544719696044922, 0.05586925521492958, 0.0, 0.0, 0.0, 0, 0, 0, 0, 0, 0, -0.24703307449817657, -5.544719696044922, 0.05586925521492958
16445, 0.07172194123268127, -0.07996731996536255, 0.08433112502098083, 0.1304023265838623, 0.3029259145259857, 0.07491536438465118, -0.0012261765077710152, -0.005655262619256973, 0.9981489777565002, -0.2470812201499939, -5.553264617919922, 0.05590137839317322, 0.0, 0.0, 0.0, 0, 0, 0, 0, 0, 0, -0.2470812201499939, -5.553264617919922, 0.05590137839317322
16455, 0.07151265442371368, -0.07989892363548279, 0.08521182835102081, -0.00920745451003313, 0.10073325783014297, 0.1485224962234497, -0.0015603562351316214, -0.006253769621253014, 0.9999068379402161, -0.24712969362735748, -5.561816215515137, 0.05593324825167656, 0.0, 0.0, 0.0, 0, 0, 0, 0, 0, 0, -0.24712969362735748, -5.561816215515137, 0.05593324825167656
16465, 0.07234625518321991, -0.0802835002541542, 0.08615489304065704, 0.10258495807647705, 0.09777577966451645, 0.19452862441539764, -0.0017701610922813416, -0.00585178891196847, 0.9988633394241333, -0.24717822670936584, -5.570374965667725, 0.05596408620476723, 0.0, 0.0, 0.0, 0, 0, 0, 0, 0, 0, -0.24717822670936584, -5.570374965667725, 0.05596408620476723
16475, 0.07171474397182465, -0.08032041043043137, 0.08702448010444641, 0.0026335171423852444, 0.017026003450155258, 0.22195371985435486, -0.0014696698635816574, -0.005531009752303362, 0.9991874694824219, -0.24722693860530853, -5.5789408683776855, 0.055994223803281784, 0.0, 0.0, 0.0, 0, 0, 0, 0, 0, 0, -0.24722693860530853, -5.5789408683776855, 0.055994223803281784
16485, 0.0717233419418335, -0.0813136175274849, 0.08674255013465881, 0.03172571212053299, 0.0877784714102745, 0.06152058765292168, -0.002612246433272958, -0.00716415187343955, 0.9989044070243835, -0.24727587401866913, -5.587513446807861, 0.056023646146059036, 0.0, 0.0, 0.0, 0, 0, 0, 0, 0, 0, -0.24727587401866913, -5.587513446807861, 0.056023646146059036
16495, 0.07185916602611542, -0.08121885359287262, 0.08609778434038162, 0.020146753638982773, 0.0030978163704276085, -0.006123831029981375, -0.0013366591883823276, -0.00443775812163949, 1.000456690788269, -0.24732540547847748, -5.596093654632568, 0.05605221539735794, 0.0, 0.0, 0.0, 0, 0, 0, 0, 0, 0, -0.24732540547847748, -5.596093654632568, 0.05605221539735794
16505, 0.07159203290939331, -0.08029044419527054, 0.0862298235297203, -0.09416940808296204, 0.017782339826226234, 0.068449966609478, -0.0020860563963651657, -0.005639280658215284, 0.9986783862113953, -0.2473755031824112, -5.60468053817749, 0.05608024448156357, 0.0, 0.0, 0.0, 0, 0, 0, 0, 0, 0, -0.2473755031824112, -5.60468053817749, 0.05608024448156357
16515, 0.07185760885477066, -0.07898453623056412, 0.0866771712899208, -0.012644502334296703, -0.15278160572052002, 0.10151001065969467, 0.00037739810068160295, -0.0045550367794930935, 0.9991878867149353, -0.24742573499679565, -5.613273620605469, 0.056107766926288605, 0.0, 0.0, 0.0, 0, 0, 0, 0, 0, 0, -0.24742573499679565, -5.613273620605469, 0.056107766926288605
16525, 0.0716567113995552, -0.0797007605433464, 0.08592532575130463, -0.042035799473524094, 0.2016640156507492, -0.21064147353172302, -0.00025732722133398056, -0.0070741260424256325, 0.9994174838066101, -0.24747523665428162, -5.621873378753662, 0.05613447725772858, 0.0, 0.0, 0.0, 0, 0, 0, 0, 0, 0, -0.24747523665428162, -5.621873378753662, 0.05613447725772858
16535, 0.0718948245048523, -0.0796857699751854, 0.08657771348953247, 0.05133213847875595, -0.035909321159124374, 0.20976589620113373, 4.6405828470597044e-05, -0.006947684101760387, 0.999417781829834, -0.24752333760261536, -5.6304802894592285, 0.056160490959882736, 0.0, 0.0, 0.0, 0, 0, 0, 0, 0, 0, -0.24752333760261536, -5.6304802894592285, 0.056160490959882736
16545, 0.07228254526853561, -0.08016157895326614, 0.08723428100347519, 0.020179778337478638, 0.019430138170719147, 0.1126723662018776, 0.00023389028501696885, -0.007541141472756863, 1.0035691261291504, -0.24757011234760284, -5.639095306396484, 0.0561860166490078, 0.0, 0.0, 0.0, 0, 0, 0, 0, 0, 0, -0.24757011234760284, -5.639095306396484, 0.0561860166490078
16555, 0.07259403169155121, -0.07993549108505249, 0.08695686608552933, 0.008281365968286991, -0.021584156900644302, 0.09074915200471878, -0.0014420717488974333, -0.006087471265345812, 1.0014255046844482, -0.24761542677879333, -5.64771842956543, 0.05621296539902687, 0.0, 0.0, 0.0, 0, 0, 0, 0, 0, 0, -0.24761542677879333, -5.64771842956543, 0.05621296539902687
16565, 0.07348557561635971, -0.08061911910772324, 0.08739985525608063, 0.03750346601009369, 0.1559455692768097, 0.06359177827835083, -0.0025353720411658287, -0.004751412197947502, 1.0025478601455688, -0.24766004085540771, -5.656349182128906, 0.05624236911535263, 0.0, 0.0, 0.0, 0, 0, 0, 0, 0, 0, -0.24766004085540771, -5.656349182128906, 0.05624236911535263
16575, 0.07454954087734222, -0.08021274209022522, 0.08813468366861343, 0.10857462882995605, -0.027232961729168892, 0.08150489628314972, -0.0008690230897627771, -0.005657967645674944, 1.0001999139785767, -0.2477051466703415, -5.664986610412598, 0.0562739372253418, 0.0, 0.0, 0.0, 0, 0, 0, 0, 0, 0, -0.2477051466703415, -5.664986610412598, 0.0562739372253418
16585, 0.07525032013654709, -0.08150182664394379, 0.0893656313419342, 0.004274304956197739, 0.14388316869735718, 0.11293952167034149, -0.00244129728525877, -0.00620322534814477, 0.9986417293548584, -0.24775080382823944, -5.673630714416504, 0.05630703270435333, 0.0, 0.0, 0.0, 0, 0, 0, 0, 0, 0, -0.24775080382823944, -5.673630714416504, 0.05630703270435333
16595, 0.07464849948883057, -0.08186569809913635, 0.08987109363079071, -0.08294118195772171, 0.04593500867486, -0.04120957478880882, -0.00033281606738455594, -0.00442249933257699, 0.9992004632949829, -0.24779686331748962, -5.682281970977783, 0.056339897215366364, 0.0, 0.0, 0.0, 0, 0, 0, 0, 0, 0, -0.24779686331748962, -5.682281970977783, 0.056339897215366364
16605, 0.07562658190727234, -0.08215551823377609, 0.09132106602191925, 0.22612233459949493, 0.0483449287712574, 0.08916208148002625, 0.000707574188709259, -0.005679842550307512, 0.9998056292533875, -0.24784277379512787, -5.690939903259277, 0.056371938437223434, 0.0, 0.0, 0.0, 0, 0, 0, 0, 0, 0, -0.24784277379512787, -5.690939903259277, 0.056371938437223434
16615, 0.07577904313802719, -0.08361958712339401, 0.09085173904895782, 0.12340019643306732, 0.13684380054473877, -0.07902011275291443, 0.0020741056650877, -0.006047905422747135, 0.9987722039222717, -0.24788716435432434, -5.699604034423828, 0.056403569877147675, 0.0, 0.0, 0.0, 0, 0, 0, 0, 0, 0, -0.24788716435432434, -5.699604034423828, 0.056403569877147675
16625, 0.07631155103445053, -0.08423799276351929, 0.09006559103727341, 0.0808485746383667, -0.03493601083755493, -0.1068047508597374, 0.0014681207248941064, -0.005485473666340113, 1.0005513429641724, -0.24792881309986115, -5.708274841308594, 0.05643467232584953, 0.0, 0.0, 0.0, 0, 0, 0, 0, 0, 0, -0.24792881309986115, -5.708274841308594, 0.05643467232584953
16635, 0.0762350931763649, -0.08311091363430023, 0.09093814343214035, -0.021185364574193954, -0.13345059752464294, 0.21308672428131104, -0.0019272889476269484, -0.005337436217814684, 1.0004552602767944, -0.24796736240386963, -5.716952800750732, 0.056465454399585724, 0.0, 0.0, 0.0, 0, 0, 0, 0, 0, 0, -0.24796736240386963, -5.716952800750732, 0.056465454399585724
16645, 0.07599449902772903, -0.08184553682804108, 0.09082291275262833, 0.0163881853222847, -0.06470119953155518, 0.04176000505685806, -0.0036950737703591585, -0.004737826529890299, 1.0025160312652588, -0.24800464510917664, -5.725637435913086, 0.056496646255254745, 0.0, 0.0, 0.0, 0, 0, 0, 0, 0, 0, -0.24800464510917664, -5.725637435913086, 0.056496646255254745
16655, 0.07455474883317947, -0.0835576131939888, 0.08958443999290466, -0.19305172562599182, 0.3672245442867279, -0.18279284238815308, -0.001905535813421011, -0.00532489875331521, 1.0014052391052246, -0.2480430155992508, -5.734328269958496, 0.056529100984334946, 0.0, 0.0, 0.0, 0, 0, 0, 0, 0, 0, -0.2480430155992508, -5.734328269958496, 0.056529100984334946
16665, 0.07514721900224686, -0.08415257185697556, 0.09067140519618988, 0.09016357362270355, 0.14885230362415314, 0.05899649113416672, -0.0007465427042916417, -0.00553023861721158, 1.000433325767517, -0.2480824738740921, -5.743025302886963, 0.05656323954463005, 0.0, 0.0, 0.0, 0, 0, 0, 0, 0, 0, -0.2480824738740921, -5.743025302886963, 0.05656323954463005
16675, 0.07465733587741852, -0.08571917563676834, 0.09058430045843124, 0.028543926775455475, 0.24572908878326416, 0.05675011873245239, -0.0019302256405353546, -0.007073643617331982, 1.0001628398895264, -0.24812188744544983, -5.7517290115356445, 0.05659830942749977, 0.0, 0.0, 0.0, 0, 0, 0, 0, 0, 0, -0.24812188744544983, -5.7517290115356445, 0.05659830942749977
16685, 0.07537531852722168, -0.08454617112874985, 0.0906006395816803, 0.11956983804702759, -0.01818954385817051, 0.038043905049562454, -0.0034642068203538656, -0.004193600732833147, 1.0008044242858887, -0.24816147983074188, -5.760439872741699, 0.05663376674056053, 0.0, 0.0, 0.0, 0, 0, 0, 0, 0, 0, -0.24816147983074188, -5.760439872741699, 0.05663376674056053
16695, 0.07502516359090805, -0.08595150709152222, 0.08924823999404907, -0.11001519858837128, 0.1943252682685852, -0.1877596378326416, -0.0017793532460927963, -0.005549688823521137, 1.0001661777496338, -0.24820223450660706, -5.769157886505127, 0.056669823825359344, 0.0, 0.0, 0.0, 0, 0, 0, 0, 0, 0, -0.24820223450660706, -5.769157886505127, 0.056669823825359344
16705, 0.07576602697372437, -0.08518781512975693, 0.08885511010885239, 0.11188880354166031, -0.20998017489910126, -0.021392852067947388, -0.0014229603111743927, -0.005710509140044451, 1.0003029108047485, -0.24824394285678864, -5.777882099151611, 0.056706447154283524, 0.0, 0.0, 0.0, 0, 0, 0, 0, 0, 0, -0.24824394285678864, -5.777882099151611, 0.056706447154283524
16715, 0.07615736871957779, -0.08601390570402145, 0.08842532336711884, 0.004781932104378939, 0.19826433062553406, -0.0679522156715393, -0.0005530130001716316, -0.006607084535062313, 1.001821517944336, -0.24828577041625977, -5.7866129875183105, 0.05674348771572113, 0.0, 0.0, 0.0, 0, 0, 0, 0, 0, 0, -0.24828577041625977, -5.7866129875183105, 0.05674348771572113
16725, 0.07622628659009933, -0.08471226692199707, 0.08813600987195969, -0.04895351082086563, 0.018855037167668343, -0.022414056584239006, -0.001344942837022245, -0.00634536100551486, 1.001374363899231, -0.24832724034786224, -5.795351028442383, 0.05678170546889305, 0.0, 0.0, 0.0, 0, 0, 0, 0, 0, 0, -0.24832724034786224, -5.795351028442383, 0.05678170546889305
16735, 0.07715988159179688, -0.08563710004091263, 0.08850518614053726, 0.13947635889053345, 0.08650163561105728, 0.193180114030838, -0.0007346950005739927, -0.004946430213749409, 0.9999927878379822, -0.2483682632446289, -5.804096698760986, 0.056821439415216446, 0.0, 0.0, 0.0, 0, 0, 0, 0, 0, 0, -0.2483682632446289, -5.804096698760986, 0.056821439415216446
16745, 0.07620558142662048, -0.08558192849159241, 0.08849779516458511, -0.07136958092451096, -0.1684451848268509, -0.23160937428474426, -0.002295073354616761, -0.005620411131531, 1.0020995140075684, -0.2484087347984314, -5.812849044799805, 0.05686194449663162, 0.0, 0.0, 0.0, 0, 0, 0, 0, 0, 0, -0.2484087347984314, -5.812849044799805, 0.05686194449663162
16755, 0.07565909624099731, -0.08599226176738739, 0.0872458666563034, -0.07243714481592178, 0.20381756126880646, -0.2556949257850647, -0.0031460043974220753, -0.0034253248013556004, 1.001096248626709, -0.24844877421855927, -5.821608066558838, 0.056903425604104996, 0.0, 0.0, 0.0, 0, 0, 0, 0, 0, 0, -0.24844877421855927, -5.821608066558838, 0.056903425604104996
16765, 0.07635151594877243, -0.08711224794387817, 0.0873630940914154, 0.07608494162559509, 0.3484087884426117, 0.06280441582202911, 6.106215005274862e-05, -0.006602638866752386, 1.0011420249938965, -0.24848957359790802, -5.830373287200928, 0.05694632977247238, 0.0, 0.0, 0.0, 0, 0, 0, 0, 0, 0, -0.24848957359790802, -5.830373287200928, 0.05694632977247238
16775, 0.07699462026357651, -0.08597899973392487, 0.0859614759683609, 0.017375880852341652, -0.09180676937103271, -0.17207762598991394, -3.9462276617996395e-05, -0.004151190631091595, 0.9997408390045166, -0.24853050708770752, -5.839144706726074, 0.05699045956134796, 0.0, 0.0, 0.0, 0, 0, 0, 0, 0, 0, -0.24853050708770752, -5.839144706726074, 0.05699045956134796
16785, 0.07744743674993515, -0.08716132491827011, 0.08667093515396118, 0.06370214372873306, 0.3375754952430725, 0.19226299226284027, -0.0015996440779417753, -0.006035447120666504, 1.000301718711853, -0.24857008457183838, -5.8479228019714355, 0.0570351779460907, 0.0, 0.0, 0.0, 0, 0, 0, 0, 0, 0, -0.24857008457183838, -5.8479228019714355, 0.0570351779460907
16795, 0.07770480960607529, -0.08772869408130646, 0.08749445527791977, 0.003947110380977392, 0.021285874769091606, -0.0062806447967886925, -0.0012537258444353938, -0.0059688095934689045, 1.0014190673828125, -0.24860872328281403, -5.8567070960998535, 0.057080063968896866, 0.0, 0.0, 0.0, 0, 0, 0, 0, 0, 0, -0.24860872328281403, -5.8567070960998535, 0.057080063968896866
16805, 0.07724159955978394, -0.08758604526519775, 0.08723041415214539, -0.06058076396584511, -0.09844812005758286, 0.013925164937973022, 0.0003875404945574701, -0.005653013475239277, 1.0001916885375977, -0.24864709377288818, -5.865499019622803, 0.057125773280858994, 0.0, 0.0, 0.0, 0, 0, 0, 0, 0, 0, -0.24864709377288818, -5.865499019622803, 0.057125773280858994
16815, 0.07684969902038574, -0.08678111433982849, 0.08735346794128418, 0.12453833222389221, 0.013482324779033661, 0.21492092311382294, -0.0002722051285672933, -0.0056953392922878265, 0.9991201162338257, -0.24868464469909668, -5.874297618865967, 0.05717245116829872, 0.0, 0.0, 0.0, 0, 0, 0, 0, 0, 0, -0.24868464469909668, -5.874297618865967, 0.05717245116829872
16825, 0.0762728676199913, -0.08583096414804459, 0.08743670582771301, 0.019748127087950706, -0.028605027124285698, 0.030236603692173958, -0.0009525639470666647, -0.006069797091186047, 0.9993652105331421, -0.24872076511383057, -5.883102893829346, 0.057219162583351135, 0.0, 0.0, 0.0, 0, 0, 0, 0, 0, 0, -0.24872076511383057, -5.883102893829346, 0.057219162583351135
16835, 0.07649030536413193, -0.08686627447605133, 0.087936632335186, 0.024310719221830368, 0.2366410791873932, 0.09935665130615234, -0.0004558764339890331, -0.0048259855248034, 0.9986807107925415, -0.24875588715076447, -5.891915321350098, 0.05726511403918266, 0.0, 0.0, 0.0, 0, 0, 0, 0, 0, 0, -0.24875588715076447, -5.891915321350098, 0.05726511403918266
16845, 0.07688755542039871, -0.08681067824363708, 0.08932255953550339, -0.010118142701685429, -0.10923760384321213, 0.15460732579231262, -0.0011214775731787086, -0.006329490803182125, 1.003100872039795, -0.24879013001918793, -5.9007344245910645, 0.05730997771024704, 0.0, 0.0, 0.0, 0, 0, 0, 0, 0, 0, -0.24879013001918793, -5.9007344245910645, 0.05730997771024704
16855, 0.07696820050477982, -0.08499446511268616, 0.08732332289218903, -0.048047713935375214, -0.2317572385072708, -0.22843337059020996, -0.0016137397615239024, -0.006746700499206781, 1.0018874406814575, -0.24882370233535767, -5.909560680389404, 0.0573553703725338, 0.0, 0.0, 0.0, 0, 0, 0, 0, 0, 0, -0.24882370233535767, -5.909560680389404, 0.0573553703725338
16865, 0.07771623879671097, -0.08507335931062698, 0.08821919560432434, 0.06734544783830643, 0.06449233740568161, 0.16386538743972778, -0.0008486078004352748, -0.005302418489009142, 1.0007156133651733, -0.2488570511341095, -5.918394565582275, 0.05740298703312874, 0.0, 0.0, 0.0, 0, 0, 0, 0, 0, 0, -0.2488570511341095, -5.918394565582275, 0.05740298703312874
16875, 0.07814980298280716, -0.08397991210222244, 0.08806242048740387, 0.04173982888460159, -0.17066355049610138, -0.09998006373643875, -0.0011295164003968239, -0.005644504446536303, 0.9995795488357544, -0.24888992309570312, -5.927236080169678, 0.05745211988687515, 0.0, 0.0, 0.0, 0, 0, 0, 0, 0, 0, -0.24888992309570312, -5.927236080169678, 0.05745211988687515
16885, 0.0782485082745552, -0.08346176892518997, 0.08880113065242767, 0.12807776033878326, 0.24851273000240326, 0.14745524525642395, -0.0019517975160852075, -0.004035384859889746, 0.9993630647659302, -0.2489222139120102, -5.936084270477295, 0.05750156193971634, 0.0, 0.0, 0.0, 0, 0, 0, 0, 0, 0, -0.2489222139120102, -5.936084270477295, 0.05750156193971634
16895, 0.07828151434659958, -0.08368666470050812, 0.09036380797624588, 0.08206905424594879, 0.14271773397922516, 0.17895184457302094, -0.003193221753463149, -0.0022058128379285336, 1.000545859336853, -0.24895451962947845, -5.944938659667969, 0.05755053088068962, 0.0, 0.0, 0.0, 0, 0, 0, 0, 0, 0, -0.24895451962947845, -5.944938659667969, 0.05755053088068962
16905, 0.07844732701778412, -0.08486019819974899, 0.09023300558328629, 0.05196007713675499, 0.17514529824256897, 0.029985183849930763, -0.0013627673033624887, -0.004211639054119587, 1.0001194477081299, -0.24898776412010193, -5.953797340393066, 0.0575992576777935, 0.0, 0.0, 0.0, 0, 0, 0, 0, 0, 0, -0.24898776412010193, -5.953797340393066, 0.0575992576777935
16915, 0.07926931977272034, -0.08409691601991653, 0.09034604579210281, -0.021588100120425224, -0.05876420810818672, -0.2869255244731903, -0.0009642777149565518, -0.005051211919635534, 1.0004591941833496, -0.2490217536687851, -5.962660789489746, 0.057648058980703354, 0.0, 0.0, 0.0, 0, 0, 0, 0, 0, 0, -0.2490217536687851, -5.962660789489746, 0.057648058980703354
16925, 0.07791353762149811, -0.0840950608253479, 0.08925727009773254, -0.1356588751077652, 0.06120714917778969, -0.19020704925060272, -0.00031211774330586195, -0.005549226887524128, 1.0016601085662842, -0.24905546009540558, -5.971529960632324, 0.05769716575741768, 0.0, 0.0, 0.0, 0, 0, 0, 0, 0, 0, -0.24905546009540558, -5.971529960632324, 0.05769716575741768
16935, 0.07775133848190308, -0.08497031033039093, 0.08702971041202545, 0.01761276088654995, 0.10977358371019363, -0.2291940301656723, -0.002173730870708823, -0.005835861898958683, 1.0002083778381348, -0.24908843636512756, -5.980405807495117, 0.05774731934070587, 0.0, 0.0, 0.0, 0, 0, 0, 0, 0, 0, -0.24908843636512756, -5.980405807495117, 0.05774731934070587
16945, 0.07884648442268372, -0.08509303629398346, 0.08713865280151367, 0.1557626873254776, -0.08892174810171127, 0.045552417635917664, -0.001141324988566339, -0.0061536976136267185, 1.000353455543518, -0.24912123382091522, -5.989288330078125, 0.05779827758669853, 0.0, 0.0, 0.0, 0, 0, 0, 0, 0, 0, -0.24912123382091522, -5.989288330078125, 0.05779827758669853
16955, 0.07755377143621445, -0.0847739428281784, 0.08692459017038345, -0.2121983766555786, -0.09232823550701141, 0.038591474294662476, -0.0008035784121602774, -0.007019857410341501, 0.9968810677528381, -0.24915407598018646, -5.998178005218506, 0.05784938111901283, 0.0, 0.0, 0.0, 0, 0, 0, 0, 0, 0, -0.24915407598018646, -5.998178005218506, 0.05784938111901283
16965, 0.07751864194869995, -0.08551899343729019, 0.08675208687782288, 0.06109222024679184, 0.07252788543701172, 0.07203728705644608, -0.002774203196167946, -0.005819698795676231, 0.9971741437911987, -0.2491864413022995, -6.007075786590576, 0.05789927765727043, 0.0, 0.0, 0.0, 0, 0, 0, 0, 0, 0, -0.2491864413022995, -6.007075786590576, 0.05789927765727043
16975, 0.07694651931524277, -0.08739805966615677, 0.0867718756198883, -0.0675627589225769, 0.20600402355194092, -0.09269469231367111, -0.002838678425177932, -0.004376942291855812, 1.0014100074768066, -0.2492191046476364, -6.015981197357178, 0.05794660747051239, 0.0, 0.0, 0.0, 0, 0, 0, 0, 0, 0, -0.2492191046476364, -6.015981197357178, 0.05794660747051239
16985, 0.07767399400472641, -0.08866561204195023, 0.08869008719921112, 0.17108018696308136, 0.12061352282762527, 0.3419390916824341, -0.0012640218483284116, -0.0057716150768101215, 0.9996258616447449, -0.24925300478935242, -6.024893283843994, 0.057993076741695404, 0.0, 0.0, 0.0, 0, 0, 0, 0, 0, 0, -0.24925300478935242, -6.024893283843994, 0.057993076741695404
16995, 0.07740398496389389, -0.08801422268152237, 0.08770155906677246, 0.10451687127351761, -0.14962463080883026, -0.15685735642910004, -0.0006153846625238657, -0.004006005357950926, 1.001746654510498, -0.2492874264717102, -6.033811569213867, 0.05804008990526199, 0.0, 0.0, 0.0, 0, 0, 0, 0, 0, 0, -0.2492874264717102, -6.033811569213867, 0.05804008990526199
17005, 0.07684795558452606, -0.08793669193983078, 0.08713129162788391, -0.04566015303134918, 0.09756720066070557, -0.023882947862148285, -0.0018380009569227695, -0.005366450175642967, 1.0007259845733643, -0.24932126700878143, -6.042735576629639, 0.05808784067630768, 0.0, 0.0, 0.0, 0, 0, 0, 0, 0, 0, -0.24932126700878143, -6.042735576629639, 0.05808784067630768
17015, 0.07658948004245758, -0.08490338921546936, 0.08665910363197327, 0.061467014253139496, -0.3447726368904114, 0.08189186453819275, -0.002324615605175495, -0.007035206072032452, 1.0001736879348755, -0.2493547648191452, -6.051665782928467, 0.05813658982515335, 0.0, 0.0, 0.0, 0, 0, 0, 0, 0, 0, -0.2493547648191452, -6.051665782928467, 0.05813658982515335
17025, 0.07650459557771683, -0.0856364369392395, 0.08695148676633835, -0.06884001195430756, 0.2701576054096222, -0.07099239528179169, -0.0018556140130385756, -0.007624408230185509, 1.0004308223724365, -0.24938887357711792, -6.060603141784668, 0.058185845613479614, 0.0, 0.0, 0.0, 0, 0, 0, 0, 0, 0, -0.24938887357711792, -6.060603141784668, 0.058185845613479614
17035, 0.07726999372243881, -0.08541487902402878, 0.08739817887544632, 0.14490851759910583, -0.07602297514677048, -0.08266716450452805, -0.0007904503727331758, -0.005662924610078335, 0.9992988109588623, -0.24942371249198914, -6.069549083709717, 0.058235347270965576, 0.0, 0.0, 0.0, 0, 0, 0, 0, 0, 0, -0.24942371249198914, -6.069549083709717, 0.058235347270965576
17045, 0.07868631929159164, -0.08548381179571152, 0.08763042092323303, 0.10584791004657745, 0.08578991889953613, -0.06869827210903168, 0.0016997822094708681, -0.0053121913224458694, 1.001373291015625, -0.24945838749408722, -6.078503131866455, 0.058284834027290344, 0.0, 0.0, 0.0, 0, 0, 0, 0, 0, 0, -0.24945838749408722, -6.078503131866455, 0.058284834027290344
17055, 0.0792379379272461, -0.08385936170816422, 0.08879783749580383, -0.0031579702626913786, -0.17140285670757294, 0.13194617629051208, -0.0011668624356389046, -0.0046330587938427925, 0.9998964667320251, -0.24949122965335846, -6.087463855743408, 0.058334823697805405, 0.0, 0.0, 0.0, 0, 0, 0, 0, 0, 0, -0.24949122965335846, -6.087463855743408, 0.058334823697805405
17065, 0.07949972152709961, -0.08473773300647736, 0.08814802765846252, 0.06747923046350479, 0.1511618196964264, -0.1187339797616005, -0.0024012390058487654, -0.004819071851670742, 0.9999642372131348, -0.24952247738838196, -6.096430778503418, 0.058385368436574936, 0.0, 0.0, 0.0, 0, 0, 0, 0, 0, 0, -0.24952247738838196, -6.096430778503418, 0.058385368436574936
17075, 0.07871707528829575, -0.08420273661613464, 0.08910699188709259, -0.16501198709011078, 0.021777499467134476, 0.24726493656635284, -0.003109903074800968, -0.005366356112062931, 1.0005979537963867, -0.2495540976524353, -6.105403900146484, 0.058435868471860886, 0.0, 0.0, 0.0, 0, 0, 0, 0, 0, 0, -0.2495540976524353, -6.105403900146484, 0.058435868471860886
17085, 0.07924849539995193, -0.08345463126897812, 0.08855189383029938, 0.028139261528849602, 0.08372728526592255, -0.022648805752396584, -0.0002776484179776162, -0.0060684350319206715, 1.0010905265808105, -0.24958688020706177, -6.114383220672607, 0.05848666653037071, 0.0, 0.0, 0.0, 0, 0, 0, 0, 0, 0, -0.24958688020706177, -6.114383220672607, 0.05848666653037071
17095, 0.08009368926286697, -0.08243333548307419, 0.08820351958274841, 0.061882175505161285, -0.1262321025133133, 0.1339971274137497, -0.0011088259052485228, -0.005782206077128649, 1.0000145435333252, -0.24961984157562256, -6.123369216918945, 0.05853839963674545, 0.0, 0.0, 0.0, 0, 0, 0, 0, 0, 0, -0.24961984157562256, -6.123369216918945, 0.05853839963674545
17105, 0.07930699735879898, -0.0834008976817131, 0.08885087072849274, -0.13749809563159943, 0.08248291909694672, 0.0613957904279232, -0.0014196367701515555, -0.008332080207765102, 0.9988085627555847, -0.24965204298496246, -6.1323628425598145, 0.05859098583459854, 0.0, 0.0, 0.0, 0, 0, 0, 0, 0, 0, -0.24965204298496246, -6.1323628425598145, 0.05859098583459854
17115, 0.07921355217695236, -0.08211807906627655, 0.08773890137672424, -0.03485168516635895, -0.2585875391960144, -0.09571804851293564, -0.0010501411743462086, -0.008218446746468544, 0.9986535906791687, -0.24968397617340088, -6.141364574432373, 0.05864328145980835, 0.0, 0.0, 0.0, 0, 0, 0, 0, 0, 0, -0.24968397617340088, -6.141364574432373, 0.05864328145980835
17125, 0.07998650521039963, -0.08233746141195297, 0.08886052668094635, 0.012763752602040768, 0.028086353093385696, 0.20813778042793274, -0.0011049547465518117, -0.0073892297223210335, 0.9995376467704773, -0.24971574544906616, -6.150375843048096, 0.0586945116519928, 0.0, 0.0, 0.0, 0, 0, 0, 0, 0, 0, -0.24971574544906616, -6.150375843048096, 0.0586945116519928
17135, 0.08099056780338287, -0.0851559042930603, 0.09022638201713562, 0.1964699774980545, 0.19777502119541168, 0.38723286986351013, -0.0015401566633954644, -0.006941969972103834, 1.0002886056900024, -0.24974723160266876, -6.159396171569824, 0.058744803071022034, 0.0, 0.0, 0.0, 0, 0, 0, 0, 0, 0, -0.24974723160266876, -6.159396171569824, 0.058744803071022034
17145, 0.0808757022023201, -0.08533414453268051, 0.09015540033578873, 0.04551323875784874, -0.15266263484954834, -0.09197361767292023, -0.0004087573033757508, -0.006054018158465624, 1.0003955364227295, -0.24977867305278778, -6.168424606323242, 0.058794938027858734, 0.0, 0.0, 0.0, 0, 0, 0, 0, 0, 0, -0.24977867305278778, -6.168424606323242, 0.058794938027858734
17155, 0.08111263066530228, -0.08436926454305649, 0.09097626060247421, 0.022665489464998245, -0.17261815071105957, 0.017710935324430466, -0.002361853141337633, -0.007305272854864597, 0.9980757832527161, -0.2498096078634262, -6.177460670471191, 0.05884519964456558, 0.0, 0.0, 0.0, 0, 0, 0, 0, 0, 0, -0.2498096078634262, -6.177460670471191, 0.05884519964456558
17165, 0.08076535910367966, -0.08505316823720932, 0.09188180416822433, -0.0486556813120842, 0.16840018332004547, -0.0783410370349884, -0.000994309550151229, -0.007134541869163513, 1.0027353763580322, -0.24984021484851837, -6.18650484085083, 0.05889465659856796, 0.0, 0.0, 0.0, 0, 0, 0, 0, 0, 0, -0.24984021484851837, -6.18650484085083, 0.05889465659856796
17175, 0.08064135909080505, -0.08244902640581131, 0.09148992598056793, 0.0035113906487822533, -0.398627370595932, -0.10438977181911469, 0.0001275919348699972, -0.0066695078276097775, 1.0021973848342896, -0.24987086653709412, -6.195557117462158, 0.05894464626908302, 0.0, 0.0, 0.0, 0, 0, 0, 0, 0, 0, -0.24987086653709412, -6.195557117462158, 0.05894464626908302
17185, 0.08104006201028824, -0.08381660282611847, 0.09045122563838959, 0.043058186769485474, 0.1469912976026535, -0.08272545039653778, -0.0010543641401454806, -0.005766545422375202, 1.0011085271835327, -0.24990075826644897, -6.204617500305176, 0.058997079730033875, 0.0, 0.0, 0.0, 0, 0, 0, 0, 0, 0, -0.24990075826644897, -6.204617500305176, 0.058997079730033875
17195, 0.0796244814991951, -0.08446792513132095, 0.09100299328565598, -0.0810481607913971, -0.0931398943066597, 0.11577258259057999, -0.0022893392015248537, -0.006441713776439428, 1.0012296438217163, -0.24992987513542175, -6.213685512542725, 0.059051238000392914, 0.0, 0.0, 0.0, 0, 0, 0, 0, 0, 0, -0.24992987513542175, -6.213685512542725, 0.059051238000392914
17205, 0.08033867925405502, -0.08530749380588531, 0.09215640276670456, 0.270028293132782, 0.038578446954488754, 0.006101065315306187, -0.0031065200455486774, -0.0041866903193295, 1.0008665323257446, -0.2499592900276184, -6.2227606773376465, 0.05910655856132507, 0.0, 0.0, 0.0, 0, 0, 0, 0, 0, 0, -0.2499592900276184, -6.2227606773376465, 0.05910655856132507
17215, 0.07977329939603806, -0.0877174511551857, 0.09177377820014954, -0.04785632714629173, 0.2171211540699005, 0.005715303588658571, -0.0025138831697404385, -0.005572812166064978, 1.000434398651123, -0.24998989701271057, -6.231842517852783, 0.059162892401218414, 0.0, 0.0, 0.0, 0, 0, 0, 0, 0, 0, -0.24998989701271057, -6.231842517852783, 0.059162892401218414
17225, 0.07939961552619934, -0.08644521981477737, 0.09230399876832962, -0.056601282209157944, -0.25085100531578064, 0.1668032705783844, -0.0033601794857531786, -0.00642217556014657, 0.9989204406738281, -0.25002169609069824, -6.240930557250977, 0.059219811111688614, 0.0, 0.0, 0.0, 0, 0, 0, 0, 0, 0, -0.25002169609069824, -6.240930557250977, 0.059219811111688614
17235, 0.07969047129154205, -0.08649839460849762, 0.09159179776906967, -0.04818274453282356, 0.039543427526950836, -0.13689209520816803, -0.002063036896288395, -0.004887203685939312, 0.9991431832313538, -0.25005465745925903, -6.250025749206543, 0.05927645042538643, 0.0, 0.0, 0.0, 0, 0, 0, 0, 0, 0, -0.25005465745925903, -6.250025749206543, 0.05927645042538643
17245, 0.07890880107879639, -0.08653859049081802, 0.0916045755147934, -0.19263316690921783, 0.06809523701667786, -0.08015415072441101, -0.002699275966733694, -0.004669179208576679, 1.002086877822876, -0.2500886917114258, -6.259127616882324, 0.05933232232928276, 0.0, 0.0, 0.0, 0, 0, 0, 0, 0, 0, -0.2500886917114258, -6.259127616882324, 0.05933232232928276
17255, 0.07811816036701202, -0.08430052548646927, 0.09304220229387283, -0.15482906997203827, -0.36601123213768005, 0.0682976022362709, -0.0018834713846445084, -0.007055994123220444, 1.0024358034133911, -0.25012364983558655, -6.268235683441162, 0.05938868224620819, 0.0, 0.0, 0.0, 0, 0, 0, 0, 0, 0, -0.25012364983558655, -6.268235683441162, 0.05938868224620819
17265, 0.07772380858659744, -0.08614328503608704, 0.0936649888753891, -0.034979335963726044, 0.1472853273153305, -0.0503680445253849, 0.0011794068850576878, -0.006710334215313196, 1.0009104013442993, -0.25015929341316223, -6.277350902557373, 0.059446875005960464, 0.0, 0.0, 0.0, 0, 0, 0, 0, 0, 0, -0.25015929341316223, -6.277350902557373, 0.059446875005960464
17275, 0.07674942910671234, -0.08792533725500107, 0.09379852563142776, -0.06811822950839996, 0.09766585379838943, 0.02071194164454937, 6.548356759594753e-05, -0.0063455915078520775, 0.9996816515922546, -0.25019389390945435, -6.286473751068115, 0.059506651014089584, 0.0, 0.0, 0.0, 0, 0, 0, 0, 0, 0, -0.25019389390945435, -6.286473751068115, 0.059506651014089584
17285, 0.07730535417795181, -0.08816636353731155, 0.09381653368473053, 0.14859867095947266, 0.017929542809724808, -0.035025861114263535, -0.0006944345659576356, -0.005180823151022196, 0.9990209937095642, -0.25022658705711365, -6.295604705810547, 0.05956683307886124, 0.0, 0.0, 0.0, 0, 0, 0, 0, 0, 0, -0.25022658705711365, -6.295604705810547, 0.05956683307886124
17295, 0.076786108314991, -0.0910361111164093, 0.09257145971059799, -0.1589813381433487, 0.382993221282959, -0.27782946825027466, -0.000886294525116682, -0.006631067954003811, 1.0003035068511963, -0.25025802850723267, -6.304742336273193, 0.05962652713060379, 0.0, 0.0, 0.0, 0, 0, 0, 0, 0, 0, -0.25025802850723267, -6.304742336273193, 0.05962652713060379
