timeTick, roll, pitch, yaw, gyroX, gyroY, gyroZ, accX, accY, accZ, stateX, stateY, stateZ, target_x, target_y, target_z, otX, otY, otZ, otRoll, otPitch, otYaw, kalX, kalY, kalZ
10365, 0.015500531531870365, -0.010696947574615479, 0.11284002661705017, 0, 0, 0, 0, 0, 0, 0, 0, 0, 0, 0, 0, 0, 0, 0, 0, 0, 0, 0, 0, 0
10375, 0.014544081874191761, -0.010803543962538242, 0.11196811497211456, -0.05517667531967163, -0.06120052561163902, -0.11418808996677399, -0.003771577961742878, -0.005739463958889246, 0.9991953372955322, -0.5044425129890442, -1.398013949394226, -0.11572480201721191, 0.0, 0.0, 0.0, 0, 0, 0, 0, 0, 0, -0.5044425129890442, -1.398013949394226, -0.11572480201721191
10385, 0.014859587885439396, -0.01145162433385849, 0.11314594745635986, 0.06826800853013992, 0.06321996450424194, 0.23222161829471588, -0.0023577993270009756, -0.005534054711461067, 0.9989874958992004, -0.5058490633964539, -1.4019553661346436, -0.11602966487407684, 0.0, 0.0, 0.0, 0, 0, 0, 0, 0, 0, -0.5058490633964539, -1.4019553661346436, -0.11602966487407684
10395, 0.01563102938234806, -0.01198634784668684, 0.11325518786907196, 0.042459554970264435, 0.10023345053195953, -0.10526100546121597, -0.002170565305277705, -0.004495281260460615, 0.9993746876716614, -0.5072585940361023, -1.4059022665023804, -0.11633505672216415, 0.0, 0.0, 0.0, 0, 0, 0, 0, 0, 0, -0.5072585940361023, -1.4059022665023804, -0.11633505672216415
10405, 0.01622517593204975, -0.013325436972081661, 0.11472586542367935, 0.010942335240542889, 0.09551145881414413, 0.008651917800307274, -0.001010065316222608, -0.006931433919817209, 0.9994707107543945, -0.5086702704429626, -1.4098546504974365, -0.11664130538702011, 0.0, 0.0, 0.0, 0, 0, 0, 0, 0, 0, -0.5086702704429626, -1.4098546504974365, -0.11664130538702011
10415, 0.016177332028746605, -0.011011157184839249, 0.11380945891141891, -0.051993317902088165, -0.3866215646266937, -0.1510721743106842, -0.001601516967639327, -0.006030796095728874, 1.0006095170974731, -0.5100833177566528, -1.4138126373291016, -0.1169482171535492, 0.0, 0.0, 0.0, 0, 0, 0, 0, 0, 0, -0.5100833177566528, -1.4138126373291016, -0.1169482171535492
10425, 0.015338363125920296, -0.011283572763204575, 0.11314873397350311, -0.09894022345542908, 0.17890051007270813, -0.2466326355934143, -0.002634048229083419, -0.005245896056294441, 0.9996745586395264, -0.511497437953949, -1.4177769422531128, -0.11725557595491409, 0.0, 0.0, 0.0, 0, 0, 0, 0, 0, 0, -0.511497437953949, -1.4177769422531128, -0.11725557595491409
10435, 0.014982407912611961, -0.009318097494542599, 0.11268306523561478, 0.0001438498729839921, -0.33116796612739563, 0.07999026775360107, -0.0036716549657285213, -0.004997829906642437, 0.9989091753959656, -0.5129135251045227, -1.421747088432312, -0.11756295710802078, 0.0, 0.0, 0.0, 0, 0, 0, 0, 0, 0, -0.5129135251045227, -1.421747088432312, -0.11756295710802078
10445, 0.01595732755959034, -0.011189610697329044, 0.11229807883501053, 0.09697185456752777, 0.20728707313537598, -0.05751887336373329, -0.00164738018065691, -0.007201178465038538, 0.9981029033660889, -0.51433265209198, -1.425722599029541, -0.11787068843841553, 0.0, 0.0, 0.0, 0, 0, 0, 0, 0, 0, -0.51433265209198, -1.425722599029541, -0.11787068843841553
10455, 0.01726580411195755, -0.011853046715259552, 0.1128043457865715, 0.06124558672308922, 0.06892392784357071, 0.05678771808743477, 0.0005903844721615314, -0.004369083791971207, 0.9991457462310791, -0.515754759311676, -1.4297040700912476, -0.11817970126867294, 0.0, 0.0, 0.0, 0, 0, 0, 0, 0, 0, -0.515754759311676, -1.4297040700912476, -0.11817970126867294
10465, 0.01780642755329609, -0.014696203172206879, 0.11384429037570953, 0.04202466458082199, 0.27039775252342224, -0.0016686427406966686, -0.0026433097664266825, -0.006917604245245457, 1.0010154247283936, -0.5171775221824646, -1.433691382408142, -0.11849000304937363, 0.0, 0.0, 0.0, 0, 0, 0, 0, 0, 0, -0.5171775221824646, -1.433691382408142, -0.11849000304937363
10475, 0.0170641727745533, -0.01642773114144802, 0.11493002623319626, -0.25441786646842957, 0.3958219587802887, -0.06329533457756042, -0.0050926823168993, -0.007384424563497305, 0.9986546039581299, -0.5186005234718323, -1.4376842975616455, -0.11880064010620117, 0.0, 0.0, 0.0, 0, 0, 0, 0, 0, 0, -0.5186005234718323, -1.4376842975616455, -0.11880064010620117
10485, 0.017165444791316986, -0.016516713425517082, 0.1145542562007904, -0.07800281047821045, -0.0019846679642796516, -0.06339424848556519, -0.0032622346188873053, -0.005469919182360172, 0.9990270137786865, -0.5200265645980835, -1.4416842460632324, -0.11911141872406006, 0.0, 0.0, 0.0, 0, 0, 0, 0, 0, 0, -0.5200265645980835, -1.4416842460632324, -0.11911141872406006
10495, 0.017710193991661072, -0.01607964187860489, 0.11407067626714706, 0.06303424388170242, 0.09652835130691528, -0.08679482340812683, -0.002738636452704668, -0.006135878618806601, 0.9999781250953674, -0.5214564204216003, -1.4456912279129028, -0.11942298710346222, 0.0, 0.0, 0.0, 0, 0, 0, 0, 0, 0, -0.5214564204216003, -1.4456912279129028, -0.11942298710346222
10505, 0.017711292952299118, -0.016637710854411125, 0.1141144186258316, -0.0015540758613497019, 0.023978551849722862, -0.017992263659834862, -0.002561687957495451, -0.005188066512346268, 0.9990890622138977, -0.5228890180587769, -1.4497042894363403, -0.11973518878221512, 0.0, 0.0, 0.0, 0, 0, 0, 0, 0, 0, -0.5228890180587769, -1.4497042894363403, -0.11973518878221512
10515, 0.016896096989512444, -0.016227340325713158, 0.11319705098867416, -0.1396251916885376, 0.0860510915517807, -0.025537461042404175, -0.0032540953252464533, -0.004995162133127451, 0.9986627101898193, -0.5243238806724548, -1.4537230730056763, -0.12004761397838593, 0.0, 0.0, 0.0, 0, 0, 0, 0, 0, 0, -0.5243238806724548, -1.4537230730056763, -0.12004761397838593
10525, 0.016972249373793602, -0.014053025282919407, 0.11218595504760742, 0.1673033982515335, -0.2577580213546753, 0.055435456335544586, -0.001802391605451703, -0.004787167068570852, 0.9989875555038452, -0.525761067867279, -1.457747220993042, -0.12036082148551941, 0.0, 0.0, 0.0, 0, 0, 0, 0, 0, 0, -0.525761067867279, -1.457747220993042, -0.12036082148551941
10535, 0.016586074605584145, -0.016404006630182266, 0.1107310950756073, -0.10702832043170929, 0.2587857246398926, -0.11708676069974899, -0.0019488792167976499, -0.005681569222360849, 1.0004284381866455, -0.52720046043396, -1.4617764949798584, -0.12067515403032303, 0.0, 0.0, 0.0, 0, 0, 0, 0, 0, 0, -0.52720046043396, -1.4617764949798584, -0.12067515403032303
10545, 0.015392557717859745, -0.017486995086073875, 0.1094406321644783, -0.15450817346572876, 0.021783996373414993, -0.1448604315519333, -0.0015305752167478204, -0.006555822677910328, 0.9984143376350403, -0.528641939163208, -1.465811014175415, -0.1209898367524147, 0.0, 0.0, 0.0, 0, 0, 0, 0, 0, 0, -0.528641939163208, -1.465811014175415, -0.1209898367524147
10555, 0.01595214009284973, -0.018346032127738, 0.10846125334501266, 0.025191936641931534, 0.10062636435031891, -0.25432461500167847, -0.004317501559853554, -0.006508989259600639, 0.9981140494346619, -0.5300850868225098, -1.4698514938354492, -0.1213049665093422, 0.0, 0.0, 0.0, 0, 0, 0, 0, 0, 0, -0.5300850868225098, -1.4698514938354492, -0.1213049665093422
10565, 0.016381049528717995, -0.018841587007045746, 0.1106661930680275, 0.02241847664117813, 0.0770224928855896, 0.3950340449810028, -0.0035737408325076103, -0.0061014192178845406, 0.9978089928627014, -0.5315304398536682, -1.4738985300064087, -0.12162143737077713, 0.0, 0.0, 0.0, 0, 0, 0, 0, 0, 0, -0.5315304398536682, -1.4738985300064087, -0.12162143737077713
10575, 0.016174059361219406, -0.019003024324774742, 0.11048374325037003, -0.060392774641513824, 0.07654356956481934, 0.06043796241283417, -0.002642085077241063, -0.0051879556849598885, 0.999489963054657, -0.5329789519309998, -1.4779521226882935, -0.1219395101070404, 0.0, 0.0, 0.0, 0, 0, 0, 0, 0, 0, -0.5329789519309998, -1.4779521226882935, -0.1219395101070404
10585, 0.01648498699069023, -0.018968036398291588, 0.11061081290245056, 0.07081221789121628, -0.07728520780801773, -0.0020714954007416964, -0.0025409141089767218, -0.005590254440903664, 1.0014203786849976, -0.5344301462173462, -1.4820117950439453, -0.12225900590419769, 0.0, 0.0, 0.0, 0, 0, 0, 0, 0, 0, -0.5344301462173462, -1.4820117950439453, -0.12225900590419769
10595, 0.016277754679322243, -0.017994411289691925, 0.11091242730617523, 0.025311553850769997, -0.11480853706598282, 0.15443478524684906, -0.0028515912126749754, -0.0063980030827224255, 0.9982864260673523, -0.5358836054801941, -1.486076831817627, -0.1225787103176117, 0.0, 0.0, 0.0, 0, 0, 0, 0, 0, 0, -0.5358836054801941, -1.486076831817627, -0.1225787103176117
10605, 0.017300913110375404, -0.019784165546298027, 0.110816091299057, 0.23400132358074188, 0.3087528944015503, 0.016559431329369545, -0.0016109145944938064, -0.003751881653442979, 0.9995752573013306, -0.5373395085334778, -1.490147590637207, -0.12289823591709137, 0.0, 0.0, 0.0, 0, 0, 0, 0, 0, 0, -0.5373395085334778, -1.490147590637207, -0.12289823591709137
10615, 0.017137743532657623, -0.021416202187538147, 0.11127321422100067, -0.14132823050022125, 0.22230343520641327, 0.03964592516422272, -0.0013358114520087838, -0.0023041823878884315, 1.0005085468292236, -0.5387974977493286, -1.494223713874817, -0.12321864813566208, 0.0, 0.0, 0.0, 0, 0, 0, 0, 0, 0, -0.5387974977493286, -1.494223713874817, -0.12321864813566208
10625, 0.017713768407702446, -0.021655865013599396, 0.11052568256855011, 0.009161122143268585, 0.07165468484163284, -0.03720200061798096, -0.0019679302349686623, -0.0044456166215240955, 0.9995089173316956, -0.5402565598487854, -1.4983034133911133, -0.12353944778442383, 0.0, 0.0, 0.0, 0, 0, 0, 0, 0, 0, -0.5402565598487854, -1.4983034133911133, -0.12353944778442383
10635, 0.01701464131474495, -0.021040303632616997, 0.10974300652742386, -0.1172894835472107, 0.07526437193155289, -0.18898987770080566, -0.0018193982541561127, -0.005298358853906393, 0.9979835748672485, -0.5417166352272034, -1.5023865699768066, -0.12386006116867065, 0.0, 0.0, 0.0, 0, 0, 0, 0, 0, 0, -0.5417166352272034, -1.5023865699768066, -0.12386006116867065
10645, 0.017914606258273125, -0.021087123081088066, 0.10928250104188919, 0.03360361605882645, -0.013328693807125092, 0.030271803960204124, -0.0011707022786140442, -0.0062892138957977295, 0.999407172203064, -0.5431782603263855, -1.5064747333526611, -0.12418164312839508, 0.0, 0.0, 0.0, 0, 0, 0, 0, 0, 0, -0.5431782603263855, -1.5064747333526611, -0.12418164312839508
10655, 0.017807386815547943, -0.022105352953076363, 0.10867315530776978, 0.05083821713924408, 0.16306130588054657, -0.0008091838681139052, -0.0016971913864836097, -0.0061989957466721535, 0.9987894296646118, -0.544641375541687, -1.5105688571929932, -0.12450442463159561, 0.0, 0.0, 0.0, 0, 0, 0, 0, 0, 0, -0.544641375541687, -1.5105688571929932, -0.12450442463159561
10665, 0.017484327778220177, -0.022131390869617462, 0.10956746339797974, -0.056815918534994125, -0.02058635652065277, 0.10041892528533936, -0.0020302324555814266, -0.00663079833611846, 0.999911367893219, -0.5461055040359497, -1.5146690607070923, -0.12482789158821106, 0.0, 0.0, 0.0, 0, 0, 0, 0, 0, 0, -0.5461055040359497, -1.5146690607070923, -0.12482789158821106
10675, 0.018019331619143486, -0.02275487221777439, 0.10992933064699173, 0.1331651657819748, 0.0642070546746254, -0.04084637388586998, -0.002357127610594034, -0.004601561464369297, 0.9983496069908142, -0.5475710034370422, -1.5187758207321167, -0.12515215575695038, 0.0, 0.0, 0.0, 0, 0, 0, 0, 0, 0, -0.5475710034370422, -1.5187758207321167, -0.12515215575695038
10685, 0.018871532753109932, -0.02652144618332386, 0.1104394719004631, 0.22352974116802216, 0.4767996668815613, 0.1649499535560608, -0.0026757114101201296, -0.0037995646707713604, 0.9986574053764343, -0.5490382313728333, -1.5228886604309082, -0.12547732889652252, 0.0, 0.0, 0.0, 0, 0, 0, 0, 0, 0, -0.5490382313728333, -1.5228886604309082, -0.12547732889652252
10695, 0.016884563490748405, -0.027778849005699158, 0.10901297628879547, -0.27469319105148315, 0.03278389573097229, -0.2273823469877243, -0.003152603982016444, -0.005817065946757793, 1.001349687576294, -0.5505072474479675, -1.527005910873413, -0.12580399215221405, 0.0, 0.0, 0.0, 0, 0, 0, 0, 0, 0, -0.5505072474479675, -1.527005910873413, -0.12580399215221405
10705, 0.016958536580204964, -0.02752295695245266, 0.1085340678691864, 0.03914887458086014, -0.13729655742645264, -0.1309492439031601, -0.0005619619623757899, -0.005226610228419304, 1.0009868144989014, -0.5519786477088928, -1.5311279296875, -0.12613143026828766, 0.0, 0.0, 0.0, 0, 0, 0, 0, 0, 0, -0.5519786477088928, -1.5311279296875, -0.12613143026828766
10715, 0.017905939370393753, -0.028358787298202515, 0.10955221951007843, 0.12608033418655396, -0.07587911188602448, 0.2354486733675003, -0.002426292048767209, -0.005107466131448746, 0.9998655319213867, -0.5534517765045166, -1.5352553129196167, -0.1264580488204956, 0.0, 0.0, 0.0, 0, 0, 0, 0, 0, 0, -0.5534517765045166, -1.5352553129196167, -0.1264580488204956
10725, 0.017014851793646812, -0.02808360941708088, 0.10945024341344833, 0.02208935283124447, -0.1076989471912384, 0.2214471995830536, -0.002120046177878976, -0.004998760297894478, 1.0016485452651978, -0.5549259185791016, -1.5393881797790527, -0.12678402662277222, 0.0, 0.0, 0.0, 0, 0, 0, 0, 0, 0, -0.5549259185791016, -1.5393881797790527, -0.12678402662277222
10735, 0.016701973974704742, -0.028653455898165703, 0.10856422036886215, 0.041414156556129456, 0.0428629070520401, -0.07453107088804245, -0.001617475412786007, -0.005978288594633341, 0.9994650483131409, -0.5564015507698059, -1.543526291847229, -0.12710942327976227, 0.0, 0.0, 0.0, 0, 0, 0, 0, 0, 0, -0.5564015507698059, -1.543526291847229, -0.12710942327976227
10745, 0.016093522310256958, -0.028367888182401657, 0.11056365072727203, -0.04838082939386368, 0.028562812134623528, 0.19736498594284058, -0.0036499756388366222, -0.0041303373873233795, 0.9980769753456116, -0.5578787326812744, -1.5476701259613037, -0.12743420898914337, 0.0, 0.0, 0.0, 0, 0, 0, 0, 0, 0, -0.5578787326812744, -1.5476701259613037, -0.12743420898914337
10755, 0.017227720469236374, -0.026152098551392555, 0.11115662753582001, 0.16192832589149475, -0.003223394975066185, -0.004056587815284729, -0.003462535096332431, -0.0036937682889401913, 0.9986048340797424, -0.559357762336731, -1.5518195629119873, -0.12776000797748566, 0.0, 0.0, 0.0, 0, 0, 0, 0, 0, 0, -0.559357762336731, -1.5518195629119873, -0.12776000797748566
10765, 0.01644594967365265, -0.027616847306489944, 0.1123894527554512, -0.05290162190794945, 0.05978918820619583, 0.12436744570732117, -0.003936950583010912, -0.006021419074386358, 0.9999768137931824, -0.5608393549919128, -1.5559732913970947, -0.1280875951051712, 0.0, 0.0, 0.0, 0, 0, 0, 0, 0, 0, -0.5608393549919128, -1.5559732913970947, -0.1280875951051712
10775, 0.015747299417853355, -0.027697429060935974, 0.11324180662631989, -0.05650700256228447, -0.05666996166110039, 0.31061264872550964, -0.0034504972863942385, -0.0034537040628492832, 0.9985623359680176, -0.562324047088623, -1.5601317882537842, -0.12841591238975525, 0.0, 0.0, 0.0, 0, 0, 0, 0, 0, 0, -0.562324047088623, -1.5601317882537842, -0.12841591238975525
10785, 0.015614091418683529, -0.029132353141903877, 0.11386261880397797, -0.03551599755883217, 0.15243886411190033, 0.056479956954717636, -0.0009651854052208364, -0.0012885307660326362, 1.001082420349121, -0.5638119578361511, -1.5642954111099243, -0.1287449449300766, 0.0, 0.0, 0.0, 0, 0, 0, 0, 0, 0, -0.5638119578361511, -1.5642954111099243, -0.1287449449300766
10795, 0.015198897570371628, -0.028351740911602974, 0.11411172151565552, 0.015036093071103096, -0.1027187630534172, -0.10035235434770584, -0.00041011415305547416, -0.00458926148712635, 1.000307321548462, -0.5653020739555359, -1.5684623718261719, -0.12907454371452332, 0.0, 0.0, 0.0, 0, 0, 0, 0, 0, 0, -0.5653020739555359, -1.5684623718261719, -0.12907454371452332
10805, 0.016005834564566612, -0.02778230421245098, 0.11584459245204926, 0.09437357634305954, -0.024432163685560226, 0.22905202209949493, -1.4034061678103171e-05, -0.00817787554115057, 1.0014793872833252, -0.5667930841445923, -1.5726319551467896, -0.12940378487110138, 0.0, 0.0, 0.0, 0, 0, 0, 0, 0, 0, -0.5667930841445923, -1.5726319551467896, -0.12940378487110138
10815, 0.016038499772548676, -0.025788698345422745, 0.11454648524522781, 0.08154427260160446, -0.1989527940750122, -0.2702992260456085, -0.002222000155597925, -0.00670517235994339, 1.0012344121932983, -0.5682840347290039, -1.5768071413040161, -0.12973244488239288, 0.0, 0.0, 0.0, 0, 0, 0, 0, 0, 0, -0.5682840347290039, -1.5768071413040161, -0.12973244488239288
10825, 0.015951398760080338, -0.025942552834749222, 0.11505543440580368, 0.09084994345903397, 0.07325131446123123, 0.3189908564090729, -0.0027921092696487904, -0.005101561080664396, 0.9984189867973328, -0.5697753429412842, -1.5809897184371948, -0.1300598829984665, 0.0, 0.0, 0.0, 0, 0, 0, 0, 0, 0, -0.5697753429412842, -1.5809897184371948, -0.1300598829984665
10835, 0.01647745445370674, -0.025693831965327263, 0.11668644845485687, 0.015556653961539268, -0.10490526258945465, 0.17479145526885986, 0.0006187723483890295, -0.00414299825206399, 0.999685525894165, -0.5712684988975525, -1.5851788520812988, -0.13038693368434906, 0.0, 0.0, 0.0, 0, 0, 0, 0, 0, 0, -0.5712684988975525, -1.5851788520812988, -0.13038693368434906
10845, 0.017148708924651146, -0.025114502757787704, 0.1178109273314476, 0.004021016880869865, 0.0162590891122818, 0.11753017455339432, -0.0007455855957232416, -0.003956126049160957, 0.9995547533035278, -0.5727629661560059, -1.589373230934143, -0.1307148039340973, 0.0, 0.0, 0.0, 0, 0, 0, 0, 0, 0, -0.5742573738098145, -1.5935720205307007, -0.13104337453842163
10855, 0.016121748834848404, -0.024514537304639816, 0.11752679198980331, -0.014598307199776173, -0.16168425977230072, -0.06994036585092545, -0.0011974863009527326, -0.005041580181568861, 0.9994899034500122, -0.5742573738098145, -1.5935720205307007, -0.13104337453842163, 0.0, 0.0, 0.0, 0, 0, 0, 0, 0, 0, -0.5757521390914917, -1.5977753400802612, -0.13137243688106537
10865, 0.013397766277194023, -0.027189208194613457, 0.11832623183727264, -0.2513415515422821, 0.37407219409942627, 0.09640258550643921, -0.0020231171511113644, -0.005474099423736334, 0.9986252784729004, -0.5757521390914917, -1.5977753400802612, -0.13137243688106537, 0.0, 0.0, 0.0, 0, 0, 0, 0, 0, 0, -0.5772481560707092, -1.6019837856292725, -0.1317019909620285
10875, 0.013746433891355991, -0.027144107967615128, 0.11969929933547974, 0.1179010346531868, -0.0001322117168456316, 0.23055317997932434, -0.00012282503303140402, -0.008034813217818737, 0.9985349774360657, -0.5772481560707092, -1.6019837856292725, -0.1317019909620285, 0.0, 0.0, 0.0, 0, 0, 0, 0, 0, 0, -0.5787453055381775, -1.6061985492706299, -0.13203240931034088
10885, 0.015159741044044495, -0.029693741351366043, 0.12126246839761734, 0.14209966361522675, -0.1194051057100296, 0.29828593134880066, 0.0004930416471324861, -0.007366732228547335, 1.001084327697754, -0.5787453055381775, -1.6061985492706299, -0.13203240931034088, 0.0, 0.0, 0.0, 0, 0, 0, 0, 0, 0, -0.5802422165870667, -1.6104209423065186, -0.13236340880393982
10895, 0.015648677945137024, -0.028077177703380585, 0.12200372666120529, -0.1387261599302292, -0.2059144228696823, 0.07740743458271027, -0.0028036674484610558, -0.004735732451081276, 1.0008035898208618, -0.5802422165870667, -1.6104209423065186, -0.13236340880393982, 0.0, 0.0, 0.0, 0, 0, 0, 0, 0, 0, -0.5817391872406006, -1.6146502494812012, -0.13269402086734772
10905, 0.016376113519072533, -0.02915656566619873, 0.12331468611955643, 0.07809489965438843, 0.20329147577285767, 0.211196631193161, -0.002522530034184456, -0.002524821786209941, 0.999078094959259, -0.5817391872406006, -1.6146502494812012, -0.13269402086734772, 0.0, 0.0, 0.0, 0, 0, 0, 0, 0, 0, -0.583237886428833, -1.6188839673995972, -0.1330244541168213
10915, 0.016796590760350227, -0.026758268475532532, 0.1226360946893692, 0.03403724357485771, -0.40102842450141907, -0.16953717172145844, -0.0019766881596297026, -0.002014925703406334, 1.0021191835403442, -0.583237886428833, -1.6188839673995972, -0.1330244541168213, 0.0, 0.0, 0.0, 0, 0, 0, 0, 0, 0, -0.5847380757331848, -1.6231204271316528, -0.13335460424423218
10925, 0.016927208751440048, -0.028202252462506294, 0.12375548481941223, 0.09855568408966064, 0.34270188212394714, 0.11255713552236557, -0.002272938610985875, -0.0035314438864588737, 0.9987428784370422, -0.5847380757331848, -1.6231204271316528, -0.13335460424423218, 0.0, 0.0, 0.0, 0, 0, 0, 0, 0, 0, -0.5862398743629456, -1.6273597478866577, -0.13368423283100128
10935, 0.016398394480347633, -0.02989359200000763, 0.12294301390647888, 0.03836974874138832, 0.05408067628741264, -0.05143948271870613, 0.00014467195433098823, -0.004700534511357546, 0.9972844123840332, -0.5862398743629456, -1.6273597478866577, -0.13368423283100128, 0.0, 0.0, 0.0, 0, 0, 0, 0, 0, 0, -0.5877431035041809, -1.6316030025482178, -0.13401490449905396
10945, 0.0160530935972929, -0.02982945181429386, 0.12256687134504318, -0.004396009258925915, 0.0383535772562027, 0.02775721065700054, -0.0021379811223596334, -0.002793755615130067, 0.9976227283477783, -0.5877431035041809, -1.6316030025482178, -0.13401490449905396, 0.0, 0.0, 0.0, 0, 0, 0, 0, 0, 0, -0.5892468094825745, -1.6358503103256226, -0.13434801995754242
10955, 0.015201270580291748, -0.030372342094779015, 0.12351614981889725, -0.17962996661663055, 0.20413978397846222, -0.11823520809412003, -0.002383457263931632, -0.005153042729943991, 0.9984096884727478, -0.5892468094825745, -1.6358503103256226, -0.13434801995754242, 0.0, 0.0, 0.0, 0, 0, 0, 0, 0, 0, -0.5892468094825745, -1.6358503103256226, -0.13434801995754242
10965, 0.01466738898307085, -0.031546201556921005, 0.12539565563201904, -0.012667167000472546, 0.0985613614320755, 0.2498633861541748, -0.002770461607724428, -0.004988758359104395, 0.99933260679245, -0.5907517075538635, -1.640101671218872, -0.13468345999717712, 0.0, 0.0, 0.0, 0, 0, 0, 0, 0, 0, -0.5907517075538635, -1.640101671218872, -0.13468345999717712
10975, 0.01294620893895626, -0.034079715609550476, 0.1258363425731659, -0.08369483053684235, 0.16081103682518005, -0.017996201291680336, -0.001927990815602243, -0.004149507265537977, 0.9990877509117126, -0.5924097299575806, -1.644783854484558, -0.13505378365516663, 0.0, 0.0, 0.0, 0, 0, 0, 0, 0, 0, -0.5924097299575806, -1.644783854484558, -0.13505378365516663
10985, 0.013729105703532696, -0.03326723352074623, 0.12545627355575562, 0.10804376006126404, -0.1279081255197525, -0.001629845704883337, -0.0030514306854456663, -0.005743519403040409, 0.9996966123580933, -0.5940700769424438, -1.6494718790054321, -0.13542494177818298, 0.0, 0.0, 0.0, 0, 0, 0, 0, 0, 0, -0.5940700769424438, -1.6494718790054321, -0.13542494177818298
10995, 0.013545298017561436, -0.03371569514274597, 0.12552668154239655, -0.033759769052267075, 0.016996538266539574, 0.009327086620032787, -0.004672302398830652, -0.0067601073533296585, 0.9996625185012817, -0.5955812335014343, -1.653739094734192, -0.13576297461986542, 0.0, 0.0, 0.0, 0, 0, 0, 0, 0, 0, -0.5955812335014343, -1.653739094734192, -0.13576297461986542
11005, 0.013778658583760262, -0.031379539519548416, 0.12498830258846283, -0.016496427357196808, -0.2598932087421417, -0.08590752631425858, -0.005045813973993063, -0.005274721421301365, 1.0016539096832275, -0.5970953106880188, -1.6580123901367188, -0.1361013948917389, 0.0, 0.0, 0.0, 0, 0, 0, 0, 0, 0, -0.5970953106880188, -1.6580123901367188, -0.1361013948917389
11015, 0.013525852002203465, -0.030288802459836006, 0.12575529515743256, -0.053047891706228256, -0.019718294963240623, 0.19690145552158356, -0.0018956843996420503, -0.005453015677630901, 0.9984940886497498, -0.5986135005950928, -1.6622918844223022, -0.13643954694271088, 0.0, 0.0, 0.0, 0, 0, 0, 0, 0, 0, -0.5986135005950928, -1.6622918844223022, -0.13643954694271088
11025, 0.013155346736311913, -0.02966972626745701, 0.12543708086013794, -0.13039672374725342, -0.009188372641801834, -0.007199950981885195, 0.0003447019262239337, -0.00545473163947463, 0.9982095956802368, -0.6001348495483398, -1.666576862335205, -0.1367775946855545, 0.0, 0.0, 0.0, 0, 0, 0, 0, 0, 0, -0.6001348495483398, -1.666576862335205, -0.1367775946855545
11035, 0.011900023557245731, -0.031448978930711746, 0.12625162303447723, -0.10692594945430756, 0.23846596479415894, 0.1534183919429779, -0.0033777791541069746, -0.005060349125415087, 0.9995110630989075, -0.6016569137573242, -1.6708674430847168, -0.137116938829422, 0.0, 0.0, 0.0, 0, 0, 0, 0, 0, 0, -0.6016569137573242, -1.6708674430847168, -0.137116938829422
11045, 0.012387119233608246, -0.033057425171136856, 0.12696994841098785, 0.05513859912753105, 0.18182705342769623, -0.08594435453414917, -0.002335126046091318, -0.004607181530445814, 0.9990925192832947, -0.6031799912452698, -1.6751632690429688, -0.1374574452638626, 0.0, 0.0, 0.0, 0, 0, 0, 0, 0, 0, -0.6031799912452698, -1.6751632690429688, -0.1374574452638626
11055, 0.012602496892213821, -0.03497331216931343, 0.12730665504932404, 0.024337006732821465, 0.2597862482070923, 0.043615423142910004, -0.0015436157118529081, -0.004394269082695246, 0.9974465370178223, -0.6047051548957825, -1.6794638633728027, -0.13779881596565247, 0.0, 0.0, 0.0, 0, 0, 0, 0, 0, 0, -0.6047051548957825, -1.6794638633728027, -0.13779881596565247
11065, 0.012047098949551582, -0.03396810218691826, 0.12742678821086884, -0.03694579005241394, -0.01023938413709402, 0.020013073459267616, -0.0013431886909529567, -0.005983702838420868, 0.9974493384361267, -0.606231689453125, -1.6837691068649292, -0.13814175128936768, 0.0, 0.0, 0.0, 0, 0, 0, 0, 0, 0, -0.606231689453125, -1.6837691068649292, -0.13814175128936768
11075, 0.011560855433344841, -0.034003451466560364, 0.12677337229251862, -0.1553734391927719, 0.2568398714065552, -0.032802287489175797, -0.0021490659564733505, -0.004749452695250511, 0.9986652135848999, -0.6077593564987183, -1.6880794763565063, -0.13848692178726196, 0.0, 0.0, 0.0, 0, 0, 0, 0, 0, 0, -0.6077593564987183, -1.6880794763565063, -0.13848692178726196
11085, 0.012510688975453377, -0.03363180160522461, 0.12706315517425537, 0.14027619361877441, -0.013614174909889698, 0.21592877805233002, -0.0016863731434568763, -0.007591096218675375, 1.00196373462677, -0.6092883348464966, -1.6923953294754028, -0.13883404433727264, 0.0, 0.0, 0.0, 0, 0, 0, 0, 0, 0, -0.6092883348464966, -1.6923953294754028, -0.13883404433727264
11095, 0.013222931884229183, -0.032647788524627686, 0.1252448558807373, -0.007638896349817514, -0.12310586869716644, -0.191866934299469, -0.0017620822181925178, -0.005855845287442207, 1.000803828239441, -0.6108186841011047, -1.6967172622680664, -0.1391812562942505, 0.0, 0.0, 0.0, 0, 0, 0, 0, 0, 0, -0.6108186841011047, -1.6967172622680664, -0.1391812562942505
11105, 0.012248541228473186, -0.0329756960272789, 0.12425516545772552, -0.10513939708471298, 0.08699548989534378, 0.03901335969567299, -0.0034971260465681553, -0.006579308770596981, 0.9979150295257568, -0.6123502254486084, -1.7010456323623657, -0.1395273655653, 0.0, 0.0, 0.0, 0, 0, 0, 0, 0, 0, -0.6123502254486084, -1.7010456323623657, -0.1395273655653
11115, 0.012117976322770119, -0.032493431121110916, 0.12344341725111008, -0.030405791476368904, -0.07801984250545502, -0.09911636263132095, -0.0018408005125820637, -0.006387094035744667, 0.9962026476860046, -0.6138836145401001, -1.7053802013397217, -0.13987378776073456, 0.0, 0.0, 0.0, 0, 0, 0, 0, 0, 0, -0.6138836145401001, -1.7053802013397217, -0.13987378776073456
11125, 0.012246040627360344, -0.03195876255631447, 0.12209097295999527, 0.016551870852708817, -0.09997987747192383, -0.08109290897846222, -1.3287308320286684e-05, -0.004799186252057552, 0.9986741542816162, -0.6154190897941589, -1.7097210884094238, -0.14022283256053925, 0.0, 0.0, 0.0, 0, 0, 0, 0, 0, 0, -0.6154190897941589, -1.7097210884094238, -0.14022283256053925
11135, 0.0121264373883605, -0.03130166977643967, 0.12087395787239075, 0.03828778117895126, -0.07486192882061005, -0.04801508039236069, -0.0003807437897194177, -0.004171033855527639, 1.001771330833435, -0.6169552803039551, -1.714067816734314, -0.14057449996471405, 0.0, 0.0, 0.0, 0, 0, 0, 0, 0, 0, -0.6169552803039551, -1.714067816734314, -0.14057449996471405
11145, 0.011864683590829372, -0.03039473295211792, 0.12066655606031418, -0.16090106964111328, -0.10210154950618744, 0.08091346174478531, -0.0028003717307001352, -0.00586677948012948, 0.9995908141136169, -0.6184912919998169, -1.7184194326400757, -0.14092637598514557, 0.0, 0.0, 0.0, 0, 0, 0, 0, 0, 0, -0.6184912919998169, -1.7184194326400757, -0.14092637598514557
11155, 0.011662921868264675, -0.033297158777713776, 0.121160589158535, 0.005611561704427004, 0.34643495082855225, 0.05089189112186432, -0.0027267904952168465, -0.00464021647349, 0.998372495174408, -0.6200282573699951, -1.7227760553359985, -0.14127780497074127, 0.0, 0.0, 0.0, 0, 0, 0, 0, 0, 0, -0.6200282573699951, -1.7227760553359985, -0.14127780497074127
11165, 0.011222632601857185, -0.03486237674951553, 0.12122011929750443, -0.03274904191493988, 0.19320464134216309, 0.039708007127046585, -0.001772268209606409, -0.003999996464699507, 0.9974910616874695, -0.6215673089027405, -1.7271380424499512, -0.14162996411323547, 0.0, 0.0, 0.0, 0, 0, 0, 0, 0, 0, -0.6215673089027405, -1.7271380424499512, -0.14162996411323547
11175, 0.010298602283000946, -0.036566659808158875, 0.12170939147472382, -0.173860102891922, 0.2184455394744873, 0.08606912195682526, -0.0017193675739690661, -0.006640804931521416, 0.9990105032920837, -0.6231080889701843, -1.7315045595169067, -0.14198391139507294, 0.0, 0.0, 0.0, 0, 0, 0, 0, 0, 0, -0.6231080889701843, -1.7315045595169067, -0.14198391139507294
11185, 0.010563427582383156, -0.037377648055553436, 0.121233731508255, -0.05390714481472969, -0.04374382272362709, -0.03635716438293457, -0.0034079437609761953, -0.007039735559374094, 0.9987319707870483, -0.6246498823165894, -1.7358763217926025, -0.14233966171741486, 0.0, 0.0, 0.0, 0, 0, 0, 0, 0, 0, -0.6246498823165894, -1.7358763217926025, -0.14233966171741486
11195, 0.00997311994433403, -0.03703957051038742, 0.1215490773320198, -0.11987226456403732, -0.031064582988619804, 0.15783970057964325, -0.0006860578432679176, -0.005281033925712109, 0.9992681741714478, -0.6261935234069824, -1.7402548789978027, -0.1426965743303299, 0.0, 0.0, 0.0, 0, 0, 0, 0, 0, 0, -0.6261935234069824, -1.7402548789978027, -0.1426965743303299
11205, 0.010716375894844532, -0.03587232902646065, 0.12058334052562714, 0.09883967787027359, -0.047706276178359985, -0.11588158458471298, -0.0010045161470770836, -0.004313788376748562, 1.0002615451812744, -0.6277387142181396, -1.7446397542953491, -0.1430545300245285, 0.0, 0.0, 0.0, 0, 0, 0, 0, 0, 0, -0.6277387142181396, -1.7446397542953491, -0.1430545300245285
11215, 0.009130574762821198, -0.038299061357975006, 0.1213100329041481, -0.2608463168144226, 0.30530086159706116, 0.15186621248722076, -0.0031634634360671043, -0.0038363290950655937, 1.0004247426986694, -0.629284143447876, -1.7490298748016357, -0.1434130072593689, 0.0, 0.0, 0.0, 0, 0, 0, 0, 0, 0, -0.629284143447876, -1.7490298748016357, -0.1434130072593689
11225, 0.009350034408271313, -0.03853198513388634, 0.12183668464422226, 0.05493218079209328, 0.09692391008138657, 0.08982288092374802, -0.0028487450908869505, -0.004847930744290352, 0.999887228012085, -0.6308309435844421, -1.7534244060516357, -0.14377130568027496, 0.0, 0.0, 0.0, 0, 0, 0, 0, 0, 0, -0.6308309435844421, -1.7534244060516357, -0.14377130568027496
11235, 0.009865966625511646, -0.03899190202355385, 0.1233530193567276, 0.005133902654051781, 0.039780471473932266, 0.22408531606197357, -0.0014264527708292007, -0.005564601626247168, 0.9983600378036499, -0.6323800086975098, -1.7578233480453491, -0.14412948489189148, 0.0, 0.0, 0.0, 0, 0, 0, 0, 0, 0, -0.6323800086975098, -1.7578233480453491, -0.14412948489189148
11245, 0.010792732238769531, -0.040786292403936386, 0.12430433928966522, 0.08771980553865433, 0.03293978050351143, 0.13142946362495422, -0.0030686536338180304, -0.008212149143218994, 0.998913586139679, -0.6339307427406311, -1.7622274160385132, -0.14448842406272888, 0.0, 0.0, 0.0, 0, 0, 0, 0, 0, 0, -0.6339307427406311, -1.7622274160385132, -0.14448842406272888
11255, 0.010775536298751831, -0.03968023508787155, 0.12388373911380768, -0.04571576416492462, -0.039900634437799454, -0.14156925678253174, -0.0009454963146708906, -0.005183919798582792, 1.0004308223724365, -0.6354830265045166, -1.7666383981704712, -0.14484860002994537, 0.0, 0.0, 0.0, 0, 0, 0, 0, 0, 0, -0.6354830265045166, -1.7666383981704712, -0.14484860002994537
11265, 0.012420074082911015, -0.039720870554447174, 0.12424138933420181, 0.1780889928340912, 0.06467320770025253, 0.015714656561613083, -0.0020048923324793577, -0.005748122930526733, 1.000593662261963, -0.6370366811752319, -1.7710561752319336, -0.14520911872386932, 0.0, 0.0, 0.0, 0, 0, 0, 0, 0, 0, -0.6370366811752319, -1.7710561752319336, -0.14520911872386932
11275, 0.011107677593827248, -0.03842343017458916, 0.12359155714511871, -0.16081859171390533, -0.2038791924715042, -0.09521863609552383, -0.002210480161011219, -0.006306695286184549, 0.9999352693557739, -0.6385912299156189, -1.7754796743392944, -0.14556923508644104, 0.0, 0.0, 0.0, 0, 0, 0, 0, 0, 0, -0.6385912299156189, -1.7754796743392944, -0.14556923508644104
11285, 0.01120070181787014, -0.03892543166875839, 0.12425216287374496, -0.006519312039017677, 0.09781774133443832, 0.020685292780399323, -0.0019731877837330103, -0.00556063512340188, 1.0016146898269653, -0.6401469111442566, -1.779909372329712, -0.1459290087223053, 0.0, 0.0, 0.0, 0, 0, 0, 0, 0, 0, -0.6401469111442566, -1.779909372329712, -0.1459290087223053
11295, 0.011194265447556973, -0.03924894705414772, 0.12542544305324554, 0.00017168580961879343, 0.1651833951473236, 0.015184312127530575, -0.003165302099660039, -0.004700929392129183, 1.0006468296051025, -0.6417037844657898, -1.7843451499938965, -0.14628790318965912, 0.0, 0.0, 0.0, 0, 0, 0, 0, 0, 0, -0.6417037844657898, -1.7843451499938965, -0.14628790318965912
11305, 0.010542299598455429, -0.03801548108458519, 0.12546999752521515, -0.06963447481393814, -0.23633675277233124, -0.04205700382590294, -0.00218769907951355, -0.006368367932736874, 0.9994480013847351, -0.643262505531311, -1.7887862920761108, -0.146645650267601, 0.0, 0.0, 0.0, 0, 0, 0, 0, 0, 0, -0.643262505531311, -1.7887862920761108, -0.146645650267601
11315, 0.010032912716269493, -0.0386500209569931, 0.12633028626441956, -0.22988362610340118, 0.016205929219722748, 0.05144350230693817, -0.002753373933956027, -0.0054578701965510845, 0.9989696145057678, -0.6448231339454651, -1.7932329177856445, -0.14700323343276978, 0.0, 0.0, 0.0, 0, 0, 0, 0, 0, 0, -0.6448231339454651, -1.7932329177856445, -0.14700323343276978
11325, 0.010611233301460743, -0.0389394573867321, 0.12635578215122223, 0.045076098293066025, 0.15065337717533112, 0.07807572185993195, -0.001621680217795074, -0.0053566801361739635, 0.9991760849952698, -0.6463853716850281, -1.7976852655410767, -0.14736133813858032, 0.0, 0.0, 0.0, 0, 0, 0, 0, 0, 0, -0.6463853716850281, -1.7976852655410767, -0.14736133813858032
11335, 0.009454197250306606, -0.03844120725989342, 0.12576700747013092, -0.07689625024795532, -0.054988160729408264, -0.12396891415119171, -0.0010158800287172198, -0.004825472366064787, 1.0010160207748413, -0.6479490995407104, -1.802142858505249, -0.1477201282978058, 0.0, 0.0, 0.0, 0, 0, 0, 0, 0, 0, -0.6479490995407104, -1.802142858505249, -0.1477201282978058
11345, 0.010057560168206692, -0.0381886251270771, 0.12700998783111572, 0.1411174237728119, -0.07900142669677734, 0.18185070157051086, -0.00331482058390975, -0.005092325154691935, 0.9989425539970398, -0.6495136022567749, -1.8066054582595825, -0.14807899296283722, 0.0, 0.0, 0.0, 0, 0, 0, 0, 0, 0, -0.6495136022567749, -1.8066054582595825, -0.14807899296283722
11355, 0.009713883511722088, -0.03816281631588936, 0.12777802348136902, 0.06745754182338715, -0.018286410719156265, 0.10850510746240616, -0.0016988907009363174, -0.00618160841986537, 1.0005428791046143, -0.6510794162750244, -1.8110731840133667, -0.14843803644180298, 0.0, 0.0, 0.0, 0, 0, 0, 0, 0, 0, -0.6510794162750244, -1.8110731840133667, -0.14843803644180298
11365, 0.010796358808875084, -0.040565356612205505, 0.12824465334415436, 0.2314385324716568, 0.15735818445682526, 0.15809524059295654, -0.0016044621588662267, -0.005712554790079594, 1.0006104707717896, -0.6526467800140381, -1.8155466318130493, -0.1487973928451538, 0.0, 0.0, 0.0, 0, 0, 0, 0, 0, 0, -0.6526467800140381, -1.8155466318130493, -0.1487973928451538
11375, 0.010898548178374767, -0.040717605501413345, 0.12854856252670288, -0.026180623099207878, -0.05091265216469765, -0.07287009060382843, -0.0021952446550130844, -0.0034915157593786716, 0.9992434978485107, -0.6542150974273682, -1.82002592086792, -0.14915624260902405, 0.0, 0.0, 0.0, 0, 0, 0, 0, 0, 0, -0.6542150974273682, -1.82002592086792, -0.14915624260902405
11385, 0.010827830992639065, -0.04153037443757057, 0.12876856327056885, -0.00392546970397234, 0.11742988228797913, -0.17303700745105743, -0.003074230160564184, -0.003801295766606927, 0.9996153116226196, -0.6557846665382385, -1.824509859085083, -0.14951498806476593, 0.0, 0.0, 0.0, 0, 0, 0, 0, 0, 0, -0.6557846665382385, -1.824509859085083, -0.14951498806476593
11395, 0.011262590996921062, -0.04071207344532013, 0.12942469120025635, 0.10526299476623535, -0.23150862753391266, 0.08362831175327301, -0.003561940975487232, -0.006030033342540264, 1.0003702640533447, -0.657356321811676, -1.8289976119995117, -0.14987410604953766, 0.0, 0.0, 0.0, 0, 0, 0, 0, 0, 0, -0.657356321811676, -1.8289976119995117, -0.14987410604953766
11405, 0.011813380755484104, -0.039252717047929764, 0.12941989302635193, 0.1188233345746994, -0.17646406590938568, 0.17054462432861328, -0.0014394717290997505, -0.006289494689553976, 0.9997804760932922, -0.6589304804801941, -1.833490252494812, -0.1502332240343094, 0.0, 0.0, 0.0, 0, 0, 0, 0, 0, 0, -0.6589304804801941, -1.833490252494812, -0.1502332240343094
11415, 0.012461130507290363, -0.04020782560110092, 0.1291506290435791, 0.09518849849700928, 0.14784154295921326, -0.11649223417043686, -0.0037623366806656122, -0.005292130634188652, 0.9971942901611328, -0.6605062484741211, -1.8379892110824585, -0.15059229731559753, 0.0, 0.0, 0.0, 0, 0, 0, 0, 0, 0, -0.6605062484741211, -1.8379892110824585, -0.15059229731559753
11425, 0.012505567632615566, -0.03858593851327896, 0.12954825162887573, 0.02938961796462536, -0.22154772281646729, 0.13346374034881592, -0.003069777274504304, -0.005800671875476837, 0.997921347618103, -0.6620837450027466, -1.842494249343872, -0.15095259249210358, 0.0, 0.0, 0.0, 0, 0, 0, 0, 0, 0, -0.6620837450027466, -1.842494249343872, -0.15095259249210358
11435, 0.012467109598219395, -0.03742256015539169, 0.12978079915046692, 0.08384282141923904, -0.03086196631193161, 0.14314958453178406, -0.0031104846857488155, -0.003849366446956992, 0.9991242289543152, -0.6636638045310974, -1.847005009651184, -0.15131495893001556, 0.0, 0.0, 0.0, 0, 0, 0, 0, 0, 0, -0.6636638045310974, -1.847005009651184, -0.15131495893001556
11445, 0.011234511621296406, -0.0373859703540802, 0.12925568222999573, -0.13870610296726227, 0.03692900389432907, -0.08486910164356232, -0.0017379054334014654, -0.004739255644381046, 0.9982852339744568, -0.6652462482452393, -1.8515210151672363, -0.15167880058288574, 0.0, 0.0, 0.0, 0, 0, 0, 0, 0, 0, -0.6652462482452393, -1.8515210151672363, -0.15167880058288574
11455, 0.011697288602590561, -0.03672338277101517, 0.12898866832256317, -0.0006215907633304596, -0.17416006326675415, -0.08630470931529999, -0.001457610516808927, -0.003712799632921815, 0.9998763203620911, -0.6668302416801453, -1.8560415506362915, -0.15204374492168427, 0.0, 0.0, 0.0, 0, 0, 0, 0, 0, 0, -0.6668302416801453, -1.8560415506362915, -0.15204374492168427
11465, 0.012004478834569454, -0.03492984548211098, 0.12799033522605896, -0.0017062751576304436, -0.3029557466506958, -0.1039230227470398, -0.001413525315001607, -0.002884295303374529, 1.0002750158309937, -0.6684150695800781, -1.86056649684906, -0.1524093598127365, 0.0, 0.0, 0.0, 0, 0, 0, 0, 0, 0, -0.6684150695800781, -1.86056649684906, -0.1524093598127365
11475, 0.011592064052820206, -0.033247508108615875, 0.12789379060268402, -0.08071427792310715, -0.03535528853535652, -0.04622679576277733, -0.0032995790243148804, -0.002874285914003849, 1.0010368824005127, -0.6700009703636169, -1.865094780921936, -0.15277491509914398, 0.0, 0.0, 0.0, 0, 0, 0, 0, 0, 0, -0.6700009703636169, -1.865094780921936, -0.15277491509914398
11485, 0.012197582051157951, -0.03295037895441055, 0.12787571549415588, 0.16453516483306885, 0.041327279061079025, 0.052867546677589417, -0.0009316543000750244, -0.004586449824273586, 1.0014187097549438, -0.6715885400772095, -1.8696261644363403, -0.15313978493213654, 0.0, 0.0, 0.0, 0, 0, 0, 0, 0, 0, -0.6715885400772095, -1.8696261644363403, -0.15313978493213654
11495, 0.010585789568722248, -0.03279057517647743, 0.1269630789756775, -0.1160416305065155, -0.07458174228668213, -0.04347744956612587, -0.0014484039274975657, -0.0039041892159730196, 0.9990941882133484, -0.6731774210929871, -1.8741613626480103, -0.1535034328699112, 0.0, 0.0, 0.0, 0, 0, 0, 0, 0, 0, -0.6731774210929871, -1.8741613626480103, -0.1535034328699112
11505, 0.010999564081430435, -0.031983233988285065, 0.12723244726657867, 0.09184574335813522, -0.1099703460931778, 0.048252057284116745, -0.0009871568763628602, -0.0034269646275788546, 0.9984375238418579, -0.6747667193412781, -1.8787009716033936, -0.15386684238910675, 0.0, 0.0, 0.0, 0, 0, 0, 0, 0, 0, -0.6747667193412781, -1.8787009716033936, -0.15386684238910675
11515, 0.009721420705318451, -0.03188708797097206, 0.12604275345802307, -0.21270009875297546, 0.11691322922706604, -0.25894060730934143, -0.0034972166176885366, -0.0047360858879983425, 1.0000041723251343, -0.6763564944267273, -1.8832443952560425, -0.15423142910003662, 0.0, 0.0, 0.0, 0, 0, 0, 0, 0, 0, -0.6763564944267273, -1.8832443952560425, -0.15423142910003662
11525, 0.00930693931877613, -0.03300430625677109, 0.12630942463874817, -0.0015070154331624508, 0.2168986201286316, 0.01854684203863144, -0.0024862620048224926, -0.004779576789587736, 1.0004836320877075, -0.6779478192329407, -1.8877918720245361, -0.15459662675857544, 0.0, 0.0, 0.0, 0, 0, 0, 0, 0, 0, -0.6779478192329407, -1.8877918720245361, -0.15459662675857544
11535, 0.008828393183648586, -0.032383207231760025, 0.12716078758239746, 0.07944967597723007, -0.054954297840595245, 0.11085575819015503, -0.0023539422545582056, -0.006097464356571436, 1.0013710260391235, -0.6795414090156555, -1.8923441171646118, -0.1549614667892456, 0.0, 0.0, 0.0, 0, 0, 0, 0, 0, 0, -0.6795414090156555, -1.8923441171646118, -0.1549614667892456
11545, 0.008500327356159687, -0.0336274728178978, 0.12869472801685333, -0.06624982506036758, 0.12099740654230118, 0.20785482227802277, -0.0017229611985385418, -0.005281530320644379, 1.000414252281189, -0.6811367869377136, -1.8969017267227173, -0.15532556176185608, 0.0, 0.0, 0.0, 0, 0, 0, 0, 0, 0, -0.6811367869377136, -1.8969017267227173, -0.15532556176185608
11555, 0.008245442993938923, -0.03697802498936653, 0.12967343628406525, -0.04340127110481262, 0.26018673181533813, 0.18180595338344574, -0.0027050948701798916, -0.006827887147665024, 0.9979450106620789, -0.6827335953712463, -1.9014649391174316, -0.1556890606880188, 0.0, 0.0, 0.0, 0, 0, 0, 0, 0, 0, -0.6827335953712463, -1.9014649391174316, -0.1556890606880188
11565, 0.0086807357147336, -0.03603081405162811, 0.12812499701976776, 0.03095538169145584, -0.09776760637760162, -0.17298246920108795, -0.0008293440332636237, -0.005441682413220406, 0.9983402490615845, -0.6843318343162537, -1.9060341119766235, -0.156053364276886, 0.0, 0.0, 0.0, 0, 0, 0, 0, 0, 0, -0.6843318343162537, -1.9060341119766235, -0.156053364276886
11575, 0.007834943942725658, -0.035100147128105164, 0.12893208861351013, -0.019286606460809708, -0.008584112860262394, 0.22803109884262085, -0.0008108735200949013, -0.00659622997045517, 1.0015673637390137, -0.6859310865402222, -1.910609245300293, -0.1564192771911621, 0.0, 0.0, 0.0, 0, 0, 0, 0, 0, 0, -0.6859310865402222, -1.910609245300293, -0.1564192771911621
11585, 0.0090483408421278, -0.0347711406648159, 0.1293809860944748, 0.22732415795326233, 0.11704836040735245, 0.029888560995459557, -0.0013358822325244546, -0.006629967130720615, 1.000588297843933, -0.687530517578125, -1.91519033908844, -0.1567852646112442, 0.0, 0.0, 0.0, 0, 0, 0, 0, 0, 0, -0.687530517578125, -1.91519033908844, -0.1567852646112442
11595, 0.009157956577837467, -0.032764267176389694, 0.12957249581813812, -0.113960862159729, -0.3596784472465515, -0.04188871756196022, -0.0029295142740011215, -0.005857696291059256, 1.0000579357147217, -0.6891302466392517, -1.9197781085968018, -0.1571502983570099, 0.0, 0.0, 0.0, 0, 0, 0, 0, 0, 0, -0.6891302466392517, -1.9197781085968018, -0.1571502983570099
11605, 0.00879591517150402, -0.03224112093448639, 0.1311059147119522, -0.010046233423054218, -0.12511876225471497, 0.25690680742263794, -0.0006129494868218899, -0.00636756606400013, 0.9991649389266968, -0.6907312870025635, -1.9243721961975098, -0.1575150042772293, 0.0, 0.0, 0.0, 0, 0, 0, 0, 0, 0, -0.6907312870025635, -1.9243721961975098, -0.1575150042772293
11615, 0.008500673808157444, -0.03192640841007233, 0.13166236877441406, 0.10337690263986588, -0.02300979755818844, 0.24658295512199402, -0.00022242932755034417, -0.004606010392308235, 0.9999398589134216, -0.6923336982727051, -1.9289723634719849, -0.157880038022995, 0.0, 0.0, 0.0, 0, 0, 0, 0, 0, 0, -0.6923336982727051, -1.9289723634719849, -0.157880038022995
11625, 0.008162685669958591, -0.02996322512626648, 0.13145020604133606, 0.017324812710285187, -0.1343713402748108, -0.04478401690721512, -0.0017646894557401538, -0.005627852398902178, 1.000475287437439, -0.693936288356781, -1.9335780143737793, -0.15824559330940247, 0.0, 0.0, 0.0, 0, 0, 0, 0, 0, 0, -0.693936288356781, -1.9335780143737793, -0.15824559330940247
11635, 0.007162625901401043, -0.031174812465906143, 0.13088451325893402, -0.12747913599014282, 0.21371608972549438, -0.13479886949062347, -0.0014630187069997191, -0.005934813525527716, 0.9990710020065308, -0.6955392956733704, -1.938188910484314, -0.15861119329929352, 0.0, 0.0, 0.0, 0, 0, 0, 0, 0, 0, -0.6955392956733704, -1.938188910484314, -0.15861119329929352
11645, 0.007441920228302479, -0.032220665365457535, 0.13063311576843262, 0.008087757043540478, 0.08456019312143326, -0.05032792314887047, -0.0026499354280531406, -0.00511481799185276, 0.9988853335380554, -0.6971434354782104, -1.9428056478500366, -0.15897703170776367, 0.0, 0.0, 0.0, 0, 0, 0, 0, 0, 0, -0.6971434354782104, -1.9428056478500366, -0.15897703170776367
11655, 0.007570176851004362, -0.03223047032952309, 0.1301531195640564, 0.010816427879035473, -0.11398493498563766, -0.14370617270469666, -0.0013042250648140907, -0.003976637497544289, 1.000838041305542, -0.6987490653991699, -1.947427749633789, -0.15934376418590546, 0.0, 0.0, 0.0, 0, 0, 0, 0, 0, 0, -0.6987490653991699, -1.947427749633789, -0.15934376418590546
11665, 0.008173832669854164, -0.03224875405430794, 0.1296646147966385, 0.01774902641773224, -0.026067892089486122, -0.08287015557289124, -0.001660992274992168, -0.003925234079360962, 0.9999662637710571, -0.7003560066223145, -1.9520541429519653, -0.1597108095884323, 0.0, 0.0, 0.0, 0, 0, 0, 0, 0, 0, -0.7003560066223145, -1.9520541429519653, -0.1597108095884323
11675, 0.00870460458099842, -0.03068406879901886, 0.13005417585372925, 0.020452503114938736, -0.17655162513256073, 0.023679686710238457, 0.00011277325393166393, -0.004587316885590553, 0.9988295435905457, -0.7019637227058411, -1.9566844701766968, -0.16007766127586365, 0.0, 0.0, 0.0, 0, 0, 0, 0, 0, 0, -0.7019637227058411, -1.9566844701766968, -0.16007766127586365
11685, 0.009884919971227646, -0.02915263921022415, 0.12889744341373444, 0.12102179229259491, -0.14484845101833344, -0.25728607177734375, -0.0015558789018541574, -0.006385268643498421, 0.9999665021896362, -0.703571617603302, -1.9613193273544312, -0.16044491529464722, 0.0, 0.0, 0.0, 0, 0, 0, 0, 0, 0, -0.703571617603302, -1.9613193273544312, -0.16044491529464722
11695, 0.011128239333629608, -0.028940139338374138, 0.129747673869133, 0.12410764396190643, 0.020006515085697174, 0.023859987035393715, -0.0013535862090066075, -0.00803130492568016, 1.00053870677948, -0.7051798105239868, -1.9659596681594849, -0.16081251204013824, 0.0, 0.0, 0.0, 0, 0, 0, 0, 0, 0, -0.7051798105239868, -1.9659596681594849, -0.16081251204013824
11705, 0.010858576744794846, -0.03141002729535103, 0.13010342419147491, -0.12326303124427795, 0.4697563946247101, 0.07977017760276794, -0.001817571115680039, -0.005888134241104126, 1.0004996061325073, -0.706788957118988, -1.9706071615219116, -0.16117991507053375, 0.0, 0.0, 0.0, 0, 0, 0, 0, 0, 0, -0.706788957118988, -1.9706071615219116, -0.16117991507053375
11715, 0.010785185731947422, -0.032498542219400406, 0.13113459944725037, -0.06465139240026474, 0.15306760370731354, 0.18805621564388275, -0.0014128814218565822, -0.0045532044023275375, 0.9995715618133545, -0.7083990573883057, -1.9752618074417114, -0.1615469753742218, 0.0, 0.0, 0.0, 0, 0, 0, 0, 0, 0, -0.7083990573883057, -1.9752618074417114, -0.1615469753742218
11725, 0.011277049779891968, -0.03246840834617615, 0.12983383238315582, 0.012069353833794594, -0.07414241135120392, -0.18573519587516785, -0.0033012167550623417, -0.0057542999275028706, 0.9988263845443726, -0.7100101709365845, -1.9799219369888306, -0.1619138866662979, 0.0, 0.0, 0.0, 0, 0, 0, 0, 0, 0, -0.7100101709365845, -1.9799219369888306, -0.1619138866662979
11735, 0.010787631385028362, -0.032194629311561584, 0.12977120280265808, -0.11858579516410828, 0.07793683558702469, -0.07055899500846863, -0.0018624518997967243, -0.0053659118711948395, 0.9997031092643738, -0.7116231322288513, -1.98458731174469, -0.1622813493013382, 0.0, 0.0, 0.0, 0, 0, 0, 0, 0, 0, -0.7116231322288513, -1.98458731174469, -0.1622813493013382
11745, 0.010822326876223087, -0.03144435957074165, 0.13076359033584595, -0.007968422956764698, 0.02006436139345169, 0.19577676057815552, -0.00262577086687088, -0.006675763055682182, 0.9982765316963196, -0.7132381796836853, -1.9892582893371582, -0.1626494973897934, 0.0, 0.0, 0.0, 0, 0, 0, 0, 0, 0, -0.7132381796836853, -1.9892582893371582, -0.1626494973897934
11755, 0.010592312552034855, -0.032572824507951736, 0.13149166107177734, 0.05865662917494774, 0.18476459383964539, 0.17788027226924896, -0.001031047897413373, -0.009043093770742416, 0.9995030164718628, -0.7148548364639282, -1.9939355850219727, -0.16301852464675903, 0.0, 0.0, 0.0, 0, 0, 0, 0, 0, 0, -0.7148548364639282, -1.9939355850219727, -0.16301852464675903
11765, 0.011564154177904129, -0.032925982028245926, 0.13006798923015594, 0.2047046273946762, -0.07242399454116821, -0.21863996982574463, -0.003007685299962759, -0.0065186587162315845, 1.000011920928955, -0.7164726853370667, -1.9986205101013184, -0.16338856518268585, 0.0, 0.0, 0.0, 0, 0, 0, 0, 0, 0, -0.7164726853370667, -1.9986205101013184, -0.16338856518268585
11775, 0.01110584381967783, -0.03155019134283066, 0.13066215813159943, 0.070449598133564, -0.21308965981006622, 0.03780964016914368, -0.002430763328447938, -0.003994149621576071, 1.0015945434570312, -0.7180918455123901, -2.0033133029937744, -0.16375896334648132, 0.0, 0.0, 0.0, 0, 0, 0, 0, 0, 0, -0.7180918455123901, -2.0033133029937744, -0.16375896334648132
11785, 0.010350486263632774, -0.032460033893585205, 0.12966908514499664, -0.04740384966135025, 0.17700311541557312, -0.09828907996416092, -0.00242770928889513, -0.004718818701803684, 0.998091995716095, -0.7197129130363464, -2.008012056350708, -0.1641288697719574, 0.0, 0.0, 0.0, 0, 0, 0, 0, 0, 0, -0.7197129130363464, -2.008012056350708, -0.1641288697719574
11795, 0.011887955479323864, -0.03303651884198189, 0.1299150288105011, 0.20430919528007507, 0.20287172496318817, -0.02046295255422592, -0.0028890965040773153, -0.00435454910621047, 0.9973809123039246, -0.7213358283042908, -2.0127153396606445, -0.1644987314939499, 0.0, 0.0, 0.0, 0, 0, 0, 0, 0, 0, -0.7213358283042908, -2.0127153396606445, -0.1644987314939499
11805, 0.01167564932256937, -0.03395523503422737, 0.12995333969593048, -0.08711688965559006, 0.17325446009635925, 0.02681349217891693, -0.003375197062268853, -0.006654032971709967, 0.9960031509399414, -0.722960889339447, -2.017423391342163, -0.16487053036689758, 0.0, 0.0, 0.0, 0, 0, 0, 0, 0, 0, -0.722960889339447, -2.017423391342163, -0.16487053036689758
11815, 0.01239362359046936, -0.03240862488746643, 0.13122591376304626, 0.060826756060123444, -0.1812516301870346, 0.2747992277145386, -0.000108624022686854, -0.004294187296181917, 0.9965842962265015, -0.7245883941650391, -2.022136926651001, -0.16524550318717957, 0.0, 0.0, 0.0, 0, 0, 0, 0, 0, 0, -0.7245883941650391, -2.022136926651001, -0.16524550318717957
11825, 0.012685420922935009, -0.030428171157836914, 0.1311827003955841, 0.04809088632464409, -0.17696401476860046, -0.07231827080249786, -0.000504777766764164, -0.004534468986093998, 0.999200165271759, -0.7262171506881714, -2.026855945587158, -0.16562393307685852, 0.0, 0.0, 0.0, 0, 0, 0, 0, 0, 0, -0.7262171506881714, -2.026855945587158, -0.16562393307685852
11835, 0.013364559970796108, -0.030558397993445396, 0.13244211673736572, 0.1985449492931366, 0.11305463314056396, 0.23085612058639526, -0.002905425848439336, -0.005454549565911293, 0.9998435974121094, -0.7278457283973694, -2.0315794944763184, -0.16600453853607178, 0.0, 0.0, 0.0, 0, 0, 0, 0, 0, 0, -0.7278457283973694, -2.0315794944763184, -0.16600453853607178
11845, 0.01362154632806778, -0.032368455082178116, 0.13232868909835815, 0.04781927168369293, 0.32501736283302307, 0.23558981716632843, -0.002700219629332423, -0.005670566577464342, 0.9973927140235901, -0.7294751405715942, -2.0363082885742188, -0.1663856953382492, 0.0, 0.0, 0.0, 0, 0, 0, 0, 0, 0, -0.7294751405715942, -2.0363082885742188, -0.1663856953382492
11855, 0.013084003701806068, -0.03130314126610756, 0.13178442418575287, -0.16055575013160706, -0.19566015899181366, -0.024663163349032402, -0.001958501525223255, -0.005644563585519791, 0.9976863861083984, -0.7311064600944519, -2.0410425662994385, -0.16676801443099976, 0.0, 0.0, 0.0, 0, 0, 0, 0, 0, 0, -0.7311064600944519, -2.0410425662994385, -0.16676801443099976
11865, 0.013106556609272957, -0.0323292538523674, 0.1320115476846695, -0.10144533962011337, 0.06446763128042221, -0.07719498872756958, -0.003676223335787654, -0.0045977309346199036, 0.9979849457740784, -0.7327395081520081, -2.0457828044891357, -0.16715267300605774, 0.0, 0.0, 0.0, 0, 0, 0, 0, 0, 0, -0.7327395081520081, -2.0457828044891357, -0.16715267300605774
11875, 0.013423454947769642, -0.03397541865706444, 0.1327517330646515, 0.11803791671991348, 0.102812260389328, 0.06626387685537338, -0.0023370415437966585, -0.005268425680696964, 0.9996286630630493, -0.7343747615814209, -2.0505282878875732, -0.16753968596458435, 0.0, 0.0, 0.0, 0, 0, 0, 0, 0, 0, -0.7343747615814209, -2.0505282878875732, -0.16753968596458435
11885, 0.013263234868645668, -0.03337441012263298, 0.13260214030742645, -0.021999677643179893, -0.1506674587726593, 0.009364928118884563, -0.0004843567148782313, -0.005444254260510206, 1.001269817352295, -0.73601233959198, -2.055278778076172, -0.1679280400276184, 0.0, 0.0, 0.0, 0, 0, 0, 0, 0, 0, -0.73601233959198, -2.055278778076172, -0.1679280400276184
11895, 0.012892241589725018, -0.034346047788858414, 0.13157179951667786, -0.18551446497440338, 0.16688960790634155, -0.0904574990272522, -0.0024748756550252438, -0.005908924154937267, 1.001099705696106, -0.7376508712768555, -2.0600345134735107, -0.16831600666046143, 0.0, 0.0, 0.0, 0, 0, 0, 0, 0, 0, -0.7376508712768555, -2.0600345134735107, -0.16831600666046143
11905, 0.013717819936573505, -0.03517865017056465, 0.13196077942848206, 0.09416094422340393, 0.14041489362716675, 0.12739384174346924, -0.0030276102479547262, -0.006194116082042456, 1.0005011558532715, -0.7392902374267578, -2.064796209335327, -0.1687029004096985, 0.0, 0.0, 0.0, 0, 0, 0, 0, 0, 0, -0.7392902374267578, -2.064796209335327, -0.1687029004096985
11915, 0.013183225877583027, -0.03428919240832329, 0.13182739913463593, -0.0824921578168869, 0.01736827939748764, -0.06167108938097954, -0.0004271993529982865, -0.006013651844114065, 0.9984545707702637, -0.740931510925293, -2.0695641040802, -0.16908913850784302, 0.0, 0.0, 0.0, 0, 0, 0, 0, 0, 0, -0.740931510925293, -2.0695641040802, -0.16908913850784302
11925, 0.013861950486898422, -0.035365212708711624, 0.1326911300420761, 0.10707508027553558, 0.2694231867790222, 0.11564536392688751, -0.0013869770336896181, -0.005015284288674593, 1.0009208917617798, -0.7425740361213684, -2.074338436126709, -0.16947594285011292, 0.0, 0.0, 0.0, 0, 0, 0, 0, 0, 0, -0.7425740361213684, -2.074338436126709, -0.16947594285011292
11935, 0.015052895992994308, -0.034412119537591934, 0.1331453025341034, 0.2612129747867584, -0.20415060222148895, 0.008905066177248955, -0.0025637021753937006, -0.005016848910599947, 0.997100830078125, -0.7442170977592468, -2.079118490219116, -0.1698632538318634, 0.0, 0.0, 0.0, 0, 0, 0, 0, 0, 0, -0.7442170977592468, -2.079118490219116, -0.1698632538318634
11945, 0.014900418929755688, -0.03473604843020439, 0.13331744074821472, 0.10477471351623535, -0.09648536890745163, 0.03195254132151604, -0.00146125175524503, -0.0038709386717528105, 0.9985657930374146, -0.7458613514900208, -2.0839035511016846, -0.17025145888328552, 0.0, 0.0, 0.0, 0, 0, 0, 0, 0, 0, -0.7458613514900208, -2.0839035511016846, -0.17025145888328552
11955, 0.01504189521074295, -0.034498728811740875, 0.13328415155410767, -0.06311279535293579, -0.08729858696460724, 0.04892061650753021, -0.0013553185854107141, -0.006815431639552116, 0.9992700815200806, -0.7475069165229797, -2.088693380355835, -0.17064142227172852, 0.0, 0.0, 0.0, 0, 0, 0, 0, 0, 0, -0.7475069165229797, -2.088693380355835, -0.17064142227172852
11965, 0.01658581756055355, -0.03316853940486908, 0.13286255300045013, 0.1737188994884491, -0.2375309020280838, 0.05159217119216919, -0.002130128676071763, -0.00516040762886405, 1.0002633333206177, -0.7491533756256104, -2.0934884548187256, -0.1710323989391327, 0.0, 0.0, 0.0, 0, 0, 0, 0, 0, 0, -0.7491533756256104, -2.0934884548187256, -0.1710323989391327
11975, 0.01705818437039852, -0.03115416131913662, 0.13254132866859436, 0.12557683885097504, -0.24294447898864746, 0.042227134108543396, -0.0018934005638584495, -0.006080614402890205, 0.9995810389518738, -0.7508008480072021, -2.098289728164673, -0.17142367362976074, 0.0, 0.0, 0.0, 0, 0, 0, 0, 0, 0, -0.7508008480072021, -2.098289728164673, -0.17142367362976074
11985, 0.016530947759747505, -0.033458925783634186, 0.1319345086812973, -0.03391841799020767, 0.3446485698223114, -0.040098149329423904, -0.0022307082545012236, -0.004260155372321606, 0.9997460246086121, -0.7524496912956238, -2.1030967235565186, -0.17181502282619476, 0.0, 0.0, 0.0, 0, 0, 0, 0, 0, 0, -0.7524496912956238, -2.1030967235565186, -0.17181502282619476
11995, 0.016488568857312202, -0.03396109119057655, 0.13124580681324005, -0.007184572517871857, -0.12254774570465088, -0.06832128018140793, -0.0023064378183335066, -0.004398800898343325, 0.999470055103302, -0.7541001439094543, -2.1079089641571045, -0.17220675945281982, 0.0, 0.0, 0.0, 0, 0, 0, 0, 0, 0, -0.7541001439094543, -2.1079089641571045, -0.17220675945281982
12005, 0.016503607854247093, -0.03389500826597214, 0.1338224709033966, 0.0500137060880661, 0.08468692749738693, 0.3039659857749939, -0.002560104476287961, -0.005765779875218868, 0.9994648694992065, -0.7557522654533386, -2.1127262115478516, -0.17259910702705383, 0.0, 0.0, 0.0, 0, 0, 0, 0, 0, 0, -0.7557522654533386, -2.1127262115478516, -0.17259910702705383
12015, 0.01725853607058525, -0.032463639974594116, 0.13374365866184235, 0.1358834207057953, -0.13420237600803375, -0.014435888268053532, -0.0007691362989135087, -0.0059608169831335545, 0.998414158821106, -0.7574060559272766, -2.117548704147339, -0.17299214005470276, 0.0, 0.0, 0.0, 0, 0, 0, 0, 0, 0, -0.7574060559272766, -2.117548704147339, -0.17299214005470276
12025, 0.017041321843862534, -0.032361749559640884, 0.13475245237350464, -0.05774904042482376, -0.03530644625425339, 0.17420679330825806, -0.000910285220015794, -0.00314182392321527, 1.0001229047775269, -0.759060800075531, -2.1223771572113037, -0.17338617146015167, 0.0, 0.0, 0.0, 0, 0, 0, 0, 0, 0, -0.759060800075531, -2.1223771572113037, -0.17338617146015167
12035, 0.01616666279733181, -0.03210163488984108, 0.1343468874692917, -0.107569620013237, 0.02967137284576893, -0.14968329668045044, -0.0009232760057784617, -0.004245816729962826, 0.9996933341026306, -0.7607157230377197, -2.1272103786468506, -0.17378096282482147, 0.0, 0.0, 0.0, 0, 0, 0, 0, 0, 0, -0.7607157230377197, -2.1272103786468506, -0.17378096282482147
12045, 0.017605094239115715, -0.03197558969259262, 0.13497169315814972, 0.11883437633514404, -0.061985526233911514, -0.08343339711427689, -0.004289811011403799, -0.0049042548052966595, 0.9998857975006104, -0.7623709440231323, -2.132047414779663, -0.17417596280574799, 0.0, 0.0, 0.0, 0, 0, 0, 0, 0, 0, -0.7623709440231323, -2.132047414779663, -0.17417596280574799
12055, 0.017455581575632095, -0.03178521990776062, 0.13587476313114166, 0.015875548124313354, -0.0715777575969696, 0.03128466010093689, -0.004516979213804007, -0.005518164485692978, 0.9998277425765991, -0.764028012752533, -2.1368889808654785, -0.1745712012052536, 0.0, 0.0, 0.0, 0, 0, 0, 0, 0, 0, -0.764028012752533, -2.1368889808654785, -0.1745712012052536
12065, 0.016840673983097076, -0.03260303661227226, 0.1364969164133072, -0.09643113613128662, 0.2297530323266983, 0.15560810267925262, -0.0019191968021914363, -0.004168835934251547, 1.000474452972412, -0.7656887769699097, -2.141735792160034, -0.17496654391288757, 0.0, 0.0, 0.0, 0, 0, 0, 0, 0, 0, -0.7656887769699097, -2.141735792160034, -0.17496654391288757
12075, 0.01694932021200657, -0.03327015042304993, 0.1359012871980667, 0.05959196016192436, 0.2239203155040741, 0.010190003551542759, -0.0012660492211580276, -0.004169498570263386, 1.0001046657562256, -0.7673523426055908, -2.146587371826172, -0.1753617525100708, 0.0, 0.0, 0.0, 0, 0, 0, 0, 0, 0, -0.7673523426055908, -2.146587371826172, -0.1753617525100708
12085, 0.016687724739313126, -0.03332648053765297, 0.13526910543441772, 0.015337140299379826, -0.09610102325677872, 0.002548102056607604, -0.004359664861112833, -0.004446940030902624, 0.9998431205749512, -0.769017219543457, -2.1514434814453125, -0.1757567971944809, 0.0, 0.0, 0.0, 0, 0, 0, 0, 0, 0, -0.769017219543457, -2.1514434814453125, -0.1757567971944809
12095, 0.01772899553179741, -0.0317683108150959, 0.13499829173088074, 0.10050449520349503, -0.32264435291290283, 0.07038837671279907, -0.0031072332058101892, -0.006007068790495396, 0.9993582367897034, -0.7706842422485352, -2.156304121017456, -0.1761520355939865, 0.0, 0.0, 0.0, 0, 0, 0, 0, 0, 0, -0.7706842422485352, -2.156304121017456, -0.1761520355939865
12105, 0.017632441595196724, -0.030624715611338615, 0.13551895320415497, -0.016906512901186943, -0.10973525792360306, 0.25139057636260986, -0.0034644226543605328, -0.0051766857504844666, 0.9994021654129028, -0.7723541259765625, -2.161170244216919, -0.17654787003993988, 0.0, 0.0, 0.0, 0, 0, 0, 0, 0, 0, -0.7723541259765625, -2.161170244216919, -0.17654787003993988
12115, 0.017031319439411163, -0.031137650832533836, 0.135695680975914, -0.12015525996685028, 0.11399941891431808, 0.00240779179148376, -0.0033715092577040195, -0.005870249588042498, 0.9991466403007507, -0.7740266919136047, -2.166041851043701, -0.17694446444511414, 0.0, 0.0, 0.0, 0, 0, 0, 0, 0, 0, -0.7740266919136047, -2.166041851043701, -0.17694446444511414
12125, 0.01672804169356823, -0.030238760635256767, 0.1355581134557724, -0.03928009793162346, -0.06635233014822006, -0.2681856155395508, -0.001438860665075481, -0.005551786627620459, 0.9986643195152283, -0.7757020592689514, -2.1709189414978027, -0.17734184861183167, 0.0, 0.0, 0.0, 0, 0, 0, 0, 0, 0, -0.7757020592689514, -2.1709189414978027, -0.17734184861183167
12135, 0.017277710139751434, -0.028036434203386307, 0.13607235252857208, -0.011710071004927158, -0.14223505556583405, -0.12067268043756485, -0.0013550891308113933, -0.003685982199385762, 0.9992101192474365, -0.7773794531822205, -2.1758017539978027, -0.1777401715517044, 0.0, 0.0, 0.0, 0, 0, 0, 0, 0, 0, -0.7773794531822205, -2.1758017539978027, -0.1777401715517044
12145, 0.017279818654060364, -0.028432369232177734, 0.1367836892604828, -0.08235965669155121, 0.12059499323368073, 0.01070109661668539, -0.001098455861210823, -0.004572222009301186, 1.000390648841858, -0.7790577411651611, -2.1806893348693848, -0.17813944816589355, 0.0, 0.0, 0.0, 0, 0, 0, 0, 0, 0, -0.7790577411651611, -2.1806893348693848, -0.17813944816589355
12155, 0.017328234389424324, -0.026692546904087067, 0.13702870905399323, 0.053574275225400925, -0.14288285374641418, -0.0005982215516269207, -0.0002738104376476258, -0.0041757915169000626, 0.997449517250061, -0.7807368040084839, -2.1855814456939697, -0.1785389930009842, 0.0, 0.0, 0.0, 0, 0, 0, 0, 0, 0, -0.7807368040084839, -2.1855814456939697, -0.1785389930009842
12165, 0.01711178570985794, -0.024330757558345795, 0.13726332783699036, 0.027920538559556007, -0.21952591836452484, 0.11871396750211716, -0.002477554138749838, -0.004336336627602577, 0.9967058300971985, -0.7824161648750305, -2.1904783248901367, -0.17893949151039124, 0.0, 0.0, 0.0, 0, 0, 0, 0, 0, 0, -0.7824161648750305, -2.1904783248901367, -0.17893949151039124
12175, 0.017190447077155113, -0.024904506281018257, 0.1365143358707428, 0.1425177901983261, 0.2300138622522354, -0.09602267295122147, -0.0037144517991691828, -0.005620067473500967, 0.9988660216331482, -0.7840964198112488, -2.1953797340393066, -0.179342582821846, 0.0, 0.0, 0.0, 0, 0, 0, 0, 0, 0, -0.7840964198112488, -2.1953797340393066, -0.179342582821846
12185, 0.016948988661170006, -0.024442054331302643, 0.13797493278980255, 0.0010845880024135113, -0.15549969673156738, 0.29702040553092957, -0.0021788745652884245, -0.005770426709204912, 0.9997206926345825, -0.7857791185379028, -2.200286388397217, -0.1797478199005127, 0.0, 0.0, 0.0, 0, 0, 0, 0, 0, 0, -0.7857791185379028, -2.200286388397217, -0.1797478199005127
12195, 0.016224555671215057, -0.023884033784270287, 0.1384640783071518, -0.004158166702836752, -0.2337883859872818, 0.054290901869535446, -0.0020302189514040947, -0.004580958280712366, 0.9997062683105469, -0.7874642014503479, -2.2051987648010254, -0.18015384674072266, 0.0, 0.0, 0.0, 0, 0, 0, 0, 0, 0, -0.7874642014503479, -2.2051987648010254, -0.18015384674072266
12205, 0.016631780192255974, -0.025793928653001785, 0.13846918940544128, 0.11203338205814362, 0.07017317414283752, 0.0573248416185379, -0.0008916686056181788, -0.005612093489617109, 0.9994800686836243, -0.7891510725021362, -2.2101166248321533, -0.1805601418018341, 0.0, 0.0, 0.0, 0, 0, 0, 0, 0, 0, -0.7891510725021362, -2.2101166248321533, -0.1805601418018341
12215, 0.017211738973855972, -0.025941263884305954, 0.1393575519323349, 0.047471724450588226, 0.06268506497144699, 0.04771833121776581, -0.001968467142432928, -0.004546895623207092, 1.0013669729232788, -0.7908391356468201, -2.2150397300720215, -0.1809667944908142, 0.0, 0.0, 0.0, 0, 0, 0, 0, 0, 0, -0.7908391356468201, -2.2150397300720215, -0.1809667944908142
12225, 0.016064831987023354, -0.026712272316217422, 0.13903175294399261, -0.15020455420017242, 0.0983254536986351, -0.0039718723855912685, -0.0027001455891877413, -0.0061624725349247456, 1.0005898475646973, -0.7925280928611755, -2.21996808052063, -0.18137331306934357, 0.0, 0.0, 0.0, 0, 0, 0, 0, 0, 0, -0.7925280928611755, -2.21996808052063, -0.18137331306934357
12235, 0.015601243823766708, -0.02696244604885578, 0.14051052927970886, -0.04434525594115257, -0.024616258218884468, 0.3853301405906677, -0.0006443225429393351, -0.004900685977190733, 0.9999887943267822, -0.7942187190055847, -2.2249019145965576, -0.18177905678749084, 0.0, 0.0, 0.0, 0, 0, 0, 0, 0, 0, -0.7942187190055847, -2.2249019145965576, -0.18177905678749084
12245, 0.01528056338429451, -0.02789444662630558, 0.14000572264194489, -0.02248479053378105, 0.14916692674160004, -0.07725371420383453, -0.0017099885735660791, -0.003881627693772316, 0.999213457107544, -0.795910656452179, -2.2298412322998047, -0.18218447268009186, 0.0, 0.0, 0.0, 0, 0, 0, 0, 0, 0, -0.795910656452179, -2.2298412322998047, -0.18218447268009186
12255, 0.014068986289203167, -0.027971893548965454, 0.14031116664409637, -0.10114211589097977, 0.032840944826602936, 0.08502249419689178, -0.0024575418792665005, -0.005553289782255888, 0.9999971389770508, -0.7976034283638, -2.234785318374634, -0.18259021639823914, 0.0, 0.0, 0.0, 0, 0, 0, 0, 0, 0, -0.7976034283638, -2.234785318374634, -0.18259021639823914
12265, 0.013914119452238083, -0.026831788942217827, 0.1405433565378189, 0.04010748863220215, 0.09545625746250153, 0.06544077396392822, -0.00106696633156389, -0.004398363642394543, 1.0014539957046509, -0.7992976307868958, -2.239734172821045, -0.1829962283372879, 0.0, 0.0, 0.0, 0, 0, 0, 0, 0, 0, -0.7992976307868958, -2.239734172821045, -0.1829962283372879
12275, 0.014457285404205322, -0.028047095984220505, 0.14106976985931396, 0.0775282010436058, 0.3376012444496155, -0.09614851325750351, 0.0002001825050683692, -0.006875055842101574, 1.0000932216644287, -0.800993025302887, -2.2446885108947754, -0.18340155482292175, 0.0, 0.0, 0.0, 0, 0, 0, 0, 0, 0, -0.800993025302887, -2.2446885108947754, -0.18340155482292175
12285, 0.014585567638278008, -0.02746681310236454, 0.14144134521484375, -0.02051258645951748, -0.14351041615009308, -0.07529521733522415, -0.0001922820374602452, -0.005442863330245018, 0.9996917843818665, -0.802688479423523, -2.2496485710144043, -0.1838059276342392, 0.0, 0.0, 0.0, 0, 0, 0, 0, 0, 0, -0.802688479423523, -2.2496485710144043, -0.1838059276342392
12295, 0.014620103873312473, -0.028130516409873962, 0.14196595549583435, 0.055172596126794815, 0.012302570044994354, 0.06690686196088791, -0.0009674466564320028, -0.0035147948656231165, 0.9996169209480286, -0.8043835163116455, -2.25461483001709, -0.18421021103858948, 0.0, 0.0, 0.0, 0, 0, 0, 0, 0, 0, -0.8043835163116455, -2.25461483001709, -0.18421021103858948
12305, 0.015215496532619, -0.02714405208826065, 0.14155061542987823, 0.0725281685590744, -0.25720927119255066, -0.14448852837085724, -0.00028835132252424955, -0.004855366423726082, 1.0008845329284668, -0.8060784935951233, -2.2595858573913574, -0.18461492657661438, 0.0, 0.0, 0.0, 0, 0, 0, 0, 0, 0, -0.8060784935951233, -2.2595858573913574, -0.18461492657661438
12315, 0.0151459239423275, -0.028277922421693802, 0.1417851448059082, 0.05968743935227394, 0.15928807854652405, 0.057445164769887924, -0.0013007910456508398, -0.005613739602267742, 1.0012491941452026, -0.8077736496925354, -2.264561176300049, -0.18501940369606018, 0.0, 0.0, 0.0, 0, 0, 0, 0, 0, 0, -0.8077736496925354, -2.264561176300049, -0.18501940369606018
12325, 0.015155036933720112, -0.028078923001885414, 0.14260292053222656, 0.0798516795039177, 0.05395716428756714, 0.04649338126182556, -0.0014970172196626663, -0.005510860588401556, 0.999556303024292, -0.8094692230224609, -2.2695417404174805, -0.18542279303073883, 0.0, 0.0, 0.0, 0, 0, 0, 0, 0, 0, -0.8094692230224609, -2.2695417404174805, -0.18542279303073883
12335, 0.015357312746345997, -0.02621842920780182, 0.1410856395959854, 0.03158370777964592, -0.3069431185722351, -0.2317178100347519, -0.0037812578957527876, -0.004479613620787859, 0.9980390071868896, -0.8111657500267029, -2.2745280265808105, -0.18582573533058167, 0.0, 0.0, 0.0, 0, 0, 0, 0, 0, 0, -0.8111657500267029, -2.2745280265808105, -0.18582573533058167
12345, 0.014872209168970585, -0.02540541999042034, 0.14059968292713165, -0.17494401335716248, -0.039631761610507965, -0.01667562499642372, -0.00428443867713213, -0.004440842662006617, 0.9995512962341309, -0.8128644227981567, -2.2795190811157227, -0.18622981011867523, 0.0, 0.0, 0.0, 0, 0, 0, 0, 0, 0, -0.8128644227981567, -2.2795190811157227, -0.18622981011867523
12355, 0.014533045701682568, -0.02523583360016346, 0.13890862464904785, -0.06141863763332367, -0.09227432310581207, -0.1049971878528595, -0.0018862261204048991, -0.0038753938861191273, 1.00027596950531, -0.8145664930343628, -2.2845144271850586, -0.1866351068019867, 0.0, 0.0, 0.0, 0, 0, 0, 0, 0, 0, -0.8145664930343628, -2.2845144271850586, -0.1866351068019867
12365, 0.014619920402765274, -0.024886388331651688, 0.13992226123809814, 0.029582981020212173, 0.05688304454088211, 0.16075731813907623, -0.0017636582488194108, -0.0036450049374252558, 0.9996038675308228, -0.8162710666656494, -2.2895140647888184, -0.18704064190387726, 0.0, 0.0, 0.0, 0, 0, 0, 0, 0, 0, -0.8162710666656494, -2.2895140647888184, -0.18704064190387726
12375, 0.014523763209581375, -0.026380032300949097, 0.14033348858356476, -0.04697117954492569, 0.13298089802265167, 0.1609058827161789, -0.0022084610536694527, -0.007285289000719786, 1.0003666877746582, -0.8179770112037659, -2.294517755508423, -0.18744640052318573, 0.0, 0.0, 0.0, 0, 0, 0, 0, 0, 0, -0.8179770112037659, -2.294517755508423, -0.18744640052318573
12385, 0.014943824149668217, -0.02712424471974373, 0.14121240377426147, -0.0054275705479085445, 0.07655174285173416, 0.20036646723747253, -0.0032157928217202425, -0.005730340722948313, 1.0007843971252441, -0.8196845054626465, -2.2995266914367676, -0.18785229325294495, 0.0, 0.0, 0.0, 0, 0, 0, 0, 0, 0, -0.8196845054626465, -2.2995266914367676, -0.18785229325294495
12395, 0.01390028279274702, -0.026112446561455727, 0.14096197485923767, -0.21720720827579498, -0.1933940052986145, 0.002274938393384218, -0.0034516234882175922, -0.004849879536777735, 0.9981642961502075, -0.8213939666748047, -2.304542064666748, -0.18825769424438477, 0.0, 0.0, 0.0, 0, 0, 0, 0, 0, 0, -0.8213939666748047, -2.304542064666748, -0.18825769424438477
12405, 0.013594561256468296, -0.026712100952863693, 0.1400332748889923, 0.012627067975699902, 0.03280995786190033, -0.06993817538022995, -0.00025354704121127725, -0.005998165812343359, 1.001018762588501, -0.823106050491333, -2.309563159942627, -0.18866340816020966, 0.0, 0.0, 0.0, 0, 0, 0, 0, 0, 0, -0.823106050491333, -2.309563159942627, -0.18866340816020966
12415, 0.013763378374278545, -0.02646569162607193, 0.1408328413963318, 0.010408921167254448, -0.11835972219705582, 0.087701216340065, -0.001294175162911415, -0.007140538655221462, 0.9995078444480896, -0.8248196244239807, -2.3145899772644043, -0.18906934559345245, 0.0, 0.0, 0.0, 0, 0, 0, 0, 0, 0, -0.8248196244239807, -2.3145899772644043, -0.18906934559345245
12425, 0.013151641003787518, -0.025386586785316467, 0.141365185379982, -0.16418687999248505, -0.1458953320980072, -0.02113167941570282, -0.003012753091752529, -0.006731713190674782, 0.9994220733642578, -0.8265335559844971, -2.3196237087249756, -0.18947505950927734, 0.0, 0.0, 0.0, 0, 0, 0, 0, 0, 0, -0.8265335559844971, -2.3196237087249756, -0.18947505950927734
12435, 0.012837804853916168, -0.0251128189265728, 0.1425689160823822, 0.0013163245748728514, -0.17124037444591522, 0.07898132503032684, -0.0023556980304419994, -0.004856495652347803, 1.000463604927063, -0.828248918056488, -2.32466459274292, -0.1898811012506485, 0.0, 0.0, 0.0, 0, 0, 0, 0, 0, 0, -0.828248918056488, -2.32466459274292, -0.1898811012506485
12445, 0.012495175935328007, -0.024903586134314537, 0.141801655292511, 0.004342342726886272, -0.21051612496376038, -0.2752671539783478, -0.00012746191350743175, -0.006247492041438818, 0.9993457794189453, -0.8299664855003357, -2.329711437225342, -0.19028711318969727, 0.0, 0.0, 0.0, 0, 0, 0, 0, 0, 0, -0.8299664855003357, -2.329711437225342, -0.19028711318969727
12455, 0.012710047885775566, -0.0253000445663929, 0.1418583244085312, 0.08486408740282059, 0.003052694257348776, 0.004495361354202032, -0.0008505904115736485, -0.007141499314457178, 0.9973574280738831, -0.8316850662231445, -2.334764003753662, -0.19069324433803558, 0.0, 0.0, 0.0, 0, 0, 0, 0, 0, 0, -0.8316850662231445, -2.334764003753662, -0.19069324433803558
12465, 0.01192785706371069, -0.02755262888967991, 0.14187858998775482, -0.12452095746994019, 0.36039999127388, 0.03290220722556114, -0.0022476566955447197, -0.005935489200055599, 0.9990809559822083, -0.8334038853645325, -2.3398232460021973, -0.1911008358001709, 0.0, 0.0, 0.0, 0, 0, 0, 0, 0, 0, -0.8334038853645325, -2.3398232460021973, -0.1911008358001709
12475, 0.012219457887113094, -0.026671485975384712, 0.14228272438049316, 0.05740201473236084, -0.12217967212200165, 0.08093968778848648, -0.0017016041092574596, -0.005729631055146456, 0.9984666109085083, -0.8351238369941711, -2.3448894023895264, -0.19151021540164948, 0.0, 0.0, 0.0, 0, 0, 0, 0, 0, 0, -0.8351238369941711, -2.3448894023895264, -0.19151021540164948
12485, 0.011760919354856014, -0.027498191222548485, 0.1421021819114685, -0.015779564157128334, 0.09406114369630814, 0.06875687837600708, -0.002330539748072624, -0.0047181034460663795, 0.9976750612258911, -0.8368451595306396, -2.349961519241333, -0.19192101061344147, 0.0, 0.0, 0.0, 0, 0, 0, 0, 0, 0, -0.8368451595306396, -2.349961519241333, -0.19192101061344147
12495, 0.012572584673762321, -0.02825693041086197, 0.14193224906921387, 0.22932200133800507, 0.022770540788769722, -0.07186488807201385, -0.0017828787676990032, -0.0025272066704928875, 0.9997239708900452, -0.8385679721832275, -2.355039119720459, -0.1923336535692215, 0.0, 0.0, 0.0, 0, 0, 0, 0, 0, 0, -0.8385679721832275, -2.355039119720459, -0.1923336535692215
12505, 0.012464560568332672, -0.02854488231241703, 0.14235439896583557, 0.04579257220029831, -0.007539546117186546, 0.10008236020803452, -0.0018670730059966445, -0.0038177568931132555, 1.0013872385025024, -0.8402923941612244, -2.3601205348968506, -0.19274744391441345, 0.0, 0.0, 0.0, 0, 0, 0, 0, 0, 0, -0.8402923941612244, -2.3601205348968506, -0.19274744391441345
12515, 0.01194119080901146, -0.028626112267374992, 0.1414031833410263, 0.11108840256929398, 0.06695788353681564, -0.17704731225967407, -0.004147020634263754, -0.0036911824718117714, 0.9993966817855835, -0.8420183658599854, -2.3652052879333496, -0.19316083192825317, 0.0, 0.0, 0.0, 0, 0, 0, 0, 0, 0, -0.8420183658599854, -2.3652052879333496, -0.19316083192825317
12525, 0.01143153291195631, -0.030476056039333344, 0.14248089492321014, 0.031195400282740593, 0.46301355957984924, 0.14323009550571442, -0.002086086431518197, -0.004601890686899424, 1.0006814002990723, -0.8437468409538269, -2.3702940940856934, -0.19357389211654663, 0.0, 0.0, 0.0, 0, 0, 0, 0, 0, 0, -0.8437468409538269, -2.3702940940856934, -0.19357389211654663
12535, 0.012394949793815613, -0.030555587261915207, 0.14357352256774902, 0.18313901126384735, 0.2154628485441208, 0.03611541911959648, -0.0025761344004422426, -0.005836258176714182, 1.0004820823669434, -0.845477819442749, -2.375387191772461, -0.1939869076013565, 0.0, 0.0, 0.0, 0, 0, 0, 0, 0, 0, -0.845477819442749, -2.375387191772461, -0.1939869076013565
12545, 0.01204235851764679, -0.032166022807359695, 0.14367303252220154, -0.08657720685005188, 0.44032055139541626, 0.08640779554843903, -0.0019963416270911694, -0.00687390984967351, 0.9982544183731079, -0.8472104668617249, -2.3804855346679688, -0.19439950585365295, 0.0, 0.0, 0.0, 0, 0, 0, 0, 0, 0, -0.8472104668617249, -2.3804855346679688, -0.19439950585365295
12555, 0.011220606043934822, -0.03224175050854683, 0.14337754249572754, -0.08121170848608017, 0.11482134461402893, -0.04847678542137146, -0.004641599487513304, -0.004587655421346426, 0.9975971579551697, -0.8489446043968201, -2.3855903148651123, -0.19481272995471954, 0.0, 0.0, 0.0, 0, 0, 0, 0, 0, 0, -0.8489446043968201, -2.3855903148651123, -0.19481272995471954
12565, 0.009923704899847507, -0.03272730112075806, 0.14316578209400177, -0.08770548552274704, -0.06905575096607208, -0.012888799421489239, -0.002941710641607642, -0.005560696125030518, 0.9971979856491089, -0.8506810069084167, -2.3907010555267334, -0.19522793591022491, 0.0, 0.0, 0.0, 0, 0, 0, 0, 0, 0, -0.8506810069084167, -2.3907010555267334, -0.19522793591022491
12575, 0.0096844881772995, -0.033316243439912796, 0.14235663414001465, 0.03626352548599243, -0.12007313966751099, -0.07620395720005035, -0.0008263092604465783, -0.0033938204869627953, 0.999862790107727, -0.8524203300476074, -2.3958170413970947, -0.1956457495689392, 0.0, 0.0, 0.0, 0, 0, 0, 0, 0, 0, -0.8524203300476074, -2.3958170413970947, -0.1956457495689392
12585, 0.010050125420093536, -0.034490641206502914, 0.14326772093772888, 0.05811319500207901, 0.011340375989675522, 0.0485878624022007, -0.0013689949410036206, -0.004316834267228842, 0.9993683695793152, -0.8541613221168518, -2.400937795639038, -0.19606517255306244, 0.0, 0.0, 0.0, 0, 0, 0, 0, 0, 0, -0.8541613221168518, -2.400937795639038, -0.19606517255306244
12595, 0.009348209016025066, -0.032293081283569336, 0.1425788551568985, -0.12997935712337494, -0.24470403790473938, -0.08081746101379395, -0.0014210606459528208, -0.004220019560307264, 0.9989262223243713, -0.8559027314186096, -2.406062364578247, -0.19648504257202148, 0.0, 0.0, 0.0, 0, 0, 0, 0, 0, 0, -0.8559027314186096, -2.406062364578247, -0.19648504257202148
12605, 0.009791850112378597, -0.031456079334020615, 0.14151430130004883, 0.06000789254903793, 0.08542776852846146, 0.00011725811782525852, -0.0025526925455778837, -0.0048142531886696815, 1.0006628036499023, -0.8576446771621704, -2.41119122505188, -0.19690585136413574, 0.0, 0.0, 0.0, 0, 0, 0, 0, 0, 0, -0.8576446771621704, -2.41119122505188, -0.19690585136413574
12615, 0.009059416130185127, -0.03177350014448166, 0.1400788277387619, -0.0009081621537916362, 0.07290229946374893, -0.19768878817558289, -0.0016769837820902467, -0.0027609674725681543, 1.000892996788025, -0.8593878149986267, -2.4163246154785156, -0.19732728600502014, 0.0, 0.0, 0.0, 0, 0, 0, 0, 0, 0, -0.8593878149986267, -2.4163246154785156, -0.19732728600502014
12625, 0.00885914545506239, -0.03350922092795372, 0.14052827656269073, 0.11510096490383148, -0.06815502047538757, 0.1348000466823578, -0.002431238302960992, -0.005160324275493622, 0.9999579191207886, -0.8611325025558472, -2.421462059020996, -0.19774828851222992, 0.0, 0.0, 0.0, 0, 0, 0, 0, 0, 0, -0.8611325025558472, -2.421462059020996, -0.19774828851222992
12635, 0.009147090837359428, -0.03277081251144409, 0.14129498600959778, 0.0791940689086914, -0.10314787179231644, 0.057494115084409714, -0.0007598339579999447, -0.00620271684601903, 0.9999972581863403, -0.8630533814430237, -2.4271183013916016, -0.19821080565452576, 0.0, 0.0, 0.0, 0, 0, 0, 0, 0, 0, -0.8630533814430237, -2.4271183013916016, -0.19821080565452576
12645, 0.008830826729536057, -0.03154539689421654, 0.14049075543880463, 0.06697411090135574, -0.1184140145778656, -0.1510489284992218, -0.002062033861875534, -0.007153784390538931, 0.9986615180969238, -0.8648008704185486, -2.4322659969329834, -0.19863128662109375, 0.0, 0.0, 0.0, 0, 0, 0, 0, 0, 0, -0.8648008704185486, -2.4322659969329834, -0.19863128662109375
12655, 0.008845504373311996, -0.031268756836652756, 0.1400078982114792, -0.049854665994644165, -0.07773424685001373, -0.07449450343847275, -0.0016462564235553145, -0.007868247106671333, 0.999983549118042, -0.8665493726730347, -2.437420129776001, -0.19905246794223785, 0.0, 0.0, 0.0, 0, 0, 0, 0, 0, 0, -0.8665493726730347, -2.437420129776001, -0.19905246794223785
12665, 0.00837170984596014, -0.03377366438508034, 0.14026673138141632, -0.13213175535202026, 0.312317818403244, 0.08064469695091248, -0.0006597346509806812, -0.006241222843527794, 1.0013507604599, -0.868299126625061, -2.4425816535949707, -0.19947411119937897, 0.0, 0.0, 0.0, 0, 0, 0, 0, 0, 0, -0.868299126625061, -2.4425816535949707, -0.19947411119937897
12675, 0.007898539304733276, -0.034539759159088135, 0.14023514091968536, -0.016925564035773277, 0.09643588215112686, -0.09867243468761444, -0.0003403791633900255, -0.0046213106252253056, 0.9981111288070679, -0.8700495362281799, -2.4477500915527344, -0.19989512860774994, 0.0, 0.0, 0.0, 0, 0, 0, 0, 0, 0, -0.8700495362281799, -2.4477500915527344, -0.19989512860774994
12685, 0.0069220117293298244, -0.033953066915273666, 0.13937392830848694, -0.04837779328227043, 0.24917970597743988, -0.04348459094762802, -0.003063780255615711, -0.0048201666213572025, 0.9987531900405884, -0.8717999458312988, -2.4529240131378174, -0.20031633973121643, 0.0, 0.0, 0.0, 0, 0, 0, 0, 0, 0, -0.8717999458312988, -2.4529240131378174, -0.20031633973121643
12695, 0.007792309857904911, -0.03290049731731415, 0.14031045138835907, 0.0894070565700531, -0.12053360044956207, 0.11317536234855652, -0.0025924029760062695, -0.004242469556629658, 0.9998549818992615, -0.8735513091087341, -2.4581027030944824, -0.2007388025522232, 0.0, 0.0, 0.0, 0, 0, 0, 0, 0, 0, -0.8735513091087341, -2.4581027030944824, -0.2007388025522232
12705, 0.009071912616491318, -0.03353988006711006, 0.14022624492645264, 0.14508239924907684, 0.03318765386939049, -0.05829611420631409, -0.0020151252392679453, -0.004472025670111179, 0.999117910861969, -0.8753047585487366, -2.4632856845855713, -0.20116183161735535, 0.0, 0.0, 0.0, 0, 0, 0, 0, 0, 0, -0.8753047585487366, -2.4632856845855713, -0.20116183161735535
12715, 0.00829615443944931, -0.031305838376283646, 0.1382914036512375, -0.09513020515441895, -0.09019383043050766, -0.04059375077486038, -0.00038015746395103633, -0.005093061830848455, 1.0010775327682495, -0.8770596981048584, -2.468473196029663, -0.20158514380455017, 0.0, 0.0, 0.0, 0, 0, 0, 0, 0, 0, -0.8770596981048584, -2.468473196029663, -0.20158514380455017
12725, 0.009288536384701729, -0.031616367399692535, 0.13852600753307343, 0.1023668423295021, 0.0642286017537117, 0.04905090853571892, -0.001670403522439301, -0.004793793428689241, 1.0005906820297241, -0.878815233707428, -2.473665714263916, -0.2020082175731659, 0.0, 0.0, 0.0, 0, 0, 0, 0, 0, 0, -0.878815233707428, -2.473665714263916, -0.2020082175731659
12735, 0.00924407597631216, -0.03113972768187523, 0.1377680003643036, -0.017339622601866722, -0.05257481709122658, 0.0001445913512725383, -0.003192179836332798, -0.007284605409950018, 0.998375654220581, -0.8805714249610901, -2.47886323928833, -0.2024306356906891, 0.0, 0.0, 0.0, 0, 0, 0, 0, 0, 0, -0.8805714249610901, -2.47886323928833, -0.2024306356906891
12745, 0.009736207313835621, -0.028858177363872528, 0.13923348486423492, 0.1400425136089325, -0.1838940680027008, 0.2747666835784912, -0.003433345817029476, -0.007778181694447994, 0.9985425472259521, -0.8823294639587402, -2.4840667247772217, -0.20285359025001526, 0.0, 0.0, 0.0, 0, 0, 0, 0, 0, 0, -0.8823294639587402, -2.4840667247772217, -0.20285359025001526
12755, 0.008882819674909115, -0.029581675305962563, 0.1378968060016632, -0.05910158157348633, 0.06143892556428909, -0.06432786583900452, -0.002663950901478529, -0.004657051991671324, 0.9998319745063782, -0.8840901255607605, -2.4892776012420654, -0.20327803492546082, 0.0, 0.0, 0.0, 0, 0, 0, 0, 0, 0, -0.8840901255607605, -2.4892776012420654, -0.20327803492546082
12765, 0.009261845611035824, -0.02917897328734398, 0.13664117455482483, 0.014498880133032799, -0.14931392669677734, -0.013606864027678967, -0.0022281971760094166, -0.005571191199123859, 1.0000994205474854, -0.8858533501625061, -2.494494676589966, -0.2037033885717392, 0.0, 0.0, 0.0, 0, 0, 0, 0, 0, 0, -0.8858533501625061, -2.494494676589966, -0.2037033885717392
12775, 0.009153278544545174, -0.02819356508553028, 0.13625653088092804, 0.024010300636291504, -0.24355551600456238, -0.11700510233640671, -0.0009852615185081959, -0.004770529456436634, 1.0018281936645508, -0.8876184821128845, -2.4997169971466064, -0.20412877202033997, 0.0, 0.0, 0.0, 0, 0, 0, 0, 0, 0, -0.8876184821128845, -2.4997169971466064, -0.20412877202033997
12785, 0.00909641943871975, -0.02866915799677372, 0.13616323471069336, -0.0051627010107040405, 0.2031482458114624, -0.007419624365866184, -0.0018759702797979116, -0.0055515156127512455, 1.000504493713379, -0.8893846869468689, -2.5049445629119873, -0.20455323159694672, 0.0, 0.0, 0.0, 0, 0, 0, 0, 0, 0, -0.8893846869468689, -2.5049445629119873, -0.20455323159694672
12795, 0.008779606781899929, -0.028407985344529152, 0.13700275123119354, -0.04257624223828316, -0.021189721301198006, 0.14474698901176453, -0.0008505582227371633, -0.004348248243331909, 1.0007447004318237, -0.8911517262458801, -2.5101773738861084, -0.20497646927833557, 0.0, 0.0, 0.0, 0, 0, 0, 0, 0, 0, -0.8911517262458801, -2.5101773738861084, -0.20497646927833557
12805, 0.008740732446312904, -0.02831544168293476, 0.13585910201072693, -0.09342031180858612, 0.037449438124895096, -0.08793315291404724, -0.001003239187411964, -0.0035129364114254713, 0.9986231923103333, -0.8929196000099182, -2.5154149532318115, -0.20539911091327667, 0.0, 0.0, 0.0, 0, 0, 0, 0, 0, 0, -0.8929196000099182, -2.5154149532318115, -0.20539911091327667
12815, 0.009190850891172886, -0.02430257759988308, 0.13571223616600037, -0.0007077816990204155, -0.6211510896682739, -0.051641449332237244, -0.0025413574185222387, -0.0051278118044137955, 0.9986344575881958, -0.8946881294250488, -2.5206565856933594, -0.20582234859466553, 0.0, 0.0, 0.0, 0, 0, 0, 0, 0, 0, -0.8946881294250488, -2.5206565856933594, -0.20582234859466553
12825, 0.009172874502837658, -0.02686343342065811, 0.13576997816562653, -0.062070850282907486, 0.2506965696811676, -0.17782627046108246, -0.001793280360288918, -0.005790340714156628, 1.0000871419906616, -0.896458089351654, -2.52590274810791, -0.20624710619449615, 0.0, 0.0, 0.0, 0, 0, 0, 0, 0, 0, -0.896458089351654, -2.52590274810791, -0.20624710619449615
12835, 0.01066618226468563, -0.027028480544686317, 0.13570941984653473, 0.13192686438560486, -0.13630369305610657, -0.01212217565625906, -0.00179467408452183, -0.008232557214796543, 0.9979912042617798, -0.8982298374176025, -2.5311546325683594, -0.20667263865470886, 0.0, 0.0, 0.0, 0, 0, 0, 0, 0, 0, -0.8982298374176025, -2.5311546325683594, -0.20667263865470886
12845, 0.010455377399921417, -0.027793819084763527, 0.13592197000980377, 0.008817666210234165, 0.16081979870796204, -0.010449417866766453, -0.003849368542432785, -0.007212890777736902, 0.9958440065383911, -0.9000031352043152, -2.5364134311676025, -0.20709918439388275, 0.0, 0.0, 0.0, 0, 0, 0, 0, 0, 0, -0.9000031352043152, -2.5364134311676025, -0.20709918439388275
12855, 0.010887247510254383, -0.029035858809947968, 0.1379682719707489, 0.03591768816113472, 0.3197479844093323, 0.22471953928470612, -0.0056169540621340275, -0.006982587743550539, 0.9976211786270142, -0.9017788767814636, -2.541679859161377, -0.20752842724323273, 0.0, 0.0, 0.0, 0, 0, 0, 0, 0, 0, -0.9017788767814636, -2.541679859161377, -0.20752842724323273
12865, 0.010814197361469269, -0.029769226908683777, 0.13667933642864227, 0.030289985239505768, 0.080874003469944, -0.11089161038398743, -0.003197553800418973, -0.0052877552807331085, 0.9986556768417358, -0.9035584926605225, -2.5469532012939453, -0.20796072483062744, 0.0, 0.0, 0.0, 0, 0, 0, 0, 0, 0, -0.9035584926605225, -2.5469532012939453, -0.20796072483062744
12875, 0.010115965269505978, -0.028737448155879974, 0.13540059328079224, 0.05892011523246765, -0.4382825195789337, -0.08246148377656937, -0.002227189252153039, -0.007021917495876551, 1.0004044771194458, -0.9053415656089783, -2.5522327423095703, -0.20839491486549377, 0.0, 0.0, 0.0, 0, 0, 0, 0, 0, 0, -0.9053415656089783, -2.5522327423095703, -0.20839491486549377
12885, 0.008653299883008003, -0.02913183532655239, 0.13556919991970062, -0.04287206754088402, 0.0008096086676232517, 0.1529301553964615, -0.002335374243557453, -0.005815686658024788, 0.9987772107124329, -0.9071268439292908, -2.557518482208252, -0.2088296115398407, 0.0, 0.0, 0.0, 0, 0, 0, 0, 0, 0, -0.9071268439292908, -2.557518482208252, -0.2088296115398407
12895, 0.007868397049605846, -0.027954647317528725, 0.1345541626214981, -0.055062636733055115, -0.17657098174095154, -0.03508909419178963, -0.0018331976607441902, -0.005447873380035162, 0.9994929432868958, -0.9089138507843018, -2.5628106594085693, -0.2092648297548294, 0.0, 0.0, 0.0, 0, 0, 0, 0, 0, 0, -0.9089138507843018, -2.5628106594085693, -0.2092648297548294
12905, 0.007874220609664917, -0.029104508459568024, 0.13580851256847382, 0.019146479666233063, 0.10188653320074081, 0.2497463971376419, -0.002765724901109934, -0.006133337505161762, 0.9973006248474121, -0.9107024669647217, -2.5681087970733643, -0.20970101654529572, 0.0, 0.0, 0.0, 0, 0, 0, 0, 0, 0, -0.9107024669647217, -2.5681087970733643, -0.20970101654529572
12915, 0.008320187218487263, -0.028380312025547028, 0.13527266681194305, 0.026440778747200966, -0.14745981991291046, -0.14302587509155273, -0.003319846000522375, -0.003563070436939597, 0.9981370568275452, -0.9124928712844849, -2.5734126567840576, -0.21013890206813812, 0.0, 0.0, 0.0, 0, 0, 0, 0, 0, 0, -0.9124928712844849, -2.5734126567840576, -0.21013890206813812
12925, 0.007266928907483816, -0.028906960040330887, 0.13671039044857025, -0.12270888686180115, 0.05368493124842644, 0.23859326541423798, -0.004023686982691288, -0.005835150834172964, 1.0003561973571777, -0.9142858386039734, -2.578721523284912, -0.21057894825935364, 0.0, 0.0, 0.0, 0, 0, 0, 0, 0, 0, -0.9142858386039734, -2.578721523284912, -0.21057894825935364
12935, 0.006296766456216574, -0.028324859216809273, 0.13746275007724762, -0.13632993400096893, 0.015472812578082085, 0.07543457299470901, -0.0030061176512390375, -0.005804379470646381, 1.0019495487213135, -0.9160817861557007, -2.5840353965759277, -0.21101954579353333, 0.0, 0.0, 0.0, 0, 0, 0, 0, 0, 0, -0.9160817861557007, -2.5840353965759277, -0.21101954579353333
12945, 0.005738306790590286, -0.03003404475748539, 0.13692180812358856, -0.015557123348116875, 0.2342645525932312, -0.06105411797761917, -0.0016231427434831858, -0.005454719997942448, 1.0011610984802246, -0.9178805351257324, -2.589354991912842, -0.21145889163017273, 0.0, 0.0, 0.0, 0, 0, 0, 0, 0, 0, -0.9178805351257324, -2.589354991912842, -0.21145889163017273
12955, 0.006119919940829277, -0.027486978098750114, 0.13704466819763184, 0.07385291159152985, -0.13133859634399414, 0.05674392357468605, -0.0014923521084710956, -0.0067252423614263535, 0.9989987015724182, -0.9196809530258179, -2.5946803092956543, -0.2118968963623047, 0.0, 0.0, 0.0, 0, 0, 0, 0, 0, 0, -0.9196809530258179, -2.5946803092956543, -0.2118968963623047
12965, 0.007159911096096039, -0.025058563798666, 0.13876411318778992, 0.16255569458007812, -0.3303971290588379, 0.15508732199668884, -0.001727829221636057, -0.00711341667920351, 0.9992175698280334, -0.9214823842048645, -2.6000118255615234, -0.2123350203037262, 0.0, 0.0, 0.0, 0, 0, 0, 0, 0, 0, -0.9214823842048645, -2.6000118255615234, -0.2123350203037262
12975, 0.007319440133869648, -0.0245400071144104, 0.13859446346759796, 0.1291053295135498, -0.011760219931602478, -0.06887514889240265, -0.0011216398561373353, -0.005975525826215744, 1.0008201599121094, -0.9232848882675171, -2.6053502559661865, -0.21277391910552979, 0.0, 0.0, 0.0, 0, 0, 0, 0, 0, 0, -0.9232848882675171, -2.6053502559661865, -0.21277391910552979
12985, 0.006168621126562357, -0.022767674177885056, 0.13900065422058105, -0.1084367111325264, -0.2863643765449524, 0.1826760470867157, -0.0024431722704321146, -0.003973256330937147, 1.0019572973251343, -0.9250881671905518, -2.6106951236724854, -0.21321262419223785, 0.0, 0.0, 0.0, 0, 0, 0, 0, 0, 0, -0.9250881671905518, -2.6106951236724854, -0.21321262419223785
12995, 0.006416723132133484, -0.02192581817507744, 0.13922208547592163, -0.022971725091338158, -0.030058838427066803, 0.10283979028463364, -0.002941737649962306, -0.004162192810326815, 0.9994494318962097, -0.9268926978111267, -2.616044759750366, -0.21365010738372803, 0.0, 0.0, 0.0, 0, 0, 0, 0, 0, 0, -0.9268926978111267, -2.616044759750366, -0.21365010738372803
13005, 0.007300178520381451, -0.020856978371739388, 0.1404501348733902, 0.15080787241458893, -0.07174178957939148, 0.27444902062416077, -0.0006167558021843433, -0.006592931691557169, 0.9984194040298462, -0.9286993741989136, -2.621398448944092, -0.2140870988368988, 0.0, 0.0, 0.0, 0, 0, 0, 0, 0, 0, -0.9286993741989136, -2.621398448944092, -0.2140870988368988
13015, 0.006398164667189121, -0.02229961007833481, 0.14003820717334747, -0.1381281018257141, 0.1478351205587387, 0.07447496056556702, -0.0009056016569957137, -0.006574154831469059, 1.000299334526062, -0.9305074214935303, -2.6267576217651367, -0.21452496945858002, 0.0, 0.0, 0.0, 0, 0, 0, 0, 0, 0, -0.9305074214935303, -2.6267576217651367, -0.21452496945858002
13025, 0.006491448730230331, -0.022213758900761604, 0.1400320827960968, 0.22116264700889587, 0.004210511222481728, 0.07602468132972717, -0.003998749423772097, -0.005181238986551762, 0.9990024566650391, -0.9323161840438843, -2.6321234703063965, -0.21496345102787018, 0.0, 0.0, 0.0, 0, 0, 0, 0, 0, 0, -0.9323161840438843, -2.6321234703063965, -0.21496345102787018
13035, 0.006680103484541178, -0.020371360704302788, 0.1384507715702057, 0.09055058658123016, -0.37391355633735657, -0.0970812514424324, -0.004186320584267378, -0.006177383940666914, 0.9987878203392029, -0.9341272115707397, -2.6374950408935547, -0.21540246903896332, 0.0, 0.0, 0.0, 0, 0, 0, 0, 0, 0, -0.9341272115707397, -2.6374950408935547, -0.21540246903896332
13045, 0.007047997787594795, -0.020386693999171257, 0.1388651579618454, 0.07983052730560303, 0.01433752290904522, 0.07089613378047943, -0.0003849275235552341, -0.004984986037015915, 0.9991457462310791, -0.9359414577484131, -2.6428723335266113, -0.21584267914295197, 0.0, 0.0, 0.0, 0, 0, 0, 0, 0, 0, -0.9359414577484131, -2.6428723335266113, -0.21584267914295197
13055, 0.008188975974917412, -0.02307218499481678, 0.139801025390625, 0.12752874195575714, 0.3772702217102051, 0.08028216660022736, -0.0016969976713880897, -0.0061221071518957615, 0.9991888403892517, -0.9377574324607849, -2.6482551097869873, -0.21628396213054657, 0.0, 0.0, 0.0, 0, 0, 0, 0, 0, 0, -0.9377574324607849, -2.6482551097869873, -0.21628396213054657
13065, 0.0073620895855128765, -0.021105028688907623, 0.13922514021396637, -0.18016476929187775, -0.21622499823570251, -0.03327970951795578, -0.002000745851546526, -0.004360063001513481, 0.9977924227714539, -0.9395741820335388, -2.6536433696746826, -0.2167261838912964, 0.0, 0.0, 0.0, 0, 0, 0, 0, 0, 0, -0.9395741820335388, -2.6536433696746826, -0.2167261838912964
13075, 0.008240626193583012, -0.019977295771241188, 0.13814181089401245, 0.04220515489578247, -0.08030548691749573, -0.08502916991710663, -0.001206822576932609, -0.003240661695599556, 0.9996172785758972, -0.9413923621177673, -2.6590371131896973, -0.21716977655887604, 0.0, 0.0, 0.0, 0, 0, 0, 0, 0, 0, -0.9413923621177673, -2.6590371131896973, -0.21716977655887604
13085, 0.007932239212095737, -0.02070765197277069, 0.13868753612041473, 0.025893066078424454, -0.04330117255449295, 0.155497744679451, -0.0013613527407869697, -0.005417443811893463, 1.0010993480682373, -0.9432117938995361, -2.6644349098205566, -0.21761444211006165, 0.0, 0.0, 0.0, 0, 0, 0, 0, 0, 0, -0.9432117938995361, -2.6644349098205566, -0.21761444211006165
13095, 0.008869332261383533, -0.020834770053625107, 0.1411942094564438, 0.062480080872774124, -0.031708359718322754, 0.388615220785141, -0.001404539798386395, -0.0026532707270234823, 0.9991596937179565, -0.9450321793556213, -2.66983699798584, -0.2180589735507965, 0.0, 0.0, 0.0, 0, 0, 0, 0, 0, 0, -0.9450321793556213, -2.66983699798584, -0.2180589735507965
13105, 0.009276852943003178, -0.020100248977541924, 0.1427670270204544, 0.06524427235126495, -0.1268739253282547, 0.06393929570913315, -0.001820135279558599, -0.0027984671760350466, 0.9990341663360596, -0.946853518486023, -2.6752431392669678, -0.21850354969501495, 0.0, 0.0, 0.0, 0, 0, 0, 0, 0, 0, -0.946853518486023, -2.6752431392669678, -0.21850354969501495
13115, 0.00938027910888195, -0.019385460764169693, 0.14473383128643036, 0.07559309154748917, -0.1823047250509262, 0.14883588254451752, -0.002824743976816535, -0.0067876046523451805, 0.9988875389099121, -0.9486761093139648, -2.680652379989624, -0.2189490795135498, 0.0, 0.0, 0.0, 0, 0, 0, 0, 0, 0, -0.9486761093139648, -2.680652379989624, -0.2189490795135498
13125, 0.008122592233121395, -0.019827950745821, 0.14337624609470367, -0.2098822146654129, -0.13253891468048096, -0.21109849214553833, -0.0018708511488512158, -0.007327695842832327, 0.9975941777229309, -0.9505006074905396, -2.6860668659210205, -0.21939577162265778, 0.0, 0.0, 0.0, 0, 0, 0, 0, 0, 0, -0.9505006074905396, -2.6860668659210205, -0.21939577162265778
13135, 0.008562237955629826, -0.020141856744885445, 0.14260676503181458, -0.0450325533747673, 0.05387891083955765, -0.08185061812400818, -0.0012752165785059333, -0.006481474731117487, 1.0000901222229004, -0.9523270726203918, -2.69148850440979, -0.2198440581560135, 0.0, 0.0, 0.0, 0, 0, 0, 0, 0, 0, -0.9523270726203918, -2.69148850440979, -0.2198440581560135
13145, 0.008330742828547955, -0.02081388421356678, 0.14318065345287323, -0.09397149831056595, 0.1081136167049408, 0.05992546305060387, -0.0006053720135241747, -0.00604799622669816, 1.0003035068511963, -0.9541547894477844, -2.6969170570373535, -0.2202933132648468, 0.0, 0.0, 0.0, 0, 0, 0, 0, 0, 0, -0.9541547894477844, -2.6969170570373535, -0.2202933132648468
13155, 0.00803488027304411, -0.01968172937631607, 0.14337852597236633, 0.0482269823551178, -0.2316383272409439, 0.12165091931819916, -0.001364604220725596, -0.004599793814122677, 0.9984602332115173, -0.9559828639030457, -2.7023520469665527, -0.22074243426322937, 0.0, 0.0, 0.0, 0, 0, 0, 0, 0, 0, -0.9559828639030457, -2.7023520469665527, -0.22074243426322937
13165, 0.008668297901749611, -0.01995370350778103, 0.14342021942138672, 0.11954952776432037, -0.008395623415708542, -0.018642321228981018, -0.0030254328157752752, -0.006385487969964743, 0.999356210231781, -0.9578114748001099, -2.7077927589416504, -0.2211921662092209, 0.0, 0.0, 0.0, 0, 0, 0, 0, 0, 0, -0.9578114748001099, -2.7077927589416504, -0.2211921662092209
13175, 0.008427315391600132, -0.019550727680325508, 0.14464211463928223, 0.07010752707719803, -0.157533198595047, 0.06813576072454453, -0.0018616652814671397, -0.005038026254624128, 1.0007885694503784, -0.9596418738365173, -2.7132391929626465, -0.22164294123649597, 0.0, 0.0, 0.0, 0, 0, 0, 0, 0, 0, -0.9596418738365173, -2.7132391929626465, -0.22164294123649597
13185, 0.008340162225067616, -0.016814958304166794, 0.14448177814483643, -0.038540758192539215, -0.3584544062614441, 0.07698987424373627, 0.00026440422516316175, -0.005444650072604418, 1.0001627206802368, -0.9614742398262024, -2.718691349029541, -0.22209371626377106, 0.0, 0.0, 0.0, 0, 0, 0, 0, 0, 0, -0.9614742398262024, -2.718691349029541, -0.22209371626377106
13195, 0.00957577396184206, -0.017095843330025673, 0.14453667402267456, 0.17519189417362213, 0.09032998234033585, -0.012196511961519718, -0.0026145430747419596, -0.004736059345304966, 1.0007644891738892, -0.9633070826530457, -2.724148750305176, -0.2225438952445984, 0.0, 0.0, 0.0, 0, 0, 0, 0, 0, 0, -0.9633070826530457, -2.724148750305176, -0.2225438952445984
13205, 0.008793403394520283, -0.016884805634617805, 0.14446841180324554, -0.032012224197387695, 0.034196048974990845, 0.002214020350947976, -0.0023570565972477198, -0.003548696171492338, 0.9981591105461121, -0.9651406407356262, -2.729611396789551, -0.22299350798130035, 0.0, 0.0, 0.0, 0, 0, 0, 0, 0, 0, -0.9651406407356262, -2.729611396789551, -0.22299350798130035
13215, 0.008448679000139236, -0.016396429389715195, 0.1452835500240326, -0.0900786817073822, -0.0814104974269867, 0.1150490939617157, -0.0021851519122719765, -0.006812720093876123, 1.0017796754837036, -0.96697598695755, -2.7350783348083496, -0.2234434187412262, 0.0, 0.0, 0.0, 0, 0, 0, 0, 0, 0, -0.96697598695755, -2.7350783348083496, -0.2234434187412262
13225, 0.009564594365656376, -0.01479876134544611, 0.14587841928005219, 0.15692491829395294, -0.08083687722682953, 0.06319788843393326, -0.002833559876307845, -0.006240198388695717, 1.0002102851867676, -0.9688132405281067, -2.7405505180358887, -0.22389310598373413, 0.0, 0.0, 0.0, 0, 0, 0, 0, 0, 0, -0.9688132405281067, -2.7405505180358887, -0.22389310598373413
13235, 0.009267759509384632, -0.016222374513745308, 0.1465156525373459, -0.19480691850185394, 0.13378633558750153, 0.08596502989530563, -0.002082417020574212, -0.004739006981253624, 0.9991019368171692, -0.97065269947052, -2.7460289001464844, -0.22434177994728088, 0.0, 0.0, 0.0, 0, 0, 0, 0, 0, 0, -0.97065269947052, -2.7460289001464844, -0.22434177994728088
13245, 0.009385969489812851, -0.01617427170276642, 0.14545263350009918, 0.0005535818636417389, 0.1159311980009079, -0.42385029792785645, -0.0005657475558109581, -0.005791312083601952, 0.9990413188934326, -0.9724941849708557, -2.7515127658843994, -0.22479070723056793, 0.0, 0.0, 0.0, 0, 0, 0, 0, 0, 0, -0.9724941849708557, -2.7515127658843994, -0.22479070723056793
13255, 0.009677217341959476, -0.015241222456097603, 0.14597010612487793, 0.035528507083654404, -0.30067187547683716, 0.016809113323688507, -0.002798113040626049, -0.0061264862306416035, 0.9994446635246277, -0.9743367433547974, -2.757002115249634, -0.22524049878120422, 0.0, 0.0, 0.0, 0, 0, 0, 0, 0, 0, -0.9743367433547974, -2.757002115249634, -0.22524049878120422
13265, 0.009151233360171318, -0.014154803939163685, 0.1482599675655365, -0.16057968139648438, -0.18923664093017578, 0.21268396079540253, -0.0017975643277168274, -0.005280655808746815, 1.000612735748291, -0.9761806130409241, -2.7624974250793457, -0.22569096088409424, 0.0, 0.0, 0.0, 0, 0, 0, 0, 0, 0, -0.9761806130409241, -2.7624974250793457, -0.22569096088409424
13275, 0.008478023111820221, -0.01324742753058672, 0.14710257947444916, -0.0892007127404213, 0.012852066196501255, -0.13065022230148315, -0.0009339448879472911, -0.005110099446028471, 0.999054491519928, -0.9780263304710388, -2.767998218536377, -0.2261415272951126, 0.0, 0.0, 0.0, 0, 0, 0, 0, 0, 0, -0.9780263304710388, -2.767998218536377, -0.2261415272951126
13285, 0.010182419791817665, -0.011421960778534412, 0.14627569913864136, 0.26000770926475525, -0.13924771547317505, -0.1718977391719818, 0.001596362330019474, -0.004589939024299383, 0.998253583908081, -0.97987300157547, -2.7735044956207275, -0.22659233212471008, 0.0, 0.0, 0.0, 0, 0, 0, 0, 0, 0, -0.97987300157547, -2.7735044956207275, -0.22659233212471008
13295, 0.00852537713944912, -0.009849007241427898, 0.1468769907951355, -0.2084602266550064, -0.24632084369659424, 0.10304722934961319, -0.00112159363925457, -0.0069707054644823074, 0.9990355968475342, -0.9817190766334534, -2.7790162563323975, -0.22704441845417023, 0.0, 0.0, 0.0, 0, 0, 0, 0, 0, 0, -0.9817190766334534, -2.7790162563323975, -0.22704441845417023
13305, 0.00800118874758482, -0.009224946610629559, 0.14649024605751038, -0.03134370967745781, -0.23761248588562012, -0.1733737289905548, -0.0026589694898575544, -0.004905239678919315, 1.000370979309082, -0.9835649728775024, -2.784533977508545, -0.2274979054927826, 0.0, 0.0, 0.0, 0, 0, 0, 0, 0, 0, -0.9835649728775024, -2.784533977508545, -0.2274979054927826
13315, 0.008400886319577694, -0.009942354634404182, 0.14602166414260864, -0.0789911299943924, 0.10889831185340881, -0.017180804163217545, -0.002161376178264618, -0.0065493094734847546, 0.999843955039978, -0.9854126572608948, -2.79005765914917, -0.22795185446739197, 0.0, 0.0, 0.0, 0, 0, 0, 0, 0, 0, -0.9854126572608948, -2.79005765914917, -0.22795185446739197
13325, 0.00771697424352169, -0.009111444465816021, 0.1448003053665161, -0.08948405086994171, -0.09551528841257095, -0.24113640189170837, -0.0008073273347690701, -0.006959842052310705, 0.9981439709663391, -0.9872625470161438, -2.7955873012542725, -0.22840580344200134, 0.0, 0.0, 0.0, 0, 0, 0, 0, 0, 0, -0.9872625470161438, -2.7955873012542725, -0.22840580344200134
13335, 0.007780303712934256, -0.008331911638379097, 0.14516352117061615, 0.012350954115390778, -0.025847336277365685, -0.01654820144176483, -0.002519249450415373, -0.005888321902602911, 0.9994766712188721, -0.9891137480735779, -2.80112361907959, -0.22886060178279877, 0.0, 0.0, 0.0, 0, 0, 0, 0, 0, 0, -0.9891137480735779, -2.80112361907959, -0.22886060178279877
13345, 0.006627495866268873, -0.0090962378308177, 0.1456308662891388, -0.21253468096256256, 0.12469566613435745, 0.2767285108566284, -0.005100253503769636, -0.003571827430278063, 0.9984054565429688, -0.9909666180610657, -2.806666374206543, -0.22931663691997528, 0.0, 0.0, 0.0, 0, 0, 0, 0, 0, 0, -0.9909666180610657, -2.806666374206543, -0.22931663691997528
13355, 0.007429779041558504, -0.008503517135977745, 0.14534276723861694, 0.12420560419559479, -0.1201314628124237, -0.07198327779769897, -0.003169338684529066, -0.005553543101996183, 0.9968577027320862, -0.9928230047225952, -2.8122141361236572, -0.22977395355701447, 0.0, 0.0, 0.0, 0, 0, 0, 0, 0, 0, -0.9928230047225952, -2.8122141361236572, -0.22977395355701447
13365, 0.0074668931774795055, -0.008492114022374153, 0.1436270922422409, 0.02988619916141033, -0.060553595423698425, -0.23691697418689728, -0.0047396705485880375, -0.004660342819988728, 0.9989095330238342, -0.9946833848953247, -2.8177666664123535, -0.23023343086242676, 0.0, 0.0, 0.0, 0, 0, 0, 0, 0, 0, -0.9946833848953247, -2.8177666664123535, -0.23023343086242676
13375, 0.008843237534165382, -0.008857681415975094, 0.14392916858196259, 0.18349644541740417, 0.1085178479552269, 0.0023833673913031816, -0.003291385481134057, -0.005536873359233141, 0.9981488585472107, -0.996547520160675, -2.82332444190979, -0.23069478571414948, 0.0, 0.0, 0.0, 0, 0, 0, 0, 0, 0, -0.996547520160675, -2.82332444190979, -0.23069478571414948
13385, 0.008492764085531235, -0.01080931443721056, 0.14390835165977478, -0.004600753076374531, 0.30951014161109924, 0.16763265430927277, -0.002762366784736514, -0.008490616455674171, 0.9998161792755127, -0.9984152913093567, -2.828887462615967, -0.23115745186805725, 0.0, 0.0, 0.0, 0, 0, 0, 0, 0, 0, -0.9984152913093567, -2.828887462615967, -0.23115745186805725
13395, 0.008031180128455162, -0.009035365656018257, 0.14341343939304352, -0.0450509674847126, -0.26204344630241394, -0.017857130616903305, -0.0010130450828000903, -0.0055320714600384235, 0.9987069368362427, -1.0002857446670532, -2.8344573974609375, -0.23162099719047546, 0.0, 0.0, 0.0, 0, 0, 0, 0, 0, 0, -1.0002857446670532, -2.8344573974609375, -0.23162099719047546
13405, 0.0066180238500237465, -0.00742854131385684, 0.14411455392837524, -0.1474083662033081, -0.1893763542175293, 0.035433147102594376, 3.6600929888663813e-05, -0.004617125261574984, 0.9987279176712036, -1.0021578073501587, -2.840034246444702, -0.23208528757095337, 0.0, 0.0, 0.0, 0, 0, 0, 0, 0, 0, -1.0021578073501587, -2.840034246444702, -0.23208528757095337
13415, 0.006189038511365652, -0.00834624469280243, 0.1441541314125061, -0.03955654054880142, 0.03518729656934738, -0.011088045313954353, -0.002065506996586919, -0.0055648088455200195, 1.0005106925964355, -1.0040301084518433, -2.845616102218628, -0.2325507402420044, 0.0, 0.0, 0.0, 0, 0, 0, 0, 0, 0, -1.0040301084518433, -2.845616102218628, -0.2325507402420044
13425, 0.006063050124794245, -0.008429349400103092, 0.14570559561252594, -0.028493564575910568, 0.07883103936910629, 0.11013316363096237, -0.002206135308369994, -0.00586541136726737, 0.9982548356056213, -1.0059032440185547, -2.851203203201294, -0.23301661014556885, 0.0, 0.0, 0.0, 0, 0, 0, 0, 0, 0, -1.0059032440185547, -2.851203203201294, -0.23301661014556885
13435, 0.0065503353253006935, -0.007054545450955629, 0.14448611438274384, 0.06586053222417831, -0.3116006553173065, -0.1605050414800644, -0.0028025994542986155, -0.0050116851925849915, 0.9995497465133667, -1.0077781677246094, -2.8567960262298584, -0.23348307609558105, 0.0, 0.0, 0.0, 0, 0, 0, 0, 0, 0, -1.0077781677246094, -2.8567960262298584, -0.23348307609558105
13445, 0.005841734353452921, -0.005975269712507725, 0.14360786974430084, -0.11234623193740845, -0.008854180574417114, -0.10841332376003265, -0.0031063088681548834, -0.005628874525427818, 0.9985998868942261, -1.0096553564071655, -2.8623945713043213, -0.23395071923732758, 0.0, 0.0, 0.0, 0, 0, 0, 0, 0, 0, -1.0096553564071655, -2.8623945713043213, -0.23395071923732758
13455, 0.005428191740065813, -0.006019989959895611, 0.1439126878976822, -0.07612856477499008, 0.009377364069223404, -0.15113843977451324, -0.002973441267386079, -0.0036844993010163307, 0.9996841549873352, -1.0115351676940918, -2.8679986000061035, -0.23441947996616364, 0.0, 0.0, 0.0, 0, 0, 0, 0, 0, 0, -1.0115351676940918, -2.8679986000061035, -0.23441947996616364
13465, 0.005883609876036644, -0.008649692870676517, 0.14515239000320435, -0.03512788191437721, 0.3098468482494354, 0.2504831850528717, -0.001450567739084363, -0.004670669324696064, 1.0008645057678223, -1.0134179592132568, -2.8736071586608887, -0.23488914966583252, 0.0, 0.0, 0.0, 0, 0, 0, 0, 0, 0, -1.0134179592132568, -2.8736071586608887, -0.23488914966583252
13475, 0.0062386165373027325, -0.009190410375595093, 0.14475266635417938, 0.13273772597312927, -0.18570414185523987, 0.08802785724401474, -0.0013546646805480123, -0.005608374252915382, 0.9997822046279907, -1.015303134918213, -2.8792200088500977, -0.23535877466201782, 0.0, 0.0, 0.0, 0, 0, 0, 0, 0, 0, -1.015303134918213, -2.8792200088500977, -0.23535877466201782
13485, 0.006715205032378435, -0.009090802632272243, 0.14416073262691498, 0.10959985852241516, -0.03311772644519806, 0.04025448486208916, -0.0019382818136364222, -0.00474555604159832, 0.9997348785400391, -1.0171897411346436, -2.8848378658294678, -0.23582808673381805, 0.0, 0.0, 0.0, 0, 0, 0, 0, 0, 0, -1.0171897411346436, -2.8848378658294678, -0.23582808673381805
13495, 0.007345416117459536, -0.008472772315144539, 0.1447623074054718, 0.13929179310798645, -0.047169312834739685, 0.1266775131225586, -0.002377416705712676, -0.007044869940727949, 1.0000914335250854, -1.0192667245864868, -2.891024112701416, -0.23634448647499084, 0.0, 0.0, 0.0, 0, 0, 0, 0, 0, 0, -1.0192667245864868, -2.891024112701416, -0.23634448647499084
13505, 0.007325346581637859, -0.008710933849215508, 0.14475880563259125, -0.09368086606264114, -0.021025944501161575, 0.02296244166791439, -0.004174390807747841, -0.005610521882772446, 1.0008291006088257, -1.021157145500183, -2.8966541290283203, -0.2368139922618866, 0.0, 0.0, 0.0, 0, 0, 0, 0, 0, 0, -1.021157145500183, -2.8966541290283203, -0.2368139922618866
13515, 0.006722221150994301, -0.010627822950482368, 0.14408351480960846, -0.06087830662727356, 0.054825685918331146, 0.002996496856212616, -0.002283190842717886, -0.005159982945770025, 0.9987919330596924, -1.0230505466461182, -2.9022903442382812, -0.2372831106185913, 0.0, 0.0, 0.0, 0, 0, 0, 0, 0, 0, -1.0230505466461182, -2.9022903442382812, -0.2372831106185913
13525, 0.006722221150994301, -0.010627822950482368, 0.14408351480960846, -0.09600841253995895, -0.05745968222618103, 0.21983851492404938, -0.0029607373289763927, -0.006410180125385523, 1.0001055002212524, -1.024946689605713, -2.9079320430755615, -0.23775240778923035, 0.0, 0.0, 0.0, 0, 0, 0, 0, 0, 0, -1.024946689605713, -2.9079320430755615, -0.23775240778923035
13535, 0.006396399345248938, -0.010591136291623116, 0.14528602361679077, 0.08591760694980621, 0.026058901101350784, -0.09301672130823135, -0.0034724297001957893, -0.007060230243951082, 0.9987722635269165, -1.026845097541809, -2.9135797023773193, -0.2382223904132843, 0.0, 0.0, 0.0, 0, 0, 0, 0, 0, 0, -1.026845097541809, -2.9135797023773193, -0.2382223904132843
13545, 0.007031576707959175, -0.010314802639186382, 0.1452510505914688, 0.044116877019405365, -0.10025195777416229, -0.17730946838855743, -0.0036584753543138504, -0.005392321385443211, 0.9997935891151428, -1.0287466049194336, -2.919234037399292, -0.23869313299655914, 0.0, 0.0, 0.0, 0, 0, 0, 0, 0, 0, -1.0287466049194336, -2.919234037399292, -0.23869313299655914
13555, 0.006863643415272236, -0.009304987266659737, 0.14477455615997314, -0.09512169659137726, -0.020397411659359932, -0.2869466543197632, -0.002005509566515684, -0.006529201753437519, 1.0021998882293701, -1.030651330947876, -2.924894332885742, -0.23916420340538025, 0.0, 0.0, 0.0, 0, 0, 0, 0, 0, 0, -1.030651330947876, -2.924894332885742, -0.23916420340538025
13565, 0.006678090896457434, -0.009534293785691261, 0.14375750720500946, -0.04181205853819847, -0.33801284432411194, -0.02162027545273304, -0.002357849385589361, -0.005963075906038284, 0.9999720454216003, -1.0325584411621094, -2.93056058883667, -0.2396341860294342, 0.0, 0.0, 0.0, 0, 0, 0, 0, 0, 0, -1.0325584411621094, -2.93056058883667, -0.2396341860294342
13575, 0.006142735946923494, -0.008751781657338142, 0.14360186457633972, 0.14015713334083557, -0.15500745177268982, 0.08392320573329926, -0.002028173767030239, -0.005276874639093876, 0.9973173141479492, -1.0344675779342651, -2.9362330436706543, -0.24010346829891205, 0.0, 0.0, 0.0, 0, 0, 0, 0, 0, 0, -1.0344675779342651, -2.9362330436706543, -0.24010346829891205
13585, 0.0061861807480454445, -0.007665088400244713, 0.14325286448001862, 0.07191439718008041, -0.10518913716077805, 0.08277961611747742, -0.0018259030766785145, -0.00634430255740881, 0.9975618124008179, -1.0363786220550537, -2.941911220550537, -0.24057434499263763, 0.0, 0.0, 0.0, 0, 0, 0, 0, 0, 0, -1.0363786220550537, -2.941911220550537, -0.24057434499263763
13595, 0.007097173016518354, -0.00633192528039217, 0.14275264739990234, 0.1390252709388733, -0.09432701021432877, -0.06333737820386887, -0.0022790194489061832, -0.005711427424103022, 0.9988903403282166, -1.038291335105896, -2.9475951194763184, -0.24104759097099304, 0.0, 0.0, 0.0, 0, 0, 0, 0, 0, 0, -1.038291335105896, -2.9475951194763184, -0.24104759097099304
13605, 0.007416552864015102, -0.008041982538998127, 0.1446283459663391, 0.048878014087677, 0.26795458793640137, 0.003144171554595232, -0.002592153614386916, -0.0067750210873782635, 0.998264729976654, -1.0402060747146606, -2.953284740447998, -0.24152249097824097, 0.0, 0.0, 0.0, 0, 0, 0, 0, 0, 0, -1.0402060747146606, -2.953284740447998, -0.24152249097824097
13615, 0.007539437152445316, -0.011241600848734379, 0.1442410945892334, -0.12958753108978271, 0.04838797077536583, 0.11852981895208359, -0.0037332309875637293, -0.006154433824121952, 0.999407172203064, -1.0421231985092163, -2.9589803218841553, -0.24199868738651276, 0.0, 0.0, 0.0, 0, 0, 0, 0, 0, 0, -1.0421231985092163, -2.9589803218841553, -0.24199868738651276
13625, 0.00648441631346941, -0.010833262465894222, 0.14445839822292328, 0.00823898147791624, -0.037904057651758194, 0.07220198959112167, -0.003967932425439358, -0.005574395414441824, 1.000747799873352, -1.0440431833267212, -2.96468186378479, -0.2424755096435547, 0.0, 0.0, 0.0, 0, 0, 0, 0, 0, 0, -1.0440431833267212, -2.96468186378479, -0.2424755096435547
13635, 0.005988444201648235, -0.012296916916966438, 0.14511315524578094, -0.043389953672885895, -0.13686831295490265, 0.07575889676809311, -0.0018823154969140887, -0.0060110571794211864, 1.002454161643982, -1.0459665060043335, -2.9703891277313232, -0.24295197427272797, 0.0, 0.0, 0.0, 0, 0, 0, 0, 0, 0, -1.0459665060043335, -2.9703891277313232, -0.24295197427272797
13645, 0.006211504805833101, -0.010665385983884335, 0.1450110226869583, 0.06779744476079941, 0.17682379484176636, -0.24426263570785522, -0.00034934893483296037, -0.005149602424353361, 1.0008963346481323, -1.0478918552398682, -2.976102113723755, -0.24342699348926544, 0.0, 0.0, 0.0, 0, 0, 0, 0, 0, 0, -1.0478918552398682, -2.976102113723755, -0.24342699348926544
13655, 0.006788283586502075, -0.00996913481503725, 0.14419084787368774, -0.14392586052417755, 0.14136332273483276, -0.08402297645807266, -0.0033315590117126703, -0.004463120363652706, 0.9974950551986694, -1.0498181581497192, -2.9818203449249268, -0.24390065670013428, 0.0, 0.0, 0.0, 0, 0, 0, 0, 0, 0, -1.0498181581497192, -2.9818203449249268, -0.24390065670013428
13665, 0.005464718211442232, -0.009734371677041054, 0.14499348402023315, 0.1250620186328888, -0.029267624020576477, -0.027457432821393013, -0.0045462679117918015, -0.005070880521088839, 0.9985045790672302, -1.0517463684082031, -2.9875433444976807, -0.24437513947486877, 0.0, 0.0, 0.0, 0, 0, 0, 0, 0, 0, -1.0517463684082031, -2.9875433444976807, -0.24437513947486877
13675, 0.00623119343072176, -0.009649868123233318, 0.14495357871055603, 0.13312025368213654, -0.11319442838430405, -0.011040466837584972, -0.0024936783593147993, -0.0066257962025702, 1.0000417232513428, -1.053678274154663, -2.9932713508605957, -0.24485136568546295, 0.0, 0.0, 0.0, 0, 0, 0, 0, 0, 0, -1.053678274154663, -2.9932713508605957, -0.24485136568546295
