timeTick, roll, pitch, yaw, gyroX, gyroY, gyroZ, accX, accY, accZ, stateX, stateY, stateZ, target_x, target_y, target_z, otX, otY, otZ, otRoll, otPitch, otYaw, kalX, kalY, kalZ
10925, 0.018571171909570694, -0.1316937506198883, -0.05334554985165596, 0, 0, 0, 0, 0, 0, 0, 0, 0, 0, 0, 0, 0, 0, 0, 0, 0, 0, 0, 0, 0
10935, 0.01788293570280075, -0.1319897323846817, -0.05423804745078087, -0.06679636240005493, 0.010809201747179031, -0.14406360685825348, -0.0029356698505580425, -0.005430274643003941, 0.9963141679763794, -0.2345702350139618, -1.5535365343093872, 0.027161087840795517, 0.0, 0.0, 0.0, 0, 0, 0, 0, 0, 0, -0.2345702350139618, -1.5535365343093872, 0.027161087840795517
10945, 0.017457718029618263, -0.13314931094646454, -0.0545128732919693, -0.06867057830095291, 0.21566952764987946, -0.06009203940629959, -0.0028515970334410667, -0.0054880473762750626, 0.9969757199287415, -0.23488099873065948, -1.5579417943954468, 0.027290277183055878, 0.0, 0.0, 0.0, 0, 0, 0, 0, 0, 0, -0.23488099873065948, -1.5579417943954468, 0.027290277183055878
10955, 0.017148232087492943, -0.13448072969913483, -0.053825728595256805, -0.08364327996969223, 0.07778290659189224, 0.015308492816984653, -0.002826952375471592, -0.004867171868681908, 0.9990599751472473, -0.2351924479007721, -1.562353491783142, 0.027415910735726357, 0.0, 0.0, 0.0, 0, 0, 0, 0, 0, 0, -0.2351924479007721, -1.562353491783142, 0.027415910735726357
10965, 0.01732243224978447, -0.13591963052749634, -0.05362647399306297, -0.03882034495472908, 0.22976091504096985, -0.053219061344861984, -0.0013189681340008974, -0.004935720004141331, 1.0012303590774536, -0.23547601699829102, -1.5663697719573975, 0.027528002858161926, 0.0, 0.0, 0.0, 0, 0, 0, 0, 0, 0, -0.23547601699829102, -1.5663697719573975, 0.027528002858161926
10975, 0.017768848687410355, -0.13531237840652466, -0.053181543946266174, -0.07810022681951523, -0.07224608212709427, 0.014783539809286594, -0.0024661824572831392, -0.004374625626951456, 0.9987990856170654, -0.23575936257839203, -1.5703914165496826, 0.027640068903565407, 0.0, 0.0, 0.0, 0, 0, 0, 0, 0, 0, -0.23575936257839203, -1.5703914165496826, 0.027640068903565407
10985, 0.01834394969046116, -0.1340147703886032, -0.05376660078763962, 0.14557431638240814, -0.09890855103731155, -0.005125597584992647, -0.0016879673348739743, -0.0042632026597857475, 0.9986369013786316, -0.236042320728302, -1.574418067932129, 0.027752013877034187, 0.0, 0.0, 0.0, 0, 0, 0, 0, 0, 0, -0.236042320728302, -1.574418067932129, 0.027752013877034187
10995, 0.01795155555009842, -0.134203240275383, -0.05307788401842117, -0.21508793532848358, -0.01666918583214283, 0.1130080446600914, -0.002448584185913205, -0.004938040394335985, 0.9999438524246216, -0.23632501065731049, -1.5784492492675781, 0.027862779796123505, 0.0, 0.0, 0.0, 0, 0, 0, 0, 0, 0, -0.23632501065731049, -1.5784492492675781, 0.027862779796123505
11005, 0.017632151022553444, -0.13414403796195984, -0.05241519585251808, -0.027167700231075287, 0.021975582465529442, 0.14840026199817657, -0.002641341183334589, -0.005424306262284517, 1.0015288591384888, -0.23660755157470703, -1.582485318183899, 0.027972817420959473, 0.0, 0.0, 0.0, 0, 0, 0, 0, 0, 0, -0.23660755157470703, -1.582485318183899, 0.027972817420959473
11015, 0.018738040700554848, -0.1357961744070053, -0.052943192422389984, -0.044313665479421616, 0.40553122758865356, -0.2037009298801422, -0.0011451898608356714, -0.004420050419867039, 1.001875400543213, -0.2368900626897812, -1.5865267515182495, 0.02808374911546707, 0.0, 0.0, 0.0, 0, 0, 0, 0, 0, 0, -0.2368900626897812, -1.5865267515182495, 0.02808374911546707
11025, 0.019777271896600723, -0.13460558652877808, -0.05268947407603264, 0.09521213173866272, -0.40727439522743225, 0.016280893236398697, -0.0033333715982735157, -0.00514157023280859, 0.9986042380332947, -0.2371719926595688, -1.5905734300613403, 0.028196275234222412, 0.0, 0.0, 0.0, 0, 0, 0, 0, 0, 0, -0.2371719926595688, -1.5905734300613403, 0.028196275234222412
11035, 0.02001839689910412, -0.13623760640621185, -0.05281183868646622, 0.11241205781698227, 0.25376096367836, -0.03286933898925781, -0.0014105720911175013, -0.005654316861182451, 0.9975864887237549, -0.2374536246061325, -1.5946253538131714, 0.02830873616039753, 0.0, 0.0, 0.0, 0, 0, 0, 0, 0, 0, -0.2374536246061325, -1.5946253538131714, 0.02830873616039753
11045, 0.019415680319070816, -0.13697457313537598, -0.05408720299601555, -0.16195224225521088, 0.1749231368303299, -0.06358256191015244, -0.002076720120385289, -0.006425368133932352, 1.001031517982483, -0.23773494362831116, -1.5986827611923218, 0.02841956727206707, 0.0, 0.0, 0.0, 0, 0, 0, 0, 0, 0, -0.23773494362831116, -1.5986827611923218, 0.02841956727206707
11055, 0.019352778792381287, -0.13848842680454254, -0.054925672709941864, 0.029548674821853638, -0.047605324536561966, -0.09791625291109085, -0.002422340912744403, -0.0061338841915130615, 1.0003224611282349, -0.23801551759243011, -1.6027464866638184, 0.028529934585094452, 0.0, 0.0, 0.0, 0, 0, 0, 0, 0, 0, -0.23801551759243011, -1.6027464866638184, 0.028529934585094452
11065, 0.019756672903895378, -0.13897794485092163, -0.055666614323854446, 0.012903395108878613, 0.09643591195344925, -0.2114529013633728, -0.001532809343189001, -0.0042737978510558605, 1.0020556449890137, -0.2382960021495819, -1.6068167686462402, 0.028641050681471825, 0.0, 0.0, 0.0, 0, 0, 0, 0, 0, 0, -0.2382960021495819, -1.6068167686462402, 0.028641050681471825
11075, 0.018417255952954292, -0.13990166783332825, -0.0554567389190197, -0.18450048565864563, 0.036923959851264954, -0.024387627840042114, -0.0029111402109265327, -0.004087760578840971, 0.9999625086784363, -0.23857632279396057, -1.6108925342559814, 0.02875329926609993, 0.0, 0.0, 0.0, 0, 0, 0, 0, 0, 0, -0.23857632279396057, -1.6108925342559814, 0.02875329926609993
11085, 0.017918601632118225, -0.13924777507781982, -0.055176667869091034, 0.04672988876700401, -0.22852613031864166, 0.1502649486064911, -0.002404979430139065, -0.004823570139706135, 0.999500036239624, -0.23885639011859894, -1.6149728298187256, 0.02886636182665825, 0.0, 0.0, 0.0, 0, 0, 0, 0, 0, 0, -0.23885639011859894, -1.6149728298187256, 0.02886636182665825
11095, 0.01893071085214615, -0.13935893774032593, -0.054891329258680344, 0.14870229363441467, -0.15490810573101044, -0.06038476526737213, -0.0012803887948393822, -0.004474401939660311, 1.0004276037216187, -0.2391364872455597, -1.6190578937530518, 0.028979141265153885, 0.0, 0.0, 0.0, 0, 0, 0, 0, 0, 0, -0.2391364872455597, -1.6190578937530518, 0.028979141265153885
11105, 0.018639659509062767, -0.14057563245296478, -0.05579749122262001, -0.04363401234149933, 0.2675871253013611, -0.1795879751443863, -0.0026868232525885105, -0.007746125105768442, 0.9996846318244934, -0.23941610753536224, -1.623147964477539, 0.02909177914261818, 0.0, 0.0, 0.0, 0, 0, 0, 0, 0, 0, -0.23941610753536224, -1.623147964477539, 0.02909177914261818
11115, 0.019796404987573624, -0.14059481024742126, -0.05630066618323326, 0.24920149147510529, 0.10240676999092102, -0.05068628117442131, -0.004217164590954781, -0.008922800421714783, 1.0001206398010254, -0.23969542980194092, -1.627244472503662, 0.0292044784873724, 0.0, 0.0, 0.0, 0, 0, 0, 0, 0, 0, -0.23969542980194092, -1.627244472503662, 0.0292044784873724
11125, 0.02074514515697956, -0.14228728413581848, -0.055853791534900665, 0.09703323990106583, 0.2557498812675476, 0.1316317915916443, -0.0015266550472006202, -0.006026727147400379, 1.0013829469680786, -0.23997564613819122, -1.6313492059707642, 0.02931721694767475, 0.0, 0.0, 0.0, 0, 0, 0, 0, 0, 0, -0.23997564613819122, -1.6313492059707642, 0.02931721694767475
11135, 0.022154035046696663, -0.142936110496521, -0.05459507927298546, 0.13311949372291565, 0.15094472467899323, 0.08124737441539764, -0.000721523305401206, -0.0037996754981577396, 1.001083254814148, -0.24025613069534302, -1.6354610919952393, 0.029430728405714035, 0.0, 0.0, 0.0, 0, 0, 0, 0, 0, 0, -0.24025613069534302, -1.6354610919952393, 0.029430728405714035
11145, 0.021764332428574562, -0.14222918450832367, -0.055129654705524445, 0.08482583612203598, -0.08903519064188004, -0.07167373597621918, -0.0010532436426728964, -0.004955075215548277, 1.001076579093933, -0.24053536355495453, -1.6395779848098755, 0.029545381665229797, 0.0, 0.0, 0.0, 0, 0, 0, 0, 0, 0, -0.24053536355495453, -1.6395779848098755, 0.029545381665229797
11155, 0.022937092930078506, -0.14299540221691132, -0.055389344692230225, 0.19967679679393768, 0.03656936436891556, -0.07635702937841415, 0.0011810725554823875, -0.005369292106479406, 1.001526951789856, -0.24081295728683472, -1.6436995267868042, 0.029661040753126144, 0.0, 0.0, 0.0, 0, 0, 0, 0, 0, 0, -0.24081295728683472, -1.6436995267868042, 0.029661040753126144
11165, 0.02478570118546486, -0.14270281791687012, -0.054999176412820816, 0.27478495240211487, 0.02423115260899067, 0.12746921181678772, 0.0008762268698774278, -0.004318315535783768, 0.9996576309204102, -0.24108800292015076, -1.6478263139724731, 0.029778020456433296, 0.0, 0.0, 0.0, 0, 0, 0, 0, 0, 0, -0.24108800292015076, -1.6478263139724731, 0.029778020456433296
11175, 0.02360396273434162, -0.14365948736667633, -0.05604837089776993, -0.22799097001552582, 0.18549136817455292, -0.23419830203056335, -0.003822266822680831, -0.0072048623114824295, 0.9996508955955505, -0.24136005342006683, -1.6519582271575928, 0.02989553101360798, 0.0, 0.0, 0.0, 0, 0, 0, 0, 0, 0, -0.24136005342006683, -1.6519582271575928, 0.02989553101360798
11185, 0.02360941469669342, -0.1443888545036316, -0.05616078898310661, 0.08563286066055298, -0.014520058408379555, -0.10336105525493622, -0.0016449321992695332, -0.005767341237515211, 1.0008292198181152, -0.24163107573986053, -1.6560962200164795, 0.030012689530849457, 0.0, 0.0, 0.0, 0, 0, 0, 0, 0, 0, -0.24163107573986053, -1.6560962200164795, 0.030012689530849457
11195, 0.024260805919766426, -0.1451025903224945, -0.05629691109061241, -0.10116470605134964, 0.35309141874313354, 0.04040096700191498, -0.0008719144971109927, -0.005965465679764748, 0.9993892908096313, -0.24190197885036469, -1.6602410078048706, 0.030130060389637947, 0.0, 0.0, 0.0, 0, 0, 0, 0, 0, 0, -0.24190197885036469, -1.6602410078048706, 0.030130060389637947
11205, 0.024680418893694878, -0.1428348571062088, -0.057168539613485336, 0.01903970167040825, -0.28810763359069824, -0.05937732011079788, -0.0009690244332887232, -0.004449840635061264, 0.9986348748207092, -0.2421717494726181, -1.6643918752670288, 0.030247513204813004, 0.0, 0.0, 0.0, 0, 0, 0, 0, 0, 0, -0.2421717494726181, -1.6643918752670288, 0.030247513204813004
11215, 0.024853048846125603, -0.1443595439195633, -0.0583062469959259, 0.04530865699052811, 0.2120077759027481, -0.24039629101753235, -0.002035249024629593, -0.005346447695046663, 1.0008002519607544, -0.2424401491880417, -1.668548345565796, 0.03036435879766941, 0.0, 0.0, 0.0, 0, 0, 0, 0, 0, 0, -0.2424401491880417, -1.668548345565796, 0.03036435879766941
11225, 0.024633463472127914, -0.14444848895072937, -0.058408286422491074, -0.008641298860311508, 0.002865311922505498, -0.0589459128677845, -0.002819119254127145, -0.0058667659759521484, 0.9992733001708984, -0.242707759141922, -1.6727101802825928, 0.030480967834591866, 0.0, 0.0, 0.0, 0, 0, 0, 0, 0, 0, -0.242707759141922, -1.6727101802825928, 0.030480967834591866
11235, 0.023195402696728706, -0.14600786566734314, -0.05888953432440758, -0.20022623240947723, 0.1757161021232605, -0.1407950222492218, -0.0006856965483166277, -0.005759743507951498, 1.0008374452590942, -0.24297520518302917, -1.676877737045288, 0.030597519129514694, 0.0, 0.0, 0.0, 0, 0, 0, 0, 0, 0, -0.24297520518302917, -1.676877737045288, 0.030597519129514694
11245, 0.02329290471971035, -0.14729242026805878, -0.057683564722537994, 0.03020130842924118, 0.05607915669679642, 0.22312241792678833, -0.0018261836376041174, -0.007728599477559328, 0.9989227056503296, -0.24324172735214233, -1.681051254272461, 0.03071429207921028, 0.0, 0.0, 0.0, 0, 0, 0, 0, 0, 0, -0.24324172735214233, -1.681051254272461, 0.03071429207921028
11255, 0.0218538586050272, -0.14804068207740784, -0.05689321830868721, -0.19691863656044006, 0.20512761175632477, -0.0007828538655303419, -0.0009847191395238042, -0.005806265864521265, 0.9973739981651306, -0.24350684881210327, -1.6852316856384277, 0.03083089366555214, 0.0, 0.0, 0.0, 0, 0, 0, 0, 0, 0, -0.24350684881210327, -1.6852316856384277, 0.03083089366555214
11265, 0.022780224680900574, -0.14758943021297455, -0.05862553045153618, 0.23962587118148804, -0.08883161842823029, -0.24982231855392456, -0.003731929464265704, -0.006129750516265631, 1.000691294670105, -0.24377092719078064, -1.6894192695617676, 0.03094586730003357, 0.0, 0.0, 0.0, 0, 0, 0, 0, 0, 0, -0.24377092719078064, -1.6894192695617676, 0.03094586730003357
11275, 0.02229914255440235, -0.14627526700496674, -0.059470515698194504, -0.11664292961359024, -0.3197959065437317, -0.21837453544139862, -0.004672512877732515, -0.005804925225675106, 1.001050353050232, -0.24403497576713562, -1.6936131715774536, 0.031060006469488144, 0.0, 0.0, 0.0, 0, 0, 0, 0, 0, 0, -0.24403497576713562, -1.6936131715774536, 0.031060006469488144
11285, 0.02285419963300228, -0.14807043969631195, -0.058194976300001144, 0.06301657855510712, 0.18736568093299866, 0.08451680094003677, -0.003446093061938882, -0.0062012928538024426, 1.0014179944992065, -0.24430055916309357, -1.6978135108947754, 0.031175030395388603, 0.0, 0.0, 0.0, 0, 0, 0, 0, 0, 0, -0.24430055916309357, -1.6978135108947754, 0.031175030395388603
11295, 0.022520169615745544, -0.14793330430984497, -0.05717873200774193, -0.11903020739555359, 0.1037774309515953, -0.07208050042390823, -0.0023242898751050234, -0.005649827420711517, 0.9988269209861755, -0.24456751346588135, -1.7020200490951538, 0.03129136934876442, 0.0, 0.0, 0.0, 0, 0, 0, 0, 0, 0, -0.24456751346588135, -1.7020200490951538, 0.03129136934876442
11305, 0.022075973451137543, -0.14730899035930634, -0.05805712565779686, -0.05768536031246185, 0.10797534883022308, -0.152118518948555, -0.0027876480016857386, -0.0045857722871005535, 0.9978426098823547, -0.2448345571756363, -1.7062326669692993, 0.03140764310956001, 0.0, 0.0, 0.0, 0, 0, 0, 0, 0, 0, -0.2448345571756363, -1.7062326669692993, 0.03140764310956001
11315, 0.022945554926991463, -0.14602452516555786, -0.05776612088084221, 0.09952325373888016, -0.06617631018161774, -0.049608681350946426, -0.0031359747517853975, -0.006650702096521854, 0.9994118213653564, -0.2451014518737793, -1.7104511260986328, 0.03152228519320488, 0.0, 0.0, 0.0, 0, 0, 0, 0, 0, 0, -0.2451014518737793, -1.7104511260986328, 0.03152228519320488
11325, 0.023217273876070976, -0.1440068781375885, -0.05823640897870064, -0.043693870306015015, -0.2775522768497467, -0.13521899282932281, -0.0012740069068968296, -0.006539521273225546, 0.9994499683380127, -0.24536889791488647, -1.7146755456924438, 0.031635794788599014, 0.0, 0.0, 0.0, 0, 0, 0, 0, 0, 0, -0.24536889791488647, -1.7146755456924438, 0.031635794788599014
11335, 0.02397885173559189, -0.14541290700435638, -0.057948850095272064, 0.07425228506326675, 0.20879481732845306, 0.18596336245536804, -0.0013918327167630196, -0.004790443927049637, 0.9986100792884827, -0.2456362098455429, -1.7189065217971802, 0.03174889087677002, 0.0, 0.0, 0.0, 0, 0, 0, 0, 0, 0, -0.2456362098455429, -1.7189065217971802, 0.03174889087677002
11345, 0.023525085300207138, -0.1449446976184845, -0.058486878871917725, -0.02726849541068077, 0.13466313481330872, 0.11512457579374313, -0.0007058018818497658, -0.0017367183463647962, 1.0006687641143799, -0.24590235948562622, -1.723143219947815, 0.031861305236816406, 0.0, 0.0, 0.0, 0, 0, 0, 0, 0, 0, -0.24590235948562622, -1.723143219947815, 0.031861305236816406
11355, 0.022891510277986526, -0.14390280842781067, -0.06049419566988945, -0.04779476672410965, -0.1033390462398529, -0.29959940910339355, -0.0009218691848218441, -0.0038090283051133156, 1.0011392831802368, -0.2461668848991394, -1.7273834943771362, 0.031973619014024734, 0.0, 0.0, 0.0, 0, 0, 0, 0, 0, 0, -0.2461668848991394, -1.7273834943771362, 0.031973619014024734
11365, 0.02309732511639595, -0.14604739844799042, -0.05873057246208191, 0.08056458085775375, 0.16091661155223846, 0.21541482210159302, -0.001983317546546459, -0.0043261125683784485, 0.9995204210281372, -0.24642983078956604, -1.7316269874572754, 0.032086919993162155, 0.0, 0.0, 0.0, 0, 0, 0, 0, 0, 0, -0.24642983078956604, -1.7316269874572754, 0.032086919993162155
11375, 0.023231973871588707, -0.14646904170513153, -0.058785729110240936, -0.0018610138213261962, -0.03045342117547989, -0.0637766644358635, -0.0019631674513220787, -0.003418080974370241, 0.9960906505584717, -0.24669195711612701, -1.735874891281128, 0.032200343906879425, 0.0, 0.0, 0.0, 0, 0, 0, 0, 0, 0, -0.24669195711612701, -1.735874891281128, 0.032200343906879425
11385, 0.023790592327713966, -0.14794179797172546, -0.057642411440610886, 0.08435636013746262, 0.02841619774699211, 0.040190041065216064, -0.0019368862267583609, -0.004683863837271929, 0.9983511567115784, -0.24695350229740143, -1.7401270866394043, 0.03231160342693329, 0.0, 0.0, 0.0, 0, 0, 0, 0, 0, 0, -0.24695350229740143, -1.7401270866394043, 0.03231160342693329
11395, 0.024197226390242577, -0.1501777470111847, -0.05816267803311348, 0.14661553502082825, 0.24246171116828918, -0.07110413908958435, -0.0013052410213276744, -0.002937378827482462, 0.9992228746414185, -0.24721433222293854, -1.744383692741394, 0.0324203222990036, 0.0, 0.0, 0.0, 0, 0, 0, 0, 0, 0, -0.24721433222293854, -1.744383692741394, 0.0324203222990036
11405, 0.024546802043914795, -0.14949427545070648, -0.05656931921839714, 0.057582296431064606, -0.07332228124141693, 0.20223656296730042, -0.002526076976209879, -0.0034511014819145203, 1.0025079250335693, -0.24747417867183685, -1.7486443519592285, 0.03252784162759781, 0.0, 0.0, 0.0, 0, 0, 0, 0, 0, 0, -0.24747417867183685, -1.7486443519592285, 0.03252784162759781
11415, 0.023554373532533646, -0.1518847495317459, -0.057136356830596924, -0.12453719228506088, 0.24386285245418549, -0.13271306455135345, -0.0028082409407943487, -0.005009390413761139, 1.0004578828811646, -0.24773328006267548, -1.752908706665039, 0.03263607621192932, 0.0, 0.0, 0.0, 0, 0, 0, 0, 0, 0, -0.24773328006267548, -1.752908706665039, 0.03263607621192932
11425, 0.02406623773276806, -0.14817208051681519, -0.05873908847570419, 0.14878779649734497, -0.34440869092941284, -0.12549608945846558, -0.003051001112908125, -0.004418098833411932, 0.9999027848243713, -0.24799217283725739, -1.7571775913238525, 0.03274555131793022, 0.0, 0.0, 0.0, 0, 0, 0, 0, 0, 0, -0.24799217283725739, -1.7571775913238525, 0.03274555131793022
11435, 0.023873217403888702, -0.14854635298252106, -0.0576813630759716, 0.044360630214214325, 0.06445927172899246, 0.1409991830587387, -0.002711270935833454, -0.006088214460760355, 1.0001544952392578, -0.2482510805130005, -1.7614514827728271, 0.03285524994134903, 0.0, 0.0, 0.0, 0, 0, 0, 0, 0, 0, -0.2482510805130005, -1.7614514827728271, 0.03285524994134903
11445, 0.024892030283808708, -0.14878174662590027, -0.05698909983038902, 0.08536120504140854, 0.015742367133498192, 0.06635613739490509, -0.0023029327858239412, -0.007560112979263067, 0.9983055591583252, -0.2485102266073227, -1.765730857849121, 0.03296487778425217, 0.0, 0.0, 0.0, 0, 0, 0, 0, 0, 0, -0.2485102266073227, -1.765730857849121, 0.03296487778425217
11455, 0.02501881681382656, -0.14908678829669952, -0.055405814200639725, -0.023157505318522453, 0.06853707134723663, 0.08054062724113464, -0.0012047099880874157, -0.005651160608977079, 0.9987907409667969, -0.2487693876028061, -1.770017147064209, 0.03307366371154785, 0.0, 0.0, 0.0, 0, 0, 0, 0, 0, 0, -0.2487693876028061, -1.770017147064209, 0.03307366371154785
11465, 0.02633100561797619, -0.1502026617527008, -0.05332165211439133, 0.12981407344341278, 0.1007344126701355, 0.3636707365512848, -0.0014354082522913814, -0.006549579091370106, 1.0007418394088745, -0.24902792274951935, -1.7743102312088013, 0.03318129852414131, 0.0, 0.0, 0.0, 0, 0, 0, 0, 0, 0, -0.24902792274951935, -1.7743102312088013, 0.03318129852414131
11475, 0.02672993205487728, -0.15010525286197662, -0.05331403762102127, 0.023415111005306244, 0.11794924736022949, -0.16303499042987823, -0.0025710875634104013, -0.004668794106692076, 0.9994212985038757, -0.24928538501262665, -1.7786096334457397, 0.03328873589634895, 0.0, 0.0, 0.0, 0, 0, 0, 0, 0, 0, -0.24928538501262665, -1.7786096334457397, 0.03328873589634895
11485, 0.027143502607941628, -0.14916196465492249, -0.05361238121986389, 0.12184932082891464, -0.2848548889160156, 0.016444843262434006, -0.0037867394275963306, -0.005745395552366972, 0.9998161792755127, -0.24954234063625336, -1.7829147577285767, 0.03339619189500809, 0.0, 0.0, 0.0, 0, 0, 0, 0, 0, 0, -0.24954234063625336, -1.7829147577285767, 0.03339619189500809
11495, 0.027481012046337128, -0.15055982768535614, -0.054428357630968094, 0.1978723704814911, 0.17659415304660797, -0.12053663283586502, -0.002662549028173089, -0.005138432141393423, 1.001887321472168, -0.24979986250400543, -1.787225604057312, 0.03350342437624931, 0.0, 0.0, 0.0, 0, 0, 0, 0, 0, 0, -0.24979986250400543, -1.787225604057312, 0.03350342437624931
11505, 0.02770339697599411, -0.15111225843429565, -0.05255397409200668, 0.12904730439186096, 0.1203015074133873, 0.24781081080436707, -0.0007589235901832581, -0.0038572587072849274, 1.0001338720321655, -0.2500578463077545, -1.7915421724319458, 0.0336112417280674, 0.0, 0.0, 0.0, 0, 0, 0, 0, 0, 0, -0.2500578463077545, -1.7915421724319458, 0.0336112417280674
11515, 0.02774886228144169, -0.15085525810718536, -0.05321146175265312, -0.036265384405851364, -0.14553478360176086, -0.07678878307342529, -0.0013658646494150162, -0.003728034906089306, 0.9994281530380249, -0.2503148913383484, -1.7958636283874512, 0.0337197408080101, 0.0, 0.0, 0.0, 0, 0, 0, 0, 0, 0, -0.2503148913383484, -1.7958636283874512, 0.0337197408080101
11525, 0.027700379490852356, -0.1490468531847, -0.05325402319431305, 0.0696016326546669, -0.29722175002098083, 0.003674752777442336, -0.0018321649404242635, -0.006589923985302448, 0.9976341724395752, -0.25057047605514526, -1.8001896142959595, 0.03382788226008415, 0.0, 0.0, 0.0, 0, 0, 0, 0, 0, 0, -0.25057047605514526, -1.8001896142959595, 0.03382788226008415
11535, 0.027155913412570953, -0.14917384088039398, -0.05269075930118561, -0.04534472897648811, -0.09438447654247284, 0.07078627496957779, -0.0012776696821674705, -0.006159867625683546, 1.0006455183029175, -0.2508249878883362, -1.8045213222503662, 0.03393465653061867, 0.0, 0.0, 0.0, 0, 0, 0, 0, 0, 0, -0.2508249878883362, -1.8045213222503662, 0.03393465653061867
11545, 0.02690422534942627, -0.14968957006931305, -0.05332181602716446, -0.044956523925065994, 0.20142218470573425, 0.041364531964063644, -0.0010899765184149146, -0.0037449512165039778, 1.0012292861938477, -0.25107821822166443, -1.8088594675064087, 0.034040771424770355, 0.0, 0.0, 0.0, 0, 0, 0, 0, 0, 0, -0.25107821822166443, -1.8088594675064087, 0.034040771424770355
11555, 0.02737847901880741, -0.151534304022789, -0.05301468074321747, 0.175556942820549, 0.14794215559959412, 0.12547247111797333, -0.0025361336302012205, -0.006086000241339207, 0.9985880255699158, -0.2513299882411957, -1.813202977180481, 0.0341477207839489, 0.0, 0.0, 0.0, 0, 0, 0, 0, 0, 0, -0.2513299882411957, -1.813202977180481, 0.0341477207839489
11565, 0.028139814734458923, -0.15054693818092346, -0.05372897535562515, 0.10241848975419998, -0.1848517805337906, -0.09826140850782394, 0.00033143701148219407, -0.0074378494173288345, 0.9997419118881226, -0.2515809237957001, -1.817551851272583, 0.034254614263772964, 0.0, 0.0, 0.0, 0, 0, 0, 0, 0, 0, -0.2515809237957001, -1.817551851272583, 0.034254614263772964
11575, 0.028296001255512238, -0.1494358777999878, -0.05370267480611801, -0.10566384345293045, -0.1273636817932129, -0.039305105805397034, 0.0014646907802671194, -0.0067135985009372234, 0.9982737898826599, -0.25183022022247314, -1.8219077587127686, 0.0343606099486351, 0.0, 0.0, 0.0, 0, 0, 0, 0, 0, 0, -0.25183022022247314, -1.8219077587127686, 0.0343606099486351
11585, 0.02948869578540325, -0.15060751140117645, -0.05479966104030609, 0.2328145056962967, 0.24349482357501984, -1.2382363820506725e-05, -0.0008668708032928407, -0.005603141151368618, 0.9987850785255432, -0.25207605957984924, -1.8262710571289062, 0.03446551039814949, 0.0, 0.0, 0.0, 0, 0, 0, 0, 0, 0, -0.25207605957984924, -1.8262710571289062, 0.03446551039814949
11595, 0.03027074597775936, -0.14915721118450165, -0.05490899831056595, 0.012760338373482227, -0.2451486587524414, 0.017471279948949814, -0.0018296162597835064, -0.005116388201713562, 1.0020136833190918, -0.2523190677165985, -1.8306410312652588, 0.03456913307309151, 0.0, 0.0, 0.0, 0, 0, 0, 0, 0, 0, -0.2523190677165985, -1.8306410312652588, 0.03456913307309151
11605, 0.03086034767329693, -0.15091539919376373, -0.05512726679444313, -0.03071572445333004, 0.25548210740089417, -0.019442932680249214, -0.0022370917722582817, -0.003662123577669263, 0.9991146922111511, -0.2525607645511627, -1.8350169658660889, 0.03467297926545143, 0.0, 0.0, 0.0, 0, 0, 0, 0, 0, 0, -0.2525607645511627, -1.8350169658660889, 0.03467297926545143
11615, 0.03063209541141987, -0.15117713809013367, -0.0541725717484951, 0.0694318488240242, 0.18273824453353882, 0.22614353895187378, -0.002597791375592351, -0.004437531344592571, 0.9994810819625854, -0.2528018653392792, -1.839397668838501, 0.03477716073393822, 0.0, 0.0, 0.0, 0, 0, 0, 0, 0, 0, -0.2528018653392792, -1.839397668838501, 0.03477716073393822
11625, 0.03055400587618351, -0.1533418744802475, -0.056112442165613174, 0.055399615317583084, 0.3932581841945648, -0.4084300696849823, -0.0016453355783596635, -0.0055291419848799706, 0.9994919300079346, -0.2530427575111389, -1.843782663345337, 0.03488079458475113, 0.0, 0.0, 0.0, 0, 0, 0, 0, 0, 0, -0.2530427575111389, -1.843782663345337, 0.03488079458475113
11635, 0.029602572321891785, -0.15316453576087952, -0.05546005815267563, -0.05132652074098587, 0.03308102861046791, 0.10202240198850632, -0.001234568771906197, -0.004328713286668062, 0.9987523555755615, -0.25328314304351807, -1.8481730222702026, 0.03498394042253494, 0.0, 0.0, 0.0, 0, 0, 0, 0, 0, 0, -0.25328314304351807, -1.8481730222702026, 0.03498394042253494
11645, 0.029284551739692688, -0.15417549014091492, -0.05483845993876457, -0.011750560253858566, 0.1134931817650795, -0.05747167393565178, -0.003303238656371832, -0.006120441015809774, 0.9996277093887329, -0.2535223960876465, -1.8525688648223877, 0.0350862517952919, 0.0, 0.0, 0.0, 0, 0, 0, 0, 0, 0, -0.2535223960876465, -1.8525688648223877, 0.0350862517952919
11655, 0.029650310054421425, -0.1541048139333725, -0.05463992804288864, 0.10007278621196747, 0.01556909829378128, 0.026548566296696663, -0.0017428903374820948, -0.004024381749331951, 1.0003902912139893, -0.253761351108551, -1.8569705486297607, 0.03518782556056976, 0.0, 0.0, 0.0, 0, 0, 0, 0, 0, 0, -0.253761351108551, -1.8569705486297607, 0.03518782556056976
11665, 0.030177515000104904, -0.1532743126153946, -0.053928811103105545, 0.12901316583156586, -0.22889000177383423, -0.13618631660938263, -0.0007874519214965403, -0.005178157705813646, 1.0014361143112183, -0.254000186920166, -1.8613777160644531, 0.03528939187526703, 0.0, 0.0, 0.0, 0, 0, 0, 0, 0, 0, -0.254000186920166, -1.8613777160644531, 0.03528939187526703
11675, 0.030119432136416435, -0.15250881016254425, -0.05328361317515373, -0.08004266023635864, -0.2313723862171173, -0.011857965961098671, -0.0007049284758977592, -0.0056978026404976845, 0.9992478489875793, -0.25423771142959595, -1.8657900094985962, 0.03539177402853966, 0.0, 0.0, 0.0, 0, 0, 0, 0, 0, 0, -0.25423771142959595, -1.8657900094985962, 0.03539177402853966
11685, 0.03076246753334999, -0.15078343451023102, -0.05346766114234924, 0.08709128201007843, -0.25147950649261475, -0.09610152989625931, -0.001082363072782755, -0.0037307962775230408, 0.9979960322380066, -0.2544734477996826, -1.8702080249786377, 0.035494595766067505, 0.0, 0.0, 0.0, 0, 0, 0, 0, 0, 0, -0.2544734477996826, -1.8702080249786377, 0.035494595766067505
11695, 0.031221259385347366, -0.15003782510757446, -0.05425169691443443, 0.01764332689344883, 0.031024087220430374, -0.09061130881309509, -0.0019428266678005457, -0.00437248544767499, 1.0007374286651611, -0.2547076344490051, -1.8746311664581299, 0.03559640422463417, 0.0, 0.0, 0.0, 0, 0, 0, 0, 0, 0, -0.2547076344490051, -1.8746311664581299, 0.03559640422463417
11705, 0.030185138806700706, -0.15071511268615723, -0.05482902750372887, -0.16475842893123627, 0.12718699872493744, -0.03519674018025398, -0.00032206912874244153, -0.005316648166626692, 0.9995564222335815, -0.2549406886100769, -1.8790589570999146, 0.03569750860333443, 0.0, 0.0, 0.0, 0, 0, 0, 0, 0, 0, -0.2549406886100769, -1.8790589570999146, 0.03569750860333443
11715, 0.02985660545527935, -0.15348142385482788, -0.054419949650764465, -0.11578205972909927, 0.38463136553764343, -0.04188995063304901, -0.00016370553930755705, -0.004855234641581774, 0.9996150135993958, -0.2551721930503845, -1.8834922313690186, 0.035798631608486176, 0.0, 0.0, 0.0, 0, 0, 0, 0, 0, 0, -0.2551721930503845, -1.8834922313690186, 0.035798631608486176
11725, 0.030308499932289124, -0.15343745052814484, -0.05369097739458084, 0.04839824512600899, 0.11131080985069275, 0.07788658142089844, -2.974589187942911e-05, -0.0065261078998446465, 0.9987506866455078, -0.25540128350257874, -1.887931227684021, 0.03589949011802673, 0.0, 0.0, 0.0, 0, 0, 0, 0, 0, 0, -0.25540128350257874, -1.887931227684021, 0.03589949011802673
11735, 0.02989860065281391, -0.15435606241226196, -0.053546544164419174, -0.0741942822933197, 0.2577516734600067, -0.06552780419588089, -0.0009993142448365688, -0.006592938210815191, 0.998019814491272, -0.2556277811527252, -1.892376184463501, 0.03599958121776581, 0.0, 0.0, 0.0, 0, 0, 0, 0, 0, 0, -0.2556277811527252, -1.892376184463501, 0.03599958121776581
11745, 0.030434416607022285, -0.15248505771160126, -0.05385810136795044, 0.020083310082554817, -0.11333439499139786, -0.04025902599096298, -0.0005930188926868141, -0.0048830206505954266, 0.9972936511039734, -0.25585222244262695, -1.896828055381775, 0.03609804809093475, 0.0, 0.0, 0.0, 0, 0, 0, 0, 0, 0, -0.25585222244262695, -1.896828055381775, 0.03609804809093475
11755, 0.029838640242815018, -0.15285202860832214, -0.05384024977684021, 0.0011837029596790671, 0.20998410880565643, 0.03425626456737518, -0.0014542328426614404, -0.004224134609103203, 0.9983605146408081, -0.256074994802475, -1.901286244392395, 0.03619418293237686, 0.0, 0.0, 0.0, 0, 0, 0, 0, 0, 0, -0.256074994802475, -1.901286244392395, 0.03619418293237686
11765, 0.029193373396992683, -0.153739795088768, -0.05348789691925049, 0.035031285136938095, 0.1826678365468979, 0.1759534776210785, -0.00290873390622437, -0.005841510370373726, 1.0006165504455566, -0.2562963366508484, -1.9057495594024658, 0.03628826513886452, 0.0, 0.0, 0.0, 0, 0, 0, 0, 0, 0, -0.2562963366508484, -1.9057495594024658, 0.03628826513886452
11775, 0.028805173933506012, -0.15362508594989777, -0.05381051078438759, 0.022317325696349144, -0.1469111442565918, -0.07754451036453247, -0.000525256444234401, -0.005350740160793066, 1.0013854503631592, -0.2565171718597412, -1.9102184772491455, 0.03638172522187233, 0.0, 0.0, 0.0, 0, 0, 0, 0, 0, 0, -0.2565171718597412, -1.9102184772491455, 0.03638172522187233
11785, 0.02962394617497921, -0.1565684676170349, -0.053203780204057693, 0.10727759450674057, 0.4823256731033325, -0.09386953711509705, -0.0015347307780757546, -0.004465611185878515, 1.0000165700912476, -0.2567589282989502, -1.9151413440704346, 0.03648533299565315, 0.0, 0.0, 0.0, 0, 0, 0, 0, 0, 0, -0.2567589282989502, -1.9151413440704346, 0.03648533299565315
11795, 0.030058270320296288, -0.1571764051914215, -0.05437939614057541, -0.004966801032423973, -0.009876517578959465, -0.09647160768508911, -0.0014258116716518998, -0.005786214489489794, 1.0013220310211182, -0.2569770812988281, -1.919622540473938, 0.03658031299710274, 0.0, 0.0, 0.0, 0, 0, 0, 0, 0, 0, -0.2569770812988281, -1.919622540473938, 0.03658031299710274
11805, 0.03005122020840645, -0.15832354128360748, -0.054573625326156616, -0.012932731769979, 0.03196239098906517, 0.005057859234511852, -0.0014347154647111893, -0.004437466152012348, 1.0013865232467651, -0.2571941316127777, -1.9241094589233398, 0.03667604178190231, 0.0, 0.0, 0.0, 0, 0, 0, 0, 0, 0, -0.2571941316127777, -1.9241094589233398, 0.03667604178190231
11815, 0.029924260452389717, -0.15808148682117462, -0.05425798147916794, 0.0045720841735601425, -0.09081628918647766, 0.18343129754066467, -0.0036537195555865765, -0.005922174546867609, 1.000244140625, -0.2574102282524109, -1.9286017417907715, 0.0367729477584362, 0.0, 0.0, 0.0, 0, 0, 0, 0, 0, 0, -0.2574102282524109, -1.9286017417907715, 0.0367729477584362
11825, 0.029412033036351204, -0.15808063745498657, -0.05481446161866188, -0.015781063586473465, -0.10006123781204224, -0.020312372595071793, -0.0038206770550459623, -0.004337693564593792, 0.9991090297698975, -0.25762641429901123, -1.9330992698669434, 0.03687052056193352, 0.0, 0.0, 0.0, 0, 0, 0, 0, 0, 0, -0.25762641429901123, -1.9330992698669434, 0.03687052056193352
11835, 0.029412033036351204, -0.15808063745498657, -0.05481446161866188, -0.04202360659837723, 0.19144195318222046, 0.12507610023021698, -0.002506359713152051, -0.007167384028434753, 0.9992939233779907, -0.2578434944152832, -1.9376020431518555, 0.036967769265174866, 0.0, 0.0, 0.0, 0, 0, 0, 0, 0, 0, -0.2578434944152832, -1.9376020431518555, 0.036967769265174866
11845, 0.029921095818281174, -0.1601700335741043, -0.054862793534994125, 0.08551133424043655, -0.1673072725534439, -0.0030937010888010263, -0.0015074936673045158, -0.007214385084807873, 1.0025242567062378, -0.2580608129501343, -1.9421107769012451, 0.03706445172429085, 0.0, 0.0, 0.0, 0, 0, 0, 0, 0, 0, -0.2580608129501343, -1.9421107769012451, 0.03706445172429085
11855, 0.029911842197179794, -0.15956369042396545, -0.05416446179151535, -0.10768657177686691, 0.25810661911964417, -0.19460347294807434, 0.00040525849908590317, -0.006289562210440636, 1.0007964372634888, -0.25827714800834656, -1.9466267824172974, 0.03716196119785309, 0.0, 0.0, 0.0, 0, 0, 0, 0, 0, 0, -0.25827714800834656, -1.9466267824172974, 0.03716196119785309
11865, 0.02944920025765896, -0.16052532196044922, -0.05409935861825943, -0.047699835151433945, 0.17710159718990326, -0.008466921746730804, 0.0011755769373849034, -0.005982636008411646, 1.002768874168396, -0.25849097967147827, -1.951149821281433, 0.03726091608405113, 0.0, 0.0, 0.0, 0, 0, 0, 0, 0, 0, -0.25849097967147827, -1.951149821281433, 0.03726091608405113
11875, 0.02944926917552948, -0.16193850338459015, -0.05246732756495476, -0.07275180518627167, 0.2679753601551056, 0.016569998115301132, -0.001319600734859705, -0.005347789265215397, 1.0011671781539917, -0.2587014436721802, -1.9556794166564941, 0.037361424416303635, 0.0, 0.0, 0.0, 0, 0, 0, 0, 0, 0, -0.2587014436721802, -1.9556794166564941, 0.037361424416303635
11885, 0.029176531359553337, -0.1632418930530548, -0.05281689763069153, -0.04692542552947998, -0.025802481919527054, 0.30084294080734253, -0.0016931687714532018, -0.0015445227036252618, 0.9994785189628601, -0.25890931487083435, -1.960214614868164, 0.03746354207396507, 0.0, 0.0, 0.0, 0, 0, 0, 0, 0, 0, -0.25890931487083435, -1.960214614868164, 0.03746354207396507
11895, 0.02843955159187317, -0.1622043401002884, -0.05206925421953201, -0.022142203524708748, 0.11799383163452148, -0.2242584526538849, -0.004330564755946398, -0.0032399643678218126, 0.999750554561615, -0.25911593437194824, -1.96475350856781, 0.03756584972143173, 0.0, 0.0, 0.0, 0, 0, 0, 0, 0, 0, -0.25911593437194824, -1.96475350856781, 0.03756584972143173
11905, 0.02772466465830803, -0.16294436156749725, -0.05171575769782066, -0.08214311301708221, 0.13341765105724335, 0.15213313698768616, -0.0030840649269521236, -0.004993277136236429, 1.0008493661880493, -0.2593231499195099, -1.9692955017089844, 0.03766782954335213, 0.0, 0.0, 0.0, 0, 0, 0, 0, 0, 0, -0.2593231499195099, -1.9692955017089844, 0.03766782954335213
11915, 0.02679218165576458, -0.16360682249069214, -0.050415296107530594, -0.0577353909611702, 0.08800574392080307, 0.24204769730567932, -0.0008586905896663666, -0.005600479431450367, 1.0002925395965576, -0.2595311105251312, -1.9738422632217407, 0.037770286202430725, 0.0, 0.0, 0.0, 0, 0, 0, 0, 0, 0, -0.2595311105251312, -1.9738422632217407, 0.037770286202430725
11925, 0.026774978265166283, -0.16423670947551727, -0.04814223200082779, -0.009515807032585144, 0.1441914588212967, 0.015117689035832882, -0.0022101278882473707, -0.005733587313443422, 0.997341513633728, -0.25973811745643616, -1.9783947467803955, 0.037872910499572754, 0.0, 0.0, 0.0, 0, 0, 0, 0, 0, 0, -0.25973811745643616, -1.9783947467803955, 0.037872910499572754
11935, 0.027049854397773743, -0.16591192781925201, -0.04817426949739456, 0.20557226240634918, 0.13202758133411407, 0.19286364316940308, -0.0021418407559394836, -0.004610346630215645, 1.0006301403045654, -0.25994399189949036, -1.9829531908035278, 0.03797433152794838, 0.0, 0.0, 0.0, 0, 0, 0, 0, 0, 0, -0.25994399189949036, -1.9829531908035278, 0.03797433152794838
11945, 0.0280692707747221, -0.16630005836486816, -0.047004763036966324, 0.27492135763168335, -0.07261702418327332, -0.05345204100012779, -0.0016183623811230063, -0.006020017899572849, 1.0001152753829956, -0.2601490914821625, -1.987517237663269, 0.03807515278458595, 0.0, 0.0, 0.0, 0, 0, 0, 0, 0, 0, -0.2601490914821625, -1.987517237663269, 0.03807515278458595
11955, 0.028553377836942673, -0.16626010835170746, -0.04715171828866005, -0.06298824399709702, 0.10065272450447083, -0.24559293687343597, -0.0016279964474961162, -0.005143454764038324, 0.999851405620575, -0.26035308837890625, -1.9920871257781982, 0.03817645087838173, 0.0, 0.0, 0.0, 0, 0, 0, 0, 0, 0, -0.26035308837890625, -1.9920871257781982, 0.03817645087838173
11965, 0.02827208861708641, -0.16548113524913788, -0.048054251819849014, 0.13779915869235992, 0.007633762434124947, -0.010767138563096523, -0.001065967371687293, -0.006995724514126778, 1.0001826286315918, -0.2605559527873993, -1.996663212776184, 0.03827785328030586, 0.0, 0.0, 0.0, 0, 0, 0, 0, 0, 0, -0.2605559527873993, -1.996663212776184, 0.03827785328030586
11975, 0.028769955039024353, -0.16598118841648102, -0.048264071345329285, -0.0017113885842263699, -0.06258103996515274, 0.05568057671189308, -0.001010296051390469, -0.004018733277916908, 0.9999889135360718, -0.2607573866844177, -2.0012457370758057, 0.03837932273745537, 0.0, 0.0, 0.0, 0, 0, 0, 0, 0, 0, -0.2607573866844177, -2.0012457370758057, 0.03837932273745537
11985, 0.028788674622774124, -0.1640491783618927, -0.04797901213169098, -0.10104264318943024, 0.19395945966243744, -0.09808480739593506, 0.0010271193459630013, -0.004616967868059874, 0.9985593557357788, -0.26095664501190186, -2.005833864212036, 0.038481034338474274, 0.0, 0.0, 0.0, 0, 0, 0, 0, 0, 0, -0.26095664501190186, -2.005833864212036, 0.038481034338474274
11995, 0.028501641005277634, -0.16527079045772552, -0.048560380935668945, 0.07455751299858093, -0.03435704857110977, -0.022170020267367363, -0.0005961812566965818, -0.0045846509747207165, 1.0011476278305054, -0.26115286350250244, -2.0104267597198486, 0.038582414388656616, 0.0, 0.0, 0.0, 0, 0, 0, 0, 0, 0, -0.26115286350250244, -2.0104267597198486, 0.038582414388656616
12005, 0.029094213619828224, -0.1658015102148056, -0.04929260164499283, 0.03324543684720993, 0.12688985466957092, 0.1383439004421234, -0.0030151032842695713, -0.003700141329318285, 1.000898838043213, -0.26134639978408813, -2.0150246620178223, 0.03868389129638672, 0.0, 0.0, 0.0, 0, 0, 0, 0, 0, 0, -0.26134639978408813, -2.0150246620178223, 0.03868389129638672
12015, 0.02904169261455536, -0.16463106870651245, -0.04843548312783241, 0.014765926636755466, 0.23317399621009827, -0.24049745500087738, -0.0014119753614068031, -0.0038769226521253586, 1.0018417835235596, -0.2615390717983246, -2.019627094268799, 0.0387863926589489, 0.0, 0.0, 0.0, 0, 0, 0, 0, 0, 0, -0.2615390717983246, -2.019627094268799, 0.0387863926589489
12025, 0.029368510469794273, -0.1661452054977417, -0.04938647523522377, -0.11967086046934128, 0.19633564352989197, 0.10407057404518127, 0.0005213059484958649, -0.004362509585916996, 1.000006079673767, -0.26173093914985657, -2.024233818054199, 0.03888998553156853, 0.0, 0.0, 0.0, 0, 0, 0, 0, 0, 0, -0.26173093914985657, -2.024233818054199, 0.03888998553156853
12035, 0.028976939618587494, -0.16781727969646454, -0.049132030457258224, -0.03254978731274605, -0.15159150958061218, -0.22836896777153015, -0.0009076395654119551, -0.003282999387010932, 0.9995260238647461, -0.2619204521179199, -2.0288450717926025, 0.038994114845991135, 0.0, 0.0, 0.0, 0, 0, 0, 0, 0, 0, -0.2619204521179199, -2.0288450717926025, 0.038994114845991135
12045, 0.029157506301999092, -0.16891373693943024, -0.049822866916656494, 0.07493412494659424, 0.15600897371768951, 0.11081303656101227, -0.0007046362152323127, -0.0037268195301294327, 1.0003774166107178, -0.26210734248161316, -2.0334606170654297, 0.03909788280725479, 0.0, 0.0, 0.0, 0, 0, 0, 0, 0, 0, -0.26210734248161316, -2.0334606170654297, 0.03909788280725479
12055, 0.029704662039875984, -0.1703377515077591, -0.04923107847571373, -0.14199934899806976, 0.2678481936454773, -0.009285775013267994, -0.00445755198597908, -0.005276212003082037, 0.99957275390625, -0.2622925043106079, -2.0380804538726807, 0.03920130804181099, 0.0, 0.0, 0.0, 0, 0, 0, 0, 0, 0, -0.2622925043106079, -2.0380804538726807, 0.03920130804181099
12065, 0.029338980093598366, -0.17164656519889832, -0.048542216420173645, -0.04307357966899872, 0.049903471022844315, -0.07259014248847961, -0.0018916549161076546, -0.00449450733140111, 1.0000497102737427, -0.2624776065349579, -2.042705535888672, 0.03930453211069107, 0.0, 0.0, 0.0, 0, 0, 0, 0, 0, 0, -0.2624776065349579, -2.042705535888672, 0.03930453211069107
12075, 0.029909413307905197, -0.1712934374809265, -0.04932832717895508, 0.08350969851016998, -0.0028818666469305754, 0.11164281517267227, -0.0011857373174279928, -0.0056422012858092785, 0.9995899796485901, -0.26266273856163025, -2.0473361015319824, 0.03940737619996071, 0.0, 0.0, 0.0, 0, 0, 0, 0, 0, 0, -0.26266273856163025, -2.0473361015319824, 0.03940737619996071
12085, 0.029766187071800232, -0.170986607670784, -0.048690952360630035, 0.13742148876190186, -0.07727271318435669, 0.05551920086145401, 0.0010807912331074476, -0.007151932921260595, 1.0018953084945679, -0.262846440076828, -2.0519723892211914, 0.03951011598110199, 0.0, 0.0, 0.0, 0, 0, 0, 0, 0, 0, -0.262846440076828, -2.0519723892211914, 0.03951011598110199
12095, 0.030532294884324074, -0.1710682362318039, -0.04833868891000748, -0.18245907127857208, 0.1614769548177719, -0.1777205765247345, 0.00022256858937907964, -0.003958940971642733, 1.0007365942001343, -0.26302725076675415, -2.056615114212036, 0.03961373120546341, 0.0, 0.0, 0.0, 0, 0, 0, 0, 0, 0, -0.26302725076675415, -2.056615114212036, 0.03961373120546341
12105, 0.02967468835413456, -0.17092375457286835, -0.04930460453033447, 0.1569531112909317, -0.17806272208690643, -0.15697047114372253, -0.00228367792442441, -0.0046055554412305355, 0.999157726764679, -0.2632049024105072, -2.0612635612487793, 0.039718374609947205, 0.0, 0.0, 0.0, 0, 0, 0, 0, 0, 0, -0.2632049024105072, -2.0612635612487793, 0.039718374609947205
12115, 0.029942117631435394, -0.17024755477905273, -0.049976322799921036, 0.11927216500043869, 0.005216778721660376, 0.18394754827022552, 0.0006686985725536942, -0.00520014064386487, 0.9993519186973572, -0.263380765914917, -2.0659167766571045, 0.03982275724411011, 0.0, 0.0, 0.0, 0, 0, 0, 0, 0, 0, -0.263380765914917, -2.0659167766571045, 0.03982275724411011
12125, 0.030422598123550415, -0.17049436271190643, -0.047927889972925186, -0.055144138634204865, 0.10612165927886963, -0.39278438687324524, 0.0008081152918748558, -0.004225913435220718, 1.0011684894561768, -0.263554185628891, -2.07057523727417, 0.03992635756731033, 0.0, 0.0, 0.0, 0, 0, 0, 0, 0, 0, -0.263554185628891, -2.07057523727417, 0.03992635756731033
12135, 0.030849438160657883, -0.17099349200725555, -0.048366740345954895, 0.13796693086624146, 0.09237275272607803, 0.15268577635288239, -0.0028642783872783184, -0.005370608065277338, 1.0007026195526123, -0.26372411847114563, -2.0752389430999756, 0.040030237287282944, 0.0, 0.0, 0.0, 0, 0, 0, 0, 0, 0, -0.26372411847114563, -2.0752389430999756, 0.040030237287282944
12145, 0.03111070580780506, -0.17073817551136017, -0.04643437638878822, 0.06794334203004837, 0.11760782450437546, 0.020498143509030342, -0.0011040191166102886, -0.0070193056017160416, 1.0002111196517944, -0.263892263174057, -2.0799081325531006, 0.04013471677899361, 0.0, 0.0, 0.0, 0, 0, 0, 0, 0, 0, -0.263892263174057, -2.0799081325531006, 0.04013471677899361
12155, 0.032175831496715546, -0.17283488810062408, -0.04529785364866257, 0.07229438424110413, 0.04285881295800209, 0.021685145795345306, -0.0009490175289101899, -0.005082382820546627, 1.000537395477295, -0.26405930519104004, -2.0845839977264404, 0.0402393713593483, 0.0, 0.0, 0.0, 0, 0, 0, 0, 0, 0, -0.26405930519104004, -2.0845839977264404, 0.0402393713593483
12165, 0.03281309828162193, -0.17124226689338684, -0.044854968786239624, -0.01511556375771761, -0.026116786524653435, -0.019686929881572723, -0.0026465831324458122, -0.005030229687690735, 1.0004764795303345, -0.26422446966171265, -2.089266300201416, 0.04034457728266716, 0.0, 0.0, 0.0, 0, 0, 0, 0, 0, 0, -0.26422446966171265, -2.089266300201416, 0.04034457728266716
12175, 0.03220834210515022, -0.16986846923828125, -0.04614244028925896, -0.07770001888275146, 0.05019836500287056, 0.056757599115371704, -0.0033501407597213984, -0.006815400905907154, 1.0007636547088623, -0.2643885314464569, -2.09395432472229, 0.040450241416692734, 0.0, 0.0, 0.0, 0, 0, 0, 0, 0, 0, -0.2643885314464569, -2.09395432472229, 0.040450241416692734
12185, 0.031853724271059036, -0.17039087414741516, -0.04585219547152519, 0.007237332873046398, 0.03878842294216156, 0.11518310755491257, -0.0038708404172211885, -0.005401783622801304, 1.001083493232727, -0.2645527124404907, -2.0986487865448, 0.04055662825703621, 0.0, 0.0, 0.0, 0, 0, 0, 0, 0, 0, -0.2645527124404907, -2.0986487865448, 0.04055662825703621
12195, 0.031570374965667725, -0.17001749575138092, -0.04535370320081711, -0.05474996939301491, 0.002237223321571946, 0.03723076730966568, -0.001998441992327571, -0.0070395995862782, 0.9995562434196472, -0.26471737027168274, -2.1033499240875244, 0.04066403582692146, 0.0, 0.0, 0.0, 0, 0, 0, 0, 0, 0, -0.26471737027168274, -2.1033499240875244, 0.04066403582692146
12205, 0.031954552978277206, -0.1699903905391693, -0.04353957250714302, -0.027900638058781624, 0.14009816944599152, -0.0521286316215992, -0.0012210302520543337, -0.007229563780128956, 1.0003750324249268, -0.2648819088935852, -2.108057737350464, 0.040771517902612686, 0.0, 0.0, 0.0, 0, 0, 0, 0, 0, 0, -0.2648819088935852, -2.108057737350464, 0.040771517902612686
12215, 0.031299758702516556, -0.169838547706604, -0.044323764741420746, -0.07694068551063538, 0.017909850925207138, -0.12218788266181946, -0.002127544954419136, -0.006174418143928051, 1.000218391418457, -0.265045166015625, -2.1127731800079346, 0.04087894409894943, 0.0, 0.0, 0.0, 0, 0, 0, 0, 0, 0, -0.265045166015625, -2.1127731800079346, 0.04087894409894943
12225, 0.03132779523730278, -0.17069344222545624, -0.044859547168016434, -0.12263098359107971, 0.13055622577667236, 0.0449737012386322, -0.002438656287267804, -0.004197454079985619, 0.9999250769615173, -0.2652069926261902, -2.11749529838562, 0.04098643362522125, 0.0, 0.0, 0.0, 0, 0, 0, 0, 0, 0, -0.2652069926261902, -2.11749529838562, 0.04098643362522125
12235, 0.029769964516162872, -0.17238640785217285, -0.04443803057074547, 0.027612505480647087, 0.33744341135025024, 0.1398978978395462, -0.0012725834967568517, -0.005884174257516861, 0.9988159537315369, -0.26536792516708374, -2.122222900390625, 0.04109388589859009, 0.0, 0.0, 0.0, 0, 0, 0, 0, 0, 0, -0.26536792516708374, -2.122222900390625, 0.04109388589859009
12245, 0.029957681894302368, -0.17468984425067902, -0.04409727454185486, -0.14858372509479523, -0.1336260885000229, -0.057325493544340134, -0.000787527475040406, -0.0038034135941416025, 1.0012414455413818, -0.26552751660346985, -2.12695574760437, 0.04120100289583206, 0.0, 0.0, 0.0, 0, 0, 0, 0, 0, 0, -0.26552751660346985, -2.12695574760437, 0.04120100289583206
12255, 0.02961931750178337, -0.17384476959705353, -0.04366102069616318, 0.09449411183595657, 0.17577868700027466, 0.17524217069149017, -0.0020595069508999586, -0.0034687186125665903, 1.0000971555709839, -0.2656852900981903, -2.1316938400268555, 0.04130815714597702, 0.0, 0.0, 0.0, 0, 0, 0, 0, 0, 0, -0.2656852900981903, -2.1316938400268555, 0.04130815714597702
12265, 0.02927589975297451, -0.17417483031749725, -0.04287746921181679, -0.0013624500716105103, 0.05215334892272949, 0.2541239559650421, -0.0008849874138832092, -0.0046553779393434525, 0.9989842176437378, -0.2658415138721466, -2.1364359855651855, 0.04141565412282944, 0.0, 0.0, 0.0, 0, 0, 0, 0, 0, 0, -0.2658415138721466, -2.1364359855651855, 0.04141565412282944
12275, 0.030150555074214935, -0.17318779230117798, -0.04334557428956032, 0.011960753239691257, 0.00011101050768047571, -0.05788172408938408, -0.001298706280067563, -0.006888995412737131, 0.9993248581886292, -0.2659960687160492, -2.1411826610565186, 0.041522588580846786, 0.0, 0.0, 0.0, 0, 0, 0, 0, 0, 0, -0.2659960687160492, -2.1411826610565186, 0.041522588580846786
12285, 0.030691256746649742, -0.1745244413614273, -0.04312010854482651, 0.08970221132040024, 0.025660160928964615, 0.1617393046617508, -0.0019441498443484306, -0.006772072985768318, 0.9979438781738281, -0.26614874601364136, -2.1459357738494873, 0.04162877798080444, 0.0, 0.0, 0.0, 0, 0, 0, 0, 0, 0, -0.26614874601364136, -2.1459357738494873, 0.04162877798080444
12295, 0.030294110998511314, -0.1753711998462677, -0.042830225080251694, -0.001059559639543295, 0.03798215463757515, -0.0816025659441948, -0.0011983664007857442, -0.005157065577805042, 0.9981909990310669, -0.2662998139858246, -2.15069580078125, 0.0417337492108345, 0.0, 0.0, 0.0, 0, 0, 0, 0, 0, 0, -0.2662998139858246, -2.15069580078125, 0.0417337492108345
12305, 0.030007896944880486, -0.1752970963716507, -0.04436817392706871, 0.13193027675151825, -0.04202255606651306, 0.18210916221141815, -0.002992213936522603, -0.0037732410710304976, 0.9977258443832397, -0.26644936203956604, -2.1554617881774902, 0.04183691367506981, 0.0, 0.0, 0.0, 0, 0, 0, 0, 0, 0, -0.26644936203956604, -2.1554617881774902, 0.04183691367506981
12315, 0.030113765969872475, -0.175373837351799, -0.043527185916900635, -0.036191172897815704, 0.09520124644041061, 0.16900627315044403, -0.002235561842098832, -0.004015893209725618, 0.9998082518577576, -0.266598105430603, -2.1602325439453125, 0.041938286274671555, 0.0, 0.0, 0.0, 0, 0, 0, 0, 0, 0, -0.266598105430603, -2.1602325439453125, 0.041938286274671555
12325, 0.029627380892634392, -0.1759636551141739, -0.04225267842411995, -0.10711922496557236, 0.148487389087677, 0.10970907658338547, -0.001995226601138711, -0.0042478605173528194, 1.0011296272277832, -0.2667464017868042, -2.1650075912475586, 0.042038775980472565, 0.0, 0.0, 0.0, 0, 0, 0, 0, 0, 0, -0.2667464017868042, -2.1650075912475586, 0.042038775980472565
12335, 0.029323294758796692, -0.1768413782119751, -0.03922484070062637, -0.1873755007982254, -0.10149448364973068, 0.03540296107530594, -0.0019142314558848739, -0.004099073354154825, 0.9996731281280518, -0.2668938636779785, -2.1697871685028076, 0.04213973879814148, 0.0, 0.0, 0.0, 0, 0, 0, 0, 0, 0, -0.2668938636779785, -2.1697871685028076, 0.04213973879814148
12345, 0.028486039489507675, -0.1750318557024002, -0.039380740374326706, -0.1963130086660385, 0.08636501431465149, -0.19440513849258423, -0.0002871477627195418, -0.005457779858261347, 1.0020935535430908, -0.26704010367393494, -2.1745715141296387, 0.04224108159542084, 0.0, 0.0, 0.0, 0, 0, 0, 0, 0, 0, -0.26704010367393494, -2.1745715141296387, 0.04224108159542084
12355, 0.02853032946586609, -0.1746874749660492, -0.03989385440945625, 0.1526706963777542, -0.04486948251724243, 0.17918452620506287, -0.0021676323376595974, -0.003842159640043974, 1.0007201433181763, -0.26718437671661377, -2.17936110496521, 0.04234336316585541, 0.0, 0.0, 0.0, 0, 0, 0, 0, 0, 0, -0.26718437671661377, -2.17936110496521, 0.04234336316585541
12365, 0.028458518907427788, -0.17300134897232056, -0.039169881492853165, 0.07150695472955704, 0.03425666317343712, -0.18240350484848022, -0.001579190487973392, -0.0039319563657045364, 1.0043879747390747, -0.2673270106315613, -2.1841557025909424, 0.0424472838640213, 0.0, 0.0, 0.0, 0, 0, 0, 0, 0, 0, -0.2673270106315613, -2.1841557025909424, 0.0424472838640213
12375, 0.028694165870547295, -0.17225365340709686, -0.04033303260803223, -0.1131402924656868, -0.01451172586530447, 0.06389947235584259, -0.0009356211521662772, -0.006212872453033924, 1.0015238523483276, -0.2674683928489685, -2.1889545917510986, 0.04255369305610657, 0.0, 0.0, 0.0, 0, 0, 0, 0, 0, 0, -0.2674683928489685, -2.1889545917510986, 0.04255369305610657
12385, 0.027585867792367935, -0.17126008868217468, -0.04056669399142265, -0.21035350859165192, 0.09717750549316406, 0.19435429573059082, 0.0009198248153552413, -0.006195187568664551, 1.001480221748352, -0.26760780811309814, -2.1937594413757324, 0.042662814259529114, 0.0, 0.0, 0.0, 0, 0, 0, 0, 0, 0, -0.26760780811309814, -2.1937594413757324, 0.042662814259529114
12395, 0.027042748406529427, -0.171278178691864, -0.04017426073551178, -0.2547336220741272, 0.052018068730831146, -0.05765640735626221, -0.0005763823864981532, -0.006408379878848791, 0.9995288252830505, -0.2677443325519562, -2.198570966720581, 0.0427732914686203, 0.0, 0.0, 0.0, 0, 0, 0, 0, 0, 0, -0.2677443325519562, -2.198570966720581, 0.0427732914686203
12405, 0.026307107880711555, -0.17210064828395844, -0.040475018322467804, 0.017700999975204468, -0.08408039808273315, -0.08019756525754929, -0.004867834039032459, -0.003986345138400793, 0.997122049331665, -0.26787838339805603, -2.2033886909484863, 0.04288380965590477, 0.0, 0.0, 0.0, 0, 0, 0, 0, 0, 0, -0.26787838339805603, -2.2033886909484863, 0.04288380965590477
12415, 0.026335813105106354, -0.1702953279018402, -0.04245510697364807, 0.0070283375680446625, 0.08148488402366638, -0.057731546461582184, -0.005075050517916679, -0.005254941061139107, 1.0018843412399292, -0.2680125832557678, -2.208211898803711, 0.04299281910061836, 0.0, 0.0, 0.0, 0, 0, 0, 0, 0, 0, -0.2680125832557678, -2.208211898803711, 0.04299281910061836
12425, 0.026989560574293137, -0.17044848203659058, -0.041226670145988464, -0.11464185267686844, 0.039692193269729614, 0.03339014947414398, -0.004693066235631704, -0.004961091093719006, 1.0007725954055786, -0.26814883947372437, -2.213040351867676, 0.04310176894068718, 0.0, 0.0, 0.0, 0, 0, 0, 0, 0, 0, -0.26814883947372437, -2.213040351867676, 0.04310176894068718
12435, 0.026708479970693588, -0.17024169862270355, -0.041069261729717255, 0.2930243909358978, 0.25226178765296936, 0.3010061979293823, -0.0013845606008544564, -0.004503204487264156, 1.001548171043396, -0.268286794424057, -2.217874526977539, 0.04321219027042389, 0.0, 0.0, 0.0, 0, 0, 0, 0, 0, 0, -0.268286794424057, -2.217874526977539, 0.04321219027042389
12445, 0.027057550847530365, -0.17135168612003326, -0.04030821472406387, -0.0760645717382431, -0.0347076952457428, -0.017843930050730705, -0.0014204425970092416, -0.0031888310331851244, 0.9994370341300964, -0.26842454075813293, -2.2227137088775635, 0.04332363232970238, 0.0, 0.0, 0.0, 0, 0, 0, 0, 0, 0, -0.26842454075813293, -2.2227137088775635, 0.04332363232970238
12455, 0.026308607310056686, -0.17237769067287445, -0.04087502509355545, 0.08337867259979248, -0.08503399044275284, 0.03726514056324959, -0.002769739832729101, -0.003571766894310713, 0.9991401433944702, -0.26856082677841187, -2.2275569438934326, 0.043435268104076385, 0.0, 0.0, 0.0, 0, 0, 0, 0, 0, 0, -0.26856082677841187, -2.2275569438934326, 0.043435268104076385
12465, 0.02731495164334774, -0.17263677716255188, -0.04085675626993179, -0.09496099501848221, 0.15532638132572174, 0.1346813589334488, -0.0021384996362030506, -0.0060355328023433685, 0.9995180368423462, -0.26869630813598633, -2.2324042320251465, 0.043545957654714584, 0.0, 0.0, 0.0, 0, 0, 0, 0, 0, 0, -0.26869630813598633, -2.2324042320251465, 0.043545957654714584
12475, 0.027542293071746826, -0.173484668135643, -0.04096943512558937, 0.05112547427415848, 0.2471061795949936, 0.103841133415699, -0.002236501779407263, -0.004310282878577709, 1.0022692680358887, -0.26883140206336975, -2.2372565269470215, 0.04365600645542145, 0.0, 0.0, 0.0, 0, 0, 0, 0, 0, 0, -0.26883140206336975, -2.2372565269470215, 0.04365600645542145
12485, 0.02774907276034355, -0.17418049275875092, -0.03980420529842377, 0.012243952602148056, 0.07249672710895538, -0.05093317851424217, -0.00034814156242646277, -0.004449143540114164, 0.997991681098938, -0.26896560192108154, -2.242114305496216, 0.04376687854528427, 0.0, 0.0, 0.0, 0, 0, 0, 0, 0, 0, -0.26896560192108154, -2.242114305496216, 0.04376687854528427
12495, 0.027706624940037727, -0.1744181215763092, -0.040623489767313004, -0.04987981542944908, -0.10254399478435516, 0.17699503898620605, -0.0008846509153954685, -0.004899164196103811, 0.9980764985084534, -0.26909786462783813, -2.2469770908355713, 0.043877508491277695, 0.0, 0.0, 0.0, 0, 0, 0, 0, 0, 0, -0.26909786462783813, -2.2469770908355713, 0.043877508491277695
12505, 0.027735792100429535, -0.1750676929950714, -0.039043497294187546, 0.13057571649551392, 0.15489916503429413, -0.030802253633737564, -0.001436886377632618, -0.0060989693738520145, 0.9994887709617615, -0.2692277133464813, -2.251845121383667, 0.04398626834154129, 0.0, 0.0, 0.0, 0, 0, 0, 0, 0, 0, -0.2692277133464813, -2.251845121383667, 0.04398626834154129
12515, 0.02783295512199402, -0.17734959721565247, -0.03790275752544403, 0.03924715518951416, 0.20861412584781647, -0.03803587704896927, -0.0011639706790447235, -0.004383047576993704, 1.000321865081787, -0.26935574412345886, -2.256718873977661, 0.04409387707710266, 0.0, 0.0, 0.0, 0, 0, 0, 0, 0, 0, -0.26935574412345886, -2.256718873977661, 0.04409387707710266
12525, 0.026651497930288315, -0.1776057481765747, -0.0379272922873497, -0.04111930727958679, 0.21637780964374542, 0.08527542650699615, -0.002401030156761408, -0.002560968045145273, 1.000150442123413, -0.26948225498199463, -2.2615983486175537, 0.04420110955834389, 0.0, 0.0, 0.0, 0, 0, 0, 0, 0, 0, -0.26948225498199463, -2.2615983486175537, 0.04420110955834389
12535, 0.02718508429825306, -0.17923402786254883, -0.03754856437444687, 0.13098998367786407, 0.20010234415531158, 0.1316903978586197, 0.0006999204051680863, -0.002511966973543167, 0.9992976188659668, -0.2696073651313782, -2.266481637954712, 0.04430850222706795, 0.0, 0.0, 0.0, 0, 0, 0, 0, 0, 0, -0.2696073651313782, -2.266481637954712, 0.04430850222706795
12545, 0.026603147387504578, -0.1808517426252365, -0.03650340437889099, -0.0022951967548578978, 0.11887475103139877, 0.09173633903265, -0.0029384284280240536, -0.00273498916067183, 0.9987360239028931, -0.26973024010658264, -2.2713680267333984, 0.044415608048439026, 0.0, 0.0, 0.0, 0, 0, 0, 0, 0, 0, -0.26973024010658264, -2.2713680267333984, 0.044415608048439026
12555, 0.02567603625357151, -0.18212890625, -0.036700088530778885, -0.024933727458119392, 0.26931899785995483, -0.10785892605781555, -0.0030132157262414694, -0.005384631920605898, 0.9973105788230896, -0.2698514759540558, -2.2762577533721924, 0.0445217601954937, 0.0, 0.0, 0.0, 0, 0, 0, 0, 0, 0, -0.2698514759540558, -2.2762577533721924, 0.0445217601954937
12565, 0.02465185709297657, -0.18330641090869904, -0.0378810279071331, -0.09726384282112122, -0.1059659868478775, -0.059159304946660995, 5.563376907957718e-05, -0.006444541271775961, 1.0005440711975098, -0.2699725031852722, -2.2811520099639893, 0.04462633654475212, 0.0, 0.0, 0.0, 0, 0, 0, 0, 0, 0, -0.2699725031852722, -2.2811520099639893, 0.04462633654475212
12575, 0.023890797048807144, -0.1843145340681076, -0.03853927552700043, -0.08162657916545868, -0.02017233893275261, -0.13906581699848175, 9.795092773856595e-05, -0.00344617641530931, 1.000158667564392, -0.27009207010269165, -2.2860524654388428, 0.04473009705543518, 0.0, 0.0, 0.0, 0, 0, 0, 0, 0, 0, -0.27009207010269165, -2.2860524654388428, 0.04473009705543518
12585, 0.023518161848187447, -0.18603816628456116, -0.037762511521577835, -0.04220644012093544, 0.24477064609527588, 0.07460062205791473, 0.0002414204936940223, -0.002173463348299265, 0.9995490908622742, -0.27020856738090515, -2.2909579277038574, 0.04483438655734062, 0.0, 0.0, 0.0, 0, 0, 0, 0, 0, 0, -0.27020856738090515, -2.2909579277038574, 0.04483438655734062
12595, 0.0240907222032547, -0.18508663773536682, -0.03628440946340561, 0.017079660668969154, -0.04045286402106285, 0.10946831107139587, 0.0010913179721683264, -0.004239690024405718, 1.0000829696655273, -0.2703215479850769, -2.2958669662475586, 0.04493870586156845, 0.0, 0.0, 0.0, 0, 0, 0, 0, 0, 0, -0.2703215479850769, -2.2958669662475586, 0.04493870586156845
12605, 0.02445831708610058, -0.1858680099248886, -0.03655668720602989, -0.02816200442612171, 0.1632630079984665, -0.26658353209495544, -0.00080046959919855, -0.0036839854437857866, 0.9990198612213135, -0.27043062448501587, -2.3007795810699463, 0.045042697340250015, 0.0, 0.0, 0.0, 0, 0, 0, 0, 0, 0, -0.27043062448501587, -2.3007795810699463, 0.045042697340250015
12615, 0.02448461391031742, -0.18615469336509705, -0.036796070635318756, 0.08654424548149109, -0.0846894308924675, -0.05348209664225578, -0.002670111134648323, -0.00450541777536273, 1.0007178783416748, -0.2705366015434265, -2.305696725845337, 0.045146360993385315, 0.0, 0.0, 0.0, 0, 0, 0, 0, 0, 0, -0.2705366015434265, -2.305696725845337, 0.045146360993385315
12625, 0.02448461391031742, -0.18615469336509705, -0.036796070635318756, 0.060750797390937805, 0.08775218576192856, -0.021783657371997833, -0.0032378779724240303, -0.005778089165687561, 1.0001437664031982, -0.27064117789268494, -2.3106184005737305, 0.045250024646520615, 0.0, 0.0, 0.0, 0, 0, 0, 0, 0, 0, -0.27064117789268494, -2.3106184005737305, 0.045250024646520615
12635, 0.02493501640856266, -0.18676598370075226, -0.03661424294114113, 0.0608641617000103, -0.11167484521865845, -0.00595824234187603, -0.002506423508748412, -0.0036453488282859325, 1.000903606414795, -0.2707557678222656, -2.3160386085510254, 0.04536481574177742, 0.0, 0.0, 0.0, 0, 0, 0, 0, 0, 0, -0.2707557678222656, -2.3160386085510254, 0.04536481574177742
12645, 0.025359075516462326, -0.18595418334007263, -0.03719523921608925, 0.044295623898506165, -0.08427853137254715, -0.04805869609117508, -0.003303832607343793, -0.005862870719283819, 0.9991154670715332, -0.27085939049720764, -2.3209714889526367, 0.04546967148780823, 0.0, 0.0, 0.0, 0, 0, 0, 0, 0, 0, -0.27085939049720764, -2.3209714889526367, 0.04546967148780823
12655, 0.026264216750860214, -0.18584290146827698, -0.03627660498023033, 0.19262507557868958, -0.12647828459739685, 0.10942282527685165, -0.001057973480783403, -0.005648810416460037, 0.9998307824134827, -0.27096226811408997, -2.3259098529815674, 0.045574259012937546, 0.0, 0.0, 0.0, 0, 0, 0, 0, 0, 0, -0.27096226811408997, -2.3259098529815674, 0.045574259012937546
12665, 0.02652708999812603, -0.18591883778572083, -0.035255350172519684, -0.06486264616250992, 0.3370634913444519, 0.22080186009407043, -0.001572002423927188, -0.00548795098438859, 1.000690221786499, -0.2710639536380768, -2.3308544158935547, 0.04567857086658478, 0.0, 0.0, 0.0, 0, 0, 0, 0, 0, 0, -0.2710639536380768, -2.3308544158935547, 0.04567857086658478
12675, 0.026524117216467857, -0.18798255920410156, -0.03493895381689072, -0.06198514252901077, -0.3655126392841339, -0.3218000829219818, -0.0022694403305649757, -0.005444485694169998, 1.0008145570755005, -0.27116405963897705, -2.3358051776885986, 0.045783285051584244, 0.0, 0.0, 0.0, 0, 0, 0, 0, 0, 0, -0.27116405963897705, -2.3358051776885986, 0.045783285051584244
12685, 0.026553992182016373, -0.18718869984149933, -0.03524275869131088, 0.13971777260303497, 0.3013780415058136, 0.03588932007551193, -0.00023929268354550004, -0.0058709182776510715, 1.002511978149414, -0.27126237750053406, -2.34076189994812, 0.04588897526264191, 0.0, 0.0, 0.0, 0, 0, 0, 0, 0, 0, -0.27126237750053406, -2.34076189994812, 0.04588897526264191
12695, 0.026891399174928665, -0.18597546219825745, -0.03565530478954315, 0.05952402204275131, -0.06621260195970535, 0.13838468492031097, -0.00282703316770494, -0.006273067556321621, 1.0020079612731934, -0.2713583707809448, -2.3457248210906982, 0.04599657654762268, 0.0, 0.0, 0.0, 0, 0, 0, 0, 0, 0, -0.2713583707809448, -2.3457248210906982, 0.04599657654762268
12705, 0.027482926845550537, -0.18720775842666626, -0.03408091887831688, -0.1769242137670517, -0.08407729119062424, 0.17157210409641266, -0.002499674679711461, -0.006081668194383383, 0.9975771903991699, -0.2714529037475586, -2.350693941116333, 0.04610585793852806, 0.0, 0.0, 0.0, 0, 0, 0, 0, 0, 0, -0.2714529037475586, -2.350693941116333, 0.04610585793852806
12715, 0.026283616200089455, -0.18588879704475403, -0.03359674662351608, 0.3538292646408081, 0.15242299437522888, 0.10371953248977661, -0.0030735889449715614, -0.006078479811549187, 0.9986327886581421, -0.2715469002723694, -2.3556697368621826, 0.046214353293180466, 0.0, 0.0, 0.0, 0, 0, 0, 0, 0, 0, -0.2715469002723694, -2.3556697368621826, 0.046214353293180466
12725, 0.027159294113516808, -0.18556100130081177, -0.03308248892426491, -0.1793968230485916, 0.06368152052164078, 0.22764438390731812, -0.003703859867528081, -0.004889106843620539, 1.00137197971344, -0.271640807390213, -2.360651969909668, 0.04632125422358513, 0.0, 0.0, 0.0, 0, 0, 0, 0, 0, 0, -0.271640807390213, -2.360651969909668, 0.04632125422358513
12735, 0.027283085510134697, -0.18720294535160065, -0.031993567943573, 0.003004593076184392, -0.0035200784914195538, 0.19291463494300842, -0.0011874050833284855, -0.004921717569231987, 1.0026901960372925, -0.2717347741127014, -2.365640163421631, 0.046428781002759933, 0.0, 0.0, 0.0, 0, 0, 0, 0, 0, 0, -0.2717347741127014, -2.365640163421631, 0.046428781002759933
12745, 0.02714347466826439, -0.1871318519115448, -0.03101537749171257, -0.11079201847314835, 0.009344012476503849, 0.09358047693967819, -0.0008517304668202996, -0.004899244289845228, 1.0007251501083374, -0.27182772755622864, -2.370633602142334, 0.046538107097148895, 0.0, 0.0, 0.0, 0, 0, 0, 0, 0, 0, -0.27182772755622864, -2.370633602142334, 0.046538107097148895
12755, 0.02660238929092884, -0.18559087812900543, -0.030682455748319626, 0.29126638174057007, -0.03677999600768089, 0.07155004143714905, -0.0008716537267901003, -0.005634957458823919, 0.9987546801567078, -0.2719185948371887, -2.3756322860717773, 0.04664849117398262, 0.0, 0.0, 0.0, 0, 0, 0, 0, 0, 0, -0.2719185948371887, -2.3756322860717773, 0.04664849117398262
12765, 0.027152113616466522, -0.18593546748161316, -0.030375517904758453, 0.06091482937335968, 0.08785627037286758, -0.27771714329719543, -0.004187929909676313, -0.004600550048053265, 0.999186098575592, -0.272007554769516, -2.3806369304656982, 0.04675867781043053, 0.0, 0.0, 0.0, 0, 0, 0, 0, 0, 0, -0.272007554769516, -2.3806369304656982, 0.04675867781043053
12775, 0.027720458805561066, -0.185708150267601, -0.03135550394654274, -0.15453273057937622, -0.274215430021286, -0.13920456171035767, -0.003733300603926182, -0.003691940102726221, 0.9986035823822021, -0.2720963656902313, -2.3856470584869385, 0.04686788097023964, 0.0, 0.0, 0.0, 0, 0, 0, 0, 0, 0, -0.2720963656902313, -2.3856470584869385, 0.04686788097023964
12785, 0.028086349368095398, -0.18312431871891022, -0.03220093995332718, 0.03261164575815201, -0.014411954209208488, -0.11903154104948044, -0.003302265889942646, -0.005041857715696096, 0.9992766380310059, -0.2721858024597168, -2.3906617164611816, 0.0469760037958622, 0.0, 0.0, 0.0, 0, 0, 0, 0, 0, 0, -0.2721858024597168, -2.3906617164611816, 0.0469760037958622
12795, 0.02782546728849411, -0.18163976073265076, -0.032385967671871185, -0.22435705363750458, -0.05218559131026268, -0.2981291115283966, -0.001528678578324616, -0.005718272645026445, 1.0017904043197632, -0.27227526903152466, -2.395681381225586, 0.04708346724510193, 0.0, 0.0, 0.0, 0, 0, 0, 0, 0, 0, -0.27227526903152466, -2.395681381225586, 0.04708346724510193
12805, 0.027086038142442703, -0.18132799863815308, -0.03355950489640236, 0.17511878907680511, -0.014832979999482632, -0.32161322236061096, -0.0009477632702328265, -0.004452655091881752, 0.999950647354126, -0.2723636031150818, -2.4007067680358887, 0.04719170555472374, 0.0, 0.0, 0.0, 0, 0, 0, 0, 0, 0, -0.2723636031150818, -2.4007067680358887, 0.04719170555472374
12815, 0.028364237397909164, -0.17926502227783203, -0.03517027199268341, -0.0007229859475046396, -0.07268396019935608, -0.08437129855155945, -0.002446237951517105, -0.0048821838572621346, 1.0020055770874023, -0.2724500000476837, -2.4057374000549316, 0.04730084538459778, 0.0, 0.0, 0.0, 0, 0, 0, 0, 0, 0, -0.2724500000476837, -2.4057374000549316, 0.04730084538459778
12825, 0.029804395511746407, -0.1788879781961441, -0.035649463534355164, -0.09549478441476822, 0.17379754781723022, 0.12131520360708237, -0.001959481043741107, -0.004022334236651659, 1.0001012086868286, -0.2725350558757782, -2.4107730388641357, 0.047410812228918076, 0.0, 0.0, 0.0, 0, 0, 0, 0, 0, 0, -0.2725350558757782, -2.4107730388641357, 0.047410812228918076
12835, 0.029212476685643196, -0.17866861820220947, -0.03513616696000099, 0.0377541184425354, -0.10229747742414474, 0.10847584903240204, -0.003071382874622941, -0.0034662187099456787, 0.9988951683044434, -0.272619366645813, -2.415813684463501, 0.04752149060368538, 0.0, 0.0, 0.0, 0, 0, 0, 0, 0, 0, -0.272619366645813, -2.415813684463501, 0.04752149060368538
12845, 0.029423806816339493, -0.1775675117969513, -0.03515611216425896, 0.07966690510511398, 0.1003553494811058, 0.1178106889128685, -0.003023116383701563, -0.005429589655250311, 1.0006862878799438, -0.2727032005786896, -2.42085862159729, 0.04763169586658478, 0.0, 0.0, 0.0, 0, 0, 0, 0, 0, 0, -0.2727032005786896, -2.42085862159729, 0.04763169586658478
12855, 0.028798338025808334, -0.1782466620206833, -0.03544583544135094, 0.110960952937603, 0.21379207074642181, 0.22216704487800598, -0.0008363488013856113, -0.005918803159147501, 0.9999572038650513, -0.27278658747673035, -2.4259088039398193, 0.04774189367890358, 0.0, 0.0, 0.0, 0, 0, 0, 0, 0, 0, -0.27278658747673035, -2.4259088039398193, 0.04774189367890358
12865, 0.02936427854001522, -0.17847475409507751, -0.03350614011287689, 0.12711003422737122, 0.10009146481752396, -0.10954156517982483, -0.0017204900505021214, -0.005249905399978161, 0.9999915361404419, -0.27286869287490845, -2.4309654235839844, 0.04785219952464104, 0.0, 0.0, 0.0, 0, 0, 0, 0, 0, 0, -0.27286869287490845, -2.4309654235839844, 0.04785219952464104
12875, 0.030238360166549683, -0.1794832944869995, -0.03341253101825714, 0.17154788970947266, -0.14838160574436188, 0.16636432707309723, -0.0038743189070373774, -0.0056685470044612885, 0.9998083114624023, -0.2729493975639343, -2.436028003692627, 0.04796195030212402, 0.0, 0.0, 0.0, 0, 0, 0, 0, 0, 0, -0.2729493975639343, -2.436028003692627, 0.04796195030212402
12885, 0.03063012845814228, -0.18072062730789185, -0.03339068964123726, 0.06938670575618744, 0.19228950142860413, -0.08570313453674316, -0.0024178987368941307, -0.004796294029802084, 0.9994350671768188, -0.2730298340320587, -2.441096067428589, 0.04807144030928612, 0.0, 0.0, 0.0, 0, 0, 0, 0, 0, 0, -0.2730298340320587, -2.441096067428589, 0.04807144030928612
12895, 0.030435292050242424, -0.18189890682697296, -0.033974789083004, 0.03141586855053902, -0.1935957968235016, 0.10277196764945984, -0.002747155260294676, -0.005359542090445757, 0.9982454180717468, -0.27311035990715027, -2.44616961479187, 0.04818020761013031, 0.0, 0.0, 0.0, 0, 0, 0, 0, 0, 0, -0.27311035990715027, -2.44616961479187, 0.04818020761013031
12905, 0.030710363760590553, -0.18287955224514008, -0.03363637253642082, -0.019704608246684074, 0.14366735517978668, -0.051599759608507156, -0.00250910478644073, -0.002233343431726098, 0.9985722303390503, -0.27319028973579407, -2.4512484073638916, 0.048287585377693176, 0.0, 0.0, 0.0, 0, 0, 0, 0, 0, 0, -0.27319028973579407, -2.4512484073638916, 0.048287585377693176
12915, 0.02980826050043106, -0.18482480943202972, -0.033250678330659866, -0.05853310599923134, 0.1541401892900467, -0.06706440448760986, -0.003106451593339443, -0.0014676399296149611, 1.0018092393875122, -0.2732694745063782, -2.456331253051758, 0.04839412495493889, 0.0, 0.0, 0.0, 0, 0, 0, 0, 0, 0, -0.2732694745063782, -2.456331253051758, 0.04839412495493889
12925, 0.029616745188832283, -0.18553589284420013, -0.03364020586013794, -0.010814359411597252, 0.07648634910583496, 0.08381746709346771, -0.00044937824713997543, -0.0038554209750145674, 1.000545620918274, -0.2733481824398041, -2.461416721343994, 0.04850112274289131, 0.0, 0.0, 0.0, 0, 0, 0, 0, 0, 0, -0.2733481824398041, -2.461416721343994, 0.04850112274289131
12935, 0.028798537328839302, -0.18676505982875824, -0.033739231526851654, -0.1480582058429718, 0.3507528305053711, 0.013430201448500156, -0.002767696976661682, -0.004639339633285999, 1.0013576745986938, -0.273425430059433, -2.466505527496338, 0.04860922694206238, 0.0, 0.0, 0.0, 0, 0, 0, 0, 0, 0, -0.273425430059433, -2.466505527496338, 0.04860922694206238
12945, 0.0285795871168375, -0.18783491849899292, -0.03431042656302452, -0.017695298418402672, -0.12660542130470276, -0.06771143525838852, -0.003164255525916815, -0.0045697251334786415, 1.0009549856185913, -0.27350151538848877, -2.4715991020202637, 0.048718228936195374, 0.0, 0.0, 0.0, 0, 0, 0, 0, 0, 0, -0.27350151538848877, -2.4715991020202637, 0.048718228936195374
12955, 0.028528008610010147, -0.18763652443885803, -0.03456816449761391, 0.0717635229229927, 0.07789934426546097, 0.07708104699850082, -0.001653537037782371, -0.004643771331757307, 0.9989537000656128, -0.2735772728919983, -2.4766976833343506, 0.048827819526195526, 0.0, 0.0, 0.0, 0, 0, 0, 0, 0, 0, -0.2735772728919983, -2.4766976833343506, 0.048827819526195526
12965, 0.028607888147234917, -0.1866547018289566, -0.03419679403305054, 0.019278597086668015, -0.047901690006256104, 0.02277810126543045, -0.0024903281591832638, -0.005994432605803013, 1.0000214576721191, -0.27365201711654663, -2.4818015098571777, 0.04893713817000389, 0.0, 0.0, 0.0, 0, 0, 0, 0, 0, 0, -0.27365201711654663, -2.4818015098571777, 0.04893713817000389
12975, 0.028630714863538742, -0.18677470088005066, -0.03318166732788086, -0.021849440410733223, 0.07516168802976608, 0.13029690086841583, -0.004412755835801363, -0.008005422540009022, 0.9982723593711853, -0.2737259268760681, -2.4869112968444824, 0.04904567822813988, 0.0, 0.0, 0.0, 0, 0, 0, 0, 0, 0, -0.2737259268760681, -2.4869112968444824, 0.04904567822813988
12985, 0.02813989669084549, -0.18587863445281982, -0.03385774791240692, 0.13020284473896027, 0.04571780934929848, 0.3011132776737213, -0.0025175733026117086, -0.005893089342862368, 0.9969610571861267, -0.2738001048564911, -2.4920287132263184, 0.04915290325880051, 0.0, 0.0, 0.0, 0, 0, 0, 0, 0, 0, -0.2738001048564911, -2.4920287132263184, 0.04915290325880051
12995, 0.028087710961699486, -0.18486173450946808, -0.03343365713953972, -0.08545473963022232, 0.021408533677458763, 0.12686236202716827, 0.0009151063859462738, -0.004981074947863817, 1.0006768703460693, -0.2738739550113678, -2.4971532821655273, 0.04925800859928131, 0.0, 0.0, 0.0, 0, 0, 0, 0, 0, 0, -0.2738739550113678, -2.4971532821655273, 0.04925800859928131
13005, 0.029052577912807465, -0.1851489096879959, -0.033071793615818024, 0.04063219577074051, 0.03393376246094704, 0.03227591514587402, -0.0018136996077373624, -0.004312559962272644, 1.0022320747375488, -0.27394530177116394, -2.5022835731506348, 0.049362555146217346, 0.0, 0.0, 0.0, 0, 0, 0, 0, 0, 0, -0.27394530177116394, -2.5022835731506348, 0.049362555146217346
13015, 0.028926847502589226, -0.18437252938747406, -0.03313595801591873, -0.14988893270492554, 0.21674410998821259, -0.041212234646081924, -0.002445031190291047, -0.004812933504581451, 1.0004913806915283, -0.27401432394981384, -2.5074188709259033, 0.04946861043572426, 0.0, 0.0, 0.0, 0, 0, 0, 0, 0, 0, -0.27401432394981384, -2.5074188709259033, 0.04946861043572426
13025, 0.027500301599502563, -0.18568287789821625, -0.03364962339401245, 0.27986425161361694, -0.03436123579740524, 0.09897340834140778, -0.003547953674569726, -0.009006594307720661, 0.9978609085083008, -0.27408257126808167, -2.512559652328491, 0.04957538843154907, 0.0, 0.0, 0.0, 0, 0, 0, 0, 0, 0, -0.27408257126808167, -2.512559652328491, 0.04957538843154907
13035, 0.027859706431627274, -0.18357469141483307, -0.03212571144104004, 0.09762639552354813, 0.11315999180078506, 0.042599037289619446, 0.00015175141743384302, -0.006455414462834597, 1.001038670539856, -0.27415066957473755, -2.5177078247070312, 0.04968143627047539, 0.0, 0.0, 0.0, 0, 0, 0, 0, 0, 0, -0.27415066957473755, -2.5177078247070312, 0.04968143627047539
13045, 0.02818215638399124, -0.18502789735794067, -0.032339178025722504, 0.004340523388236761, 0.04778793826699257, -0.05894501879811287, 0.0003297409857623279, -0.005859152879565954, 0.9995561242103577, -0.27421677112579346, -2.5228636264801025, 0.049787331372499466, 0.0, 0.0, 0.0, 0, 0, 0, 0, 0, 0, -0.27421677112579346, -2.5228636264801025, 0.049787331372499466
13055, 0.028251314535737038, -0.18375787138938904, -0.0315447598695755, -0.057767026126384735, 0.08819182217121124, -0.12164350599050522, -0.0031638266518712044, -0.004570893477648497, 0.9989842772483826, -0.2742796242237091, -2.5280258655548096, 0.04989318922162056, 0.0, 0.0, 0.0, 0, 0, 0, 0, 0, 0, -0.2742796242237091, -2.5280258655548096, 0.04989318922162056
13065, 0.027103520929813385, -0.18461455404758453, -0.0313073955476284, -0.12198018282651901, 0.10183359682559967, 0.03837011009454727, -0.0030344813130795956, -0.00727448845282197, 1.0010124444961548, -0.2743411958217621, -2.533193826675415, 0.049998462200164795, 0.0, 0.0, 0.0, 0, 0, 0, 0, 0, 0, -0.2743411958217621, -2.533193826675415, 0.049998462200164795
13075, 0.027787066996097565, -0.18524539470672607, -0.03080035001039505, 0.12339058518409729, 0.0768086239695549, -0.07644335925579071, -0.0021746803540736437, -0.005898464471101761, 0.9988836646080017, -0.27440255880355835, -2.5383682250976562, 0.05010336637496948, 0.0, 0.0, 0.0, 0, 0, 0, 0, 0, 0, -0.27440255880355835, -2.5383682250976562, 0.05010336637496948
13085, 0.027269188314676285, -0.1847391277551651, -0.03093896433711052, 0.19143624603748322, -0.0877130925655365, -0.061974164098501205, -0.0022315792739391327, -0.007143274415284395, 1.0005193948745728, -0.2744632363319397, -2.5435495376586914, 0.05020793154835701, 0.0, 0.0, 0.0, 0, 0, 0, 0, 0, 0, -0.2744632363319397, -2.5435495376586914, 0.05020793154835701
13095, 0.027094658464193344, -0.1843865066766739, -0.031095091253519058, 0.07045640051364899, -0.04470682889223099, 0.04063018411397934, -0.001829560031183064, -0.0044769784435629845, 1.0000697374343872, -0.2745230793952942, -2.5487377643585205, 0.05031252279877663, 0.0, 0.0, 0.0, 0, 0, 0, 0, 0, 0, -0.2745230793952942, -2.5487377643585205, 0.05031252279877663
13105, 0.02824903465807438, -0.18638822436332703, -0.031560949981212616, 0.029883861541748047, -0.24648579955101013, -0.1511252075433731, -0.00022958742920309305, -0.004684969782829285, 1.0007352828979492, -0.27458158135414124, -2.553931713104248, 0.05041756108403206, 0.0, 0.0, 0.0, 0, 0, 0, 0, 0, 0, -0.27458158135414124, -2.553931713104248, 0.05041756108403206
13115, 0.027923913672566414, -0.1859045773744583, -0.03143316134810448, 0.10934261232614517, 0.14287149906158447, 0.12266949564218521, -0.0001092393504222855, -0.004848551005125046, 1.0020588636398315, -0.27463775873184204, -2.5591306686401367, 0.05052332207560539, 0.0, 0.0, 0.0, 0, 0, 0, 0, 0, 0, -0.27463775873184204, -2.5591306686401367, 0.05052332207560539
13125, 0.028138114139437675, -0.18656063079833984, -0.03202966973185539, 0.10612219572067261, -0.09329020231962204, -0.10532777011394501, -0.001239148317836225, -0.005519320722669363, 0.9997500777244568, -0.27469104528427124, -2.5643346309661865, 0.050630271434783936, 0.0, 0.0, 0.0, 0, 0, 0, 0, 0, 0, -0.27469104528427124, -2.5643346309661865, 0.050630271434783936
13135, 0.027631700038909912, -0.18781137466430664, -0.031717635691165924, 0.09802743047475815, 0.2406318038702011, -0.0957953929901123, -0.001089225523173809, -0.0038509045261889696, 1.0010349750518799, -0.2747415602207184, -2.5695440769195557, 0.05073799192905426, 0.0, 0.0, 0.0, 0, 0, 0, 0, 0, 0, -0.2747415602207184, -2.5695440769195557, 0.05073799192905426
13145, 0.027774516493082047, -0.18998892605304718, -0.0318027026951313, -0.1081102043390274, 0.16523119807243347, -0.06335267424583435, -0.0017156436806544662, -0.006576522719115019, 1.0012397766113281, -0.2747899889945984, -2.574759006500244, 0.050846196711063385, 0.0, 0.0, 0.0, 0, 0, 0, 0, 0, 0, -0.2747899889945984, -2.574759006500244, 0.050846196711063385
13155, 0.027833502739667892, -0.1911841630935669, -0.03133966773748398, 0.2701629400253296, 0.010912121273577213, -0.13857385516166687, -0.0025640542153269053, -0.0056738113053143024, 0.9999160766601562, -0.2748367190361023, -2.57997989654541, 0.050955381244421005, 0.0, 0.0, 0.0, 0, 0, 0, 0, 0, 0, -0.2748367190361023, -2.57997989654541, 0.050955381244421005
13165, 0.028954271227121353, -0.19168050587177277, -0.031246567144989967, 0.0416705496609211, 0.2231505960226059, 0.04106926918029785, -0.0012419740669429302, -0.0035306441131979227, 1.0017073154449463, -0.27488231658935547, -2.585206985473633, 0.05106518790125847, 0.0, 0.0, 0.0, 0, 0, 0, 0, 0, 0, -0.27488231658935547, -2.585206985473633, 0.05106518790125847
13175, 0.029272234067320824, -0.19332930445671082, -0.032763004302978516, 0.07464554160833359, -0.3504541218280792, 0.025327011942863464, -0.0011816781479865313, -0.004703196696937084, 1.0012274980545044, -0.2749265730381012, -2.5904388427734375, 0.051175858825445175, 0.0, 0.0, 0.0, 0, 0, 0, 0, 0, 0, -0.2749265730381012, -2.5904388427734375, 0.051175858825445175
13185, 0.028812548145651817, -0.19203050434589386, -0.03145461529493332, 0.15868785977363586, -0.06597727537155151, -0.13417525589466095, -0.0025797749403864145, -0.0047150966711342335, 1.0003767013549805, -0.2749687731266022, -2.5956757068634033, 0.05128813907504082, 0.0, 0.0, 0.0, 0, 0, 0, 0, 0, 0, -0.2749687731266022, -2.5956757068634033, 0.05128813907504082
13195, 0.02893466129899025, -0.1913008689880371, -0.03212786838412285, -0.045225273817777634, -0.276466429233551, 0.015544290654361248, -0.00243796082213521, -0.005658986046910286, 1.0009419918060303, -0.2750096023082733, -2.6009178161621094, 0.05140119418501854, 0.0, 0.0, 0.0, 0, 0, 0, 0, 0, 0, -0.2750096023082733, -2.6009178161621094, 0.05140119418501854
13205, 0.029281746596097946, -0.19240924715995789, -0.03177730366587639, -0.06769236922264099, 0.08242632448673248, -0.022266341373324394, -0.0024483667220920324, -0.004833170212805271, 0.9995421171188354, -0.27504968643188477, -2.606165647506714, 0.05151461437344551, 0.0, 0.0, 0.0, 0, 0, 0, 0, 0, 0, -0.27504968643188477, -2.606165647506714, 0.05151461437344551
13215, 0.02844337373971939, -0.1929866075515747, -0.0319107249379158, 0.13333678245544434, 0.20119093358516693, -0.07807809859514236, -0.0011881644604727626, -0.004063199274241924, 0.9994503259658813, -0.2750885486602783, -2.611419200897217, 0.05162816867232323, 0.0, 0.0, 0.0, 0, 0, 0, 0, 0, 0, -0.2750885486602783, -2.611419200897217, 0.05162816867232323
13225, 0.02916829101741314, -0.19339218735694885, -0.03228355571627617, 0.012083920650184155, 0.11414844542741776, 0.05071789398789406, -0.0033945899922400713, -0.005960504058748484, 0.9983899593353271, -0.2751258313655853, -2.6166775226593018, 0.05174090713262558, 0.0, 0.0, 0.0, 0, 0, 0, 0, 0, 0, -0.2751258313655853, -2.6166775226593018, 0.05174090713262558
13235, 0.029428398236632347, -0.1937784105539322, -0.03261086344718933, 0.08989712595939636, 0.11065482348203659, -0.08106572180986404, -0.0019814225379377604, -0.004662957042455673, 0.9984931349754333, -0.2751620411872864, -2.621941328048706, 0.05185248702764511, 0.0, 0.0, 0.0, 0, 0, 0, 0, 0, 0, -0.2751620411872864, -2.621941328048706, 0.05185248702764511
13245, 0.028842419385910034, -0.1942690908908844, -0.0329248271882534, -0.039960481226444244, 0.039588745683431625, -0.2015177309513092, -0.001875458750873804, -0.004488373175263405, 1.001319169998169, -0.2751971185207367, -2.6272106170654297, 0.05196266621351242, 0.0, 0.0, 0.0, 0, 0, 0, 0, 0, 0, -0.2751971185207367, -2.6272106170654297, 0.05196266621351242
13255, 0.02808769792318344, -0.19640779495239258, -0.033756792545318604, 0.0934557169675827, 0.152963787317276, -0.08008617907762527, -0.0037182702217251062, -0.005610945168882608, 1.0021320581436157, -0.2752307057380676, -2.6324851512908936, 0.05207311362028122, 0.0, 0.0, 0.0, 0, 0, 0, 0, 0, 0, -0.2752307057380676, -2.6324851512908936, 0.05207311362028122
13265, 0.028778430074453354, -0.19767002761363983, -0.03254411369562149, 0.11242721229791641, 0.10477975755929947, 0.07974873483181, -0.0024516622070223093, -0.007901662029325962, 0.9991970062255859, -0.27526381611824036, -2.637765407562256, 0.05218544974923134, 0.0, 0.0, 0.0, 0, 0, 0, 0, 0, 0, -0.27526381611824036, -2.637765407562256, 0.05218544974923134
13275, 0.029695803299546242, -0.19830870628356934, -0.032078299671411514, -0.06188107281923294, -0.2362784445285797, 0.09124001860618591, -0.003233985509723425, -0.006289991084486246, 0.9990184903144836, -0.27529656887054443, -2.643052816390991, 0.05229809507727623, 0.0, 0.0, 0.0, 0, 0, 0, 0, 0, 0, -0.27529656887054443, -2.643052816390991, 0.05229809507727623
13285, 0.029677346348762512, -0.19601747393608093, -0.03303549438714981, 0.0773581936955452, 0.17006343603134155, -0.07806748896837234, -0.0019041035557165742, -0.005803624168038368, 0.9989204406738281, -0.2753283977508545, -2.6483473777770996, 0.052409738302230835, 0.0, 0.0, 0.0, 0, 0, 0, 0, 0, 0, -0.2753283977508545, -2.6483473777770996, 0.052409738302230835
13295, 0.031094584614038467, -0.19558846950531006, -0.03391245752573013, -0.2195289134979248, 0.10069654881954193, -0.09756256639957428, -0.0014256214490160346, -0.005139665678143501, 1.000087022781372, -0.27535903453826904, -2.6536481380462646, 0.05252049118280411, 0.0, 0.0, 0.0, 0, 0, 0, 0, 0, 0, -0.27535903453826904, -2.6536481380462646, 0.05252049118280411
13305, 0.03076738305389881, -0.1970600187778473, -0.03363963961601257, 0.07679535448551178, 0.3045317828655243, 0.04364645108580589, -0.0033244886435568333, -0.004399177618324757, 1.0016663074493408, -0.27538827061653137, -2.658954620361328, 0.052631061524152756, 0.0, 0.0, 0.0, 0, 0, 0, 0, 0, 0, -0.27538827061653137, -2.658954620361328, 0.052631061524152756
13315, 0.030899159610271454, -0.19980712234973907, -0.031927164644002914, 0.011829288676381111, -0.10369347035884857, -0.09514127671718597, -0.0011121324496343732, -0.005173784680664539, 1.0019809007644653, -0.2754165828227997, -2.664266347885132, 0.0527426041662693, 0.0, 0.0, 0.0, 0, 0, 0, 0, 0, 0, -0.2754165828227997, -2.664266347885132, 0.0527426041662693
13325, 0.03108128346502781, -0.19803114235401154, -0.03284827619791031, 0.07477834075689316, -0.18149584531784058, -0.05380748584866524, -0.001398200518451631, -0.004151563160121441, 1.0021233558654785, -0.2754436433315277, -2.669583320617676, 0.05285590514540672, 0.0, 0.0, 0.0, 0, 0, 0, 0, 0, 0, -0.2754436433315277, -2.669583320617676, 0.05285590514540672
13335, 0.030939994379878044, -0.1960998773574829, -0.03263189271092415, 0.18812619149684906, 0.2734130024909973, -0.03864634409546852, -0.0005182076129131019, -0.004603973589837551, 1.0031850337982178, -0.27546876668930054, -2.674905300140381, 0.05297136306762695, 0.0, 0.0, 0.0, 0, 0, 0, 0, 0, 0, -0.27546876668930054, -2.674905300140381, 0.05297136306762695
13345, 0.03155111148953438, -0.1991722136735916, -0.032667484134435654, -0.04398338124155998, 0.281637042760849, 0.3770865797996521, -0.0012217169860377908, -0.005577851552516222, 1.0028053522109985, -0.2754914462566376, -2.680232286453247, 0.053089432418346405, 0.0, 0.0, 0.0, 0, 0, 0, 0, 0, 0, -0.2754914462566376, -2.680232286453247, 0.053089432418346405
13355, 0.031236151233315468, -0.200417622923851, -0.03139479085803032, 0.0051933517679572105, -0.13569752871990204, -0.25691431760787964, -0.002103169448673725, -0.004994146525859833, 1.0010706186294556, -0.275511771440506, -2.6855647563934326, 0.053210072219371796, 0.0, 0.0, 0.0, 0, 0, 0, 0, 0, 0, -0.275511771440506, -2.6855647563934326, 0.053210072219371796
13365, 0.03182567283511162, -0.19983692467212677, -0.03121234104037285, 0.026715854182839394, 0.09969299286603928, -0.1326606273651123, 0.0002941959537565708, -0.003856359049677849, 1.0025062561035156, -0.27553021907806396, -2.6909027099609375, 0.05333266034722328, 0.0, 0.0, 0.0, 0, 0, 0, 0, 0, 0, -0.27553021907806396, -2.6909027099609375, 0.05333266034722328
13375, 0.03175458312034607, -0.19833727180957794, -0.03295517712831497, -0.2103973776102066, -0.07318796962499619, 0.08488218486309052, -0.001979887718334794, -0.007567745167762041, 0.9992300868034363, -0.27554622292518616, -2.6962456703186035, 0.05345683917403221, 0.0, 0.0, 0.0, 0, 0, 0, 0, 0, 0, -0.27554622292518616, -2.6962456703186035, 0.05345683917403221
13385, 0.0314815379679203, -0.19786709547042847, -0.03120264783501625, 0.03666510432958603, 0.27997270226478577, 0.16276033222675323, -0.00011728033859981224, -0.006875768769532442, 0.9992791414260864, -0.27555978298187256, -2.7015953063964844, 0.053581353276968, 0.0, 0.0, 0.0, 0, 0, 0, 0, 0, 0, -0.27555978298187256, -2.7015953063964844, 0.053581353276968
13395, 0.0316159687936306, -0.19882076978683472, -0.031164007261395454, 0.015124978497624397, -0.0325874425470829, 0.09141553193330765, -0.0022750897333025932, -0.004126091953366995, 0.9991005063056946, -0.27557092905044556, -2.7069523334503174, 0.0537051185965538, 0.0, 0.0, 0.0, 0, 0, 0, 0, 0, 0, -0.27557092905044556, -2.7069523334503174, 0.0537051185965538
13405, 0.03213414549827576, -0.19593442976474762, -0.030448321253061295, 0.17868658900260925, -0.11797618120908737, 0.17217756807804108, -0.0016024569049477577, -0.004179701674729586, 1.0000157356262207, -0.27557989954948425, -2.7123148441314697, 0.05382813513278961, 0.0, 0.0, 0.0, 0, 0, 0, 0, 0, 0, -0.27557989954948425, -2.7123148441314697, 0.05382813513278961
13415, 0.03360496461391449, -0.19691728055477142, -0.03011556901037693, -0.19839981198310852, -0.1433606594800949, 0.020407048985362053, -0.0006648568669334054, -0.00350204948335886, 1.003086805343628, -0.2755872309207916, -2.717681884765625, 0.05395106226205826, 0.0, 0.0, 0.0, 0, 0, 0, 0, 0, 0, -0.2755872309207916, -2.717681884765625, 0.05395106226205826
13425, 0.03250418230891228, -0.19740386307239532, -0.03022032417356968, -0.20737501978874207, 0.10909998416900635, 0.027035219594836235, -0.0005047288723289967, -0.0038162239361554384, 1.0011935234069824, -0.275592178106308, -2.723052978515625, 0.054075274616479874, 0.0, 0.0, 0.0, 0, 0, 0, 0, 0, 0, -0.275592178106308, -2.723052978515625, 0.054075274616479874
13435, 0.03173764795064926, -0.19738812744617462, -0.029944712296128273, 0.1291009783744812, 0.08485116064548492, 0.048517923802137375, -0.0012255047913640738, -0.004416123032569885, 0.999481201171875, -0.27559441328048706, -2.728428363800049, 0.05420120432972908, 0.0, 0.0, 0.0, 0, 0, 0, 0, 0, 0, -0.27559441328048706, -2.728428363800049, 0.05420120432972908
13445, 0.03235010430216789, -0.1984543800354004, -0.03004375845193863, 0.12485054135322571, -0.032340388745069504, 0.15074244141578674, -0.0023753915447741747, -0.004866954870522022, 0.9997521042823792, -0.275594562292099, -2.7338082790374756, 0.054327547550201416, 0.0, 0.0, 0.0, 0, 0, 0, 0, 0, 0, -0.275594562292099, -2.7338082790374756, 0.054327547550201416
13455, 0.03219467028975487, -0.19777780771255493, -0.030056312680244446, 0.23364095389842987, -0.09677599370479584, -0.19849437475204468, -0.003128265030682087, -0.005885301157832146, 0.9992343187332153, -0.2755933701992035, -2.7391936779022217, 0.054453395307064056, 0.0, 0.0, 0.0, 0, 0, 0, 0, 0, 0, -0.2755933701992035, -2.7391936779022217, 0.054453395307064056
13465, 0.03301215544342995, -0.1980963796377182, -0.03124232403934002, -0.07632477581501007, 0.3486100137233734, 0.0020939321257174015, -0.002890812000259757, -0.0044731697998940945, 1.0020912885665894, -0.27559152245521545, -2.744584798812866, 0.054578997194767, 0.0, 0.0, 0.0, 0, 0, 0, 0, 0, 0, -0.27559152245521545, -2.744584798812866, 0.054578997194767
13475, 0.033204931765794754, -0.19973814487457275, -0.031075941398739815, 0.001041071373037994, -0.06624630093574524, 0.030664414167404175, -0.00412076385691762, -0.004374390933662653, 1.0001418590545654, -0.2755889892578125, -2.750520944595337, 0.054717760533094406, 0.0, 0.0, 0.0, 0, 0, 0, 0, 0, 0, -0.2755889892578125, -2.750520944595337, 0.054717760533094406
13485, 0.03348458185791969, -0.1998939961194992, -0.030967725440859795, 0.03778831660747528, 0.040295131504535675, 0.03868458420038223, -0.003195022465661168, -0.006492162123322487, 0.9984932541847229, -0.27558633685112, -2.7564635276794434, 0.0548572801053524, 0.0, 0.0, 0.0, 0, 0, 0, 0, 0, 0, -0.27558633685112, -2.7564635276794434, 0.0548572801053524
13495, 0.03415006771683693, -0.1984649896621704, -0.030953675508499146, 0.00022483826614916325, -0.1436655968427658, 0.001135727041400969, -0.0025235384237021208, -0.006064067594707012, 1.0007346868515015, -0.2755838930606842, -2.7618725299835205, 0.054983410984277725, 0.0, 0.0, 0.0, 0, 0, 0, 0, 0, 0, -0.2755838930606842, -2.7618725299835205, 0.054983410984277725
13505, 0.03494732454419136, -0.19920168817043304, -0.030582411214709282, 0.017302580177783966, 0.05697736144065857, -0.04789116606116295, -0.0029960579704493284, -0.006617395672947168, 0.9993624687194824, -0.2755810022354126, -2.7672882080078125, 0.05510891228914261, 0.0, 0.0, 0.0, 0, 0, 0, 0, 0, 0, -0.2755810022354126, -2.7672882080078125, 0.05510891228914261
13515, 0.034765902906656265, -0.19727468490600586, -0.03032541088759899, 0.037587687373161316, 0.04540054872632027, -0.04961676150560379, -0.0026106934528797865, -0.0068723345175385475, 0.9997832775115967, -0.2755810022354126, -2.7672882080078125, 0.05510891228914261, 0.0, 0.0, 0.0, 0, 0, 0, 0, 0, 0, -0.2755775451660156, -2.7727108001708984, 0.05523454025387764
13525, 0.03525839000940323, -0.19919919967651367, -0.030548546463251114, 0.10861736536026001, 0.3141251504421234, 0.07371711730957031, -0.0024517755955457687, -0.004673938266932964, 0.9987447261810303, -0.275573194026947, -2.778140068054199, 0.05535975098609924, 0.0, 0.0, 0.0, 0, 0, 0, 0, 0, 0, -0.275573194026947, -2.778140068054199, 0.05535975098609924
13535, 0.03558677062392235, -0.19980329275131226, -0.029613127931952477, -0.06915149837732315, -0.09837740659713745, 0.04357776418328285, -0.0024818372912704945, -0.0039660451002418995, 1.0003939867019653, -0.275573194026947, -2.778140068054199, 0.05535975098609924, 0.0, 0.0, 0.0, 0, 0, 0, 0, 0, 0, -0.27556777000427246, -2.7835748195648193, 0.055484432727098465
13545, 0.03586510941386223, -0.19912752509117126, -0.029514022171497345, -0.009928407147526741, -0.09138484299182892, -0.06427978724241257, -0.00296298717148602, -0.006295543629676104, 0.9997357130050659, -0.2755613327026367, -2.7890148162841797, 0.05560888350009918, 0.0, 0.0, 0.0, 0, 0, 0, 0, 0, 0, -0.2755613327026367, -2.7890148162841797, 0.05560888350009918
13555, 0.03533326834440231, -0.19917188584804535, -0.029082097113132477, -0.10723062604665756, -0.1591539978981018, -0.03154459968209267, -0.003442375920712948, -0.003990607801824808, 1.0015933513641357, -0.2755613327026367, -2.7890148162841797, 0.05560888350009918, 0.0, 0.0, 0.0, 0, 0, 0, 0, 0, 0, -0.27555418014526367, -2.7944602966308594, 0.05573334917426109
13565, 0.0350029394030571, -0.19909963011741638, -0.029418066143989563, 0.14165660738945007, 0.05410214886069298, -0.07014036923646927, -0.0021498685237020254, -0.005281143356114626, 1.0009640455245972, -0.2755466103553772, -2.7999112606048584, 0.0558587945997715, 0.0, 0.0, 0.0, 0, 0, 0, 0, 0, 0, -0.2755466103553772, -2.7999112606048584, 0.0558587945997715
13575, 0.03516226261854172, -0.19972015917301178, -0.029620803892612457, -0.035478461533784866, -0.3506675064563751, -0.2587314546108246, -0.0013661308912560344, -0.0029402903746813536, 0.9972172379493713, -0.2755378186702728, -2.8053672313690186, 0.055984776467084885, 0.0, 0.0, 0.0, 0, 0, 0, 0, 0, 0, -0.2755378186702728, -2.8053672313690186, 0.055984776467084885
13585, 0.03452436625957489, -0.19917689263820648, -0.03058558516204357, 0.0118440892547369, 0.16251115500926971, -0.04365561157464981, -0.0031853734981268644, -0.0032280045561492443, 0.9992719292640686, -0.2755272090435028, -2.8108274936676025, 0.05610954761505127, 0.0, 0.0, 0.0, 0, 0, 0, 0, 0, 0, -0.2755272090435028, -2.8108274936676025, 0.05610954761505127
13595, 0.03464413434267044, -0.19929493963718414, -0.030460624024271965, 0.04302290081977844, -0.17334872484207153, 0.18894332647323608, -0.0031349933706223965, -0.0028695324435830116, 1.0004279613494873, -0.2755158245563507, -2.816291332244873, 0.056232940405607224, 0.0, 0.0, 0.0, 0, 0, 0, 0, 0, 0, -0.2755158245563507, -2.816291332244873, 0.056232940405607224
13605, 0.03539314493536949, -0.19985665380954742, -0.029577091336250305, -0.14118240773677826, 0.05984067544341087, 0.08377102762460709, -0.002269136253744364, -0.0059640612453222275, 0.9986464381217957, -0.27550408244132996, -2.8217592239379883, 0.05635609105229378, 0.0, 0.0, 0.0, 0, 0, 0, 0, 0, 0, -0.27550408244132996, -2.8217592239379883, 0.05635609105229378
13615, 0.0351887121796608, -0.20279712975025177, -0.028902944177389145, 0.07737845182418823, 0.31095555424690247, -0.1086476743221283, -0.0022967858240008354, -0.003775435732677579, 1.000164270401001, -0.27549126744270325, -2.8272323608398438, 0.05647885799407959, 0.0, 0.0, 0.0, 0, 0, 0, 0, 0, 0, -0.27549126744270325, -2.8272323608398438, 0.05647885799407959
13625, 0.03452030196785927, -0.2012479454278946, -0.029517577961087227, -0.06317497044801712, -0.0163083728402853, -0.12797054648399353, -0.001830079942010343, -0.004354596603661776, 1.0005933046340942, -0.27547723054885864, -2.8327102661132812, 0.05660143494606018, 0.0, 0.0, 0.0, 0, 0, 0, 0, 0, 0, -0.27547723054885864, -2.8327102661132812, 0.05660143494606018
13635, 0.03389187529683113, -0.2020699828863144, -0.02915380336344242, 0.13651949167251587, -0.039736345410346985, 0.20878927409648895, -0.0015516922576352954, -0.004055076278746128, 1.001604437828064, -0.27546173334121704, -2.8381924629211426, 0.05672520026564598, 0.0, 0.0, 0.0, 0, 0, 0, 0, 0, 0, -0.27546173334121704, -2.8381924629211426, 0.05672520026564598
13645, 0.03472726792097092, -0.2014838606119156, -0.030081171542406082, -0.13443298637866974, -0.0190627072006464, -0.07873290777206421, -0.0004178789386060089, -0.0055474103428423405, 1.0010850429534912, -0.2754441499710083, -2.843679666519165, 0.05685025081038475, 0.0, 0.0, 0.0, 0, 0, 0, 0, 0, 0, -0.2754441499710083, -2.843679666519165, 0.05685025081038475
13655, 0.03473205119371414, -0.20096759498119354, -0.030775535851716995, -0.13529998064041138, -0.2651738226413727, -0.42539429664611816, 0.00026596130919642746, -0.003703052643686533, 1.0010918378829956, -0.27542373538017273, -2.8491721153259277, 0.05697616562247276, 0.0, 0.0, 0.0, 0, 0, 0, 0, 0, 0, -0.27542373538017273, -2.8491721153259277, 0.05697616562247276
13665, 0.034693170338869095, -0.1997891366481781, -0.030802598223090172, 0.108135886490345, -0.1628430336713791, 0.16412921249866486, -0.0019755952525883913, -0.004727466031908989, 1.002548098564148, -0.27540019154548645, -2.8546695709228516, 0.05710376799106598, 0.0, 0.0, 0.0, 0, 0, 0, 0, 0, 0, -0.27540019154548645, -2.8546695709228516, 0.05710376799106598
13675, 0.03500879928469658, -0.19928689301013947, -0.03292324021458626, 0.035340819507837296, -0.12331308424472809, -0.12317118793725967, -0.0019839685410261154, -0.004778353963047266, 0.9988082647323608, -0.2753743827342987, -2.8601720333099365, 0.05723292753100395, 0.0, 0.0, 0.0, 0, 0, 0, 0, 0, 0, -0.2753743827342987, -2.8601720333099365, 0.05723292753100395
13685, 0.03607220947742462, -0.19795425236225128, -0.031590647995471954, 0.3025815784931183, -0.19918984174728394, 0.3244054615497589, -0.003600477706640959, -0.005863216705620289, 0.9989387392997742, -0.27534717321395874, -2.865679979324341, 0.057361699640750885, 0.0, 0.0, 0.0, 0, 0, 0, 0, 0, 0, -0.27534717321395874, -2.865679979324341, 0.057361699640750885
13695, 0.03565245866775513, -0.19642376899719238, -0.03279773145914078, -0.05682189762592316, -0.056156568229198456, -0.14065909385681152, -0.004368081223219633, -0.005714949686080217, 1.0003869533538818, -0.2753197252750397, -2.8711941242218018, 0.05748960003256798, 0.0, 0.0, 0.0, 0, 0, 0, 0, 0, 0, -0.2753197252750397, -2.8711941242218018, 0.05748960003256798
13705, 0.03586028143763542, -0.1969694048166275, -0.032350555062294006, 0.1404445618391037, -0.2632436454296112, -0.36056652665138245, -0.0022804380860179663, -0.00409645726904273, 0.9996462464332581, -0.2752924859523773, -2.8767142295837402, 0.05761755630373955, 0.0, 0.0, 0.0, 0, 0, 0, 0, 0, 0, -0.2752924859523773, -2.8767142295837402, 0.05761755630373955
13715, 0.03604782000184059, -0.19767779111862183, -0.03391610458493233, -0.08409328758716583, 0.09944909811019897, -0.0974874421954155, -0.0020688355434685946, -0.003826398868113756, 1.0015000104904175, -0.27526456117630005, -2.8822388648986816, 0.05774599686264992, 0.0, 0.0, 0.0, 0, 0, 0, 0, 0, 0, -0.27526456117630005, -2.8822388648986816, 0.05774599686264992
13725, 0.034932125359773636, -0.1976722627878189, -0.03515646234154701, 0.03168576583266258, -0.3773345947265625, 0.021169938147068024, -0.0018120714230462909, -0.005082399118691683, 1.0019296407699585, -0.27523526549339294, -2.8877675533294678, 0.05787573382258415, 0.0, 0.0, 0.0, 0, 0, 0, 0, 0, 0, -0.27523526549339294, -2.8877675533294678, 0.05787573382258415
13735, 0.03459745645523071, -0.19783642888069153, -0.0353386290371418, 0.14083260297775269, 0.1863858997821808, -0.030748208984732628, -0.0012575386790558696, -0.004881181754171848, 1.0002094507217407, -0.2752040922641754, -2.893301486968994, 0.05800696089863777, 0.0, 0.0, 0.0, 0, 0, 0, 0, 0, 0, -0.2752040922641754, -2.893301486968994, 0.05800696089863777
13745, 0.03513079509139061, -0.19757825136184692, -0.03618239983916283, 0.021950718015432358, -0.22181250154972076, 0.0034349067136645317, 0.000468960904981941, -0.0055037555284798145, 0.9990829229354858, -0.27517038583755493, -2.898841142654419, 0.05813821405172348, 0.0, 0.0, 0.0, 0, 0, 0, 0, 0, 0, -0.27517038583755493, -2.898841142654419, 0.05813821405172348
13755, 0.035451922565698624, -0.1959591805934906, -0.036763183772563934, 0.05239524319767952, 0.013676255010068417, -0.157398521900177, 0.00037973999860696495, -0.004493397660553455, 0.997657835483551, -0.27513331174850464, -2.904386281967163, 0.058268483728170395, 0.0, 0.0, 0.0, 0, 0, 0, 0, 0, 0, -0.27513331174850464, -2.904386281967163, 0.058268483728170395
13765, 0.035004567354917526, -0.19539391994476318, -0.03830739110708237, -0.19040460884571075, -0.0917266309261322, -0.12544414401054382, -0.001489833346568048, -0.0046668825671076775, 0.9997818470001221, -0.2750929594039917, -2.9099364280700684, 0.058397047221660614, 0.0, 0.0, 0.0, 0, 0, 0, 0, 0, 0, -0.2750929594039917, -2.9099364280700684, 0.058397047221660614
13775, 0.03433503583073616, -0.19562430679798126, -0.03877885267138481, -0.04191776365041733, 0.15912051498889923, 0.047393254935741425, -0.0007981547969393432, -0.0038755428977310658, 1.0006060600280762, -0.27505019307136536, -2.9154911041259766, 0.05852470174431801, 0.0, 0.0, 0.0, 0, 0, 0, 0, 0, 0, -0.27505019307136536, -2.9154911041259766, 0.05852470174431801
13785, 0.033367231488227844, -0.19849778711795807, -0.03780338913202286, -0.058794669806957245, 0.4522504210472107, -0.011463293805718422, -0.00048272364074364305, -0.0053547099232673645, 1.0003831386566162, -0.2750051021575928, -2.921050786972046, 0.05865279585123062, 0.0, 0.0, 0.0, 0, 0, 0, 0, 0, 0, -0.2750051021575928, -2.921050786972046, 0.05865279585123062
13795, 0.033075541257858276, -0.1983855813741684, -0.0373573862016201, 0.017008021473884583, -0.05147117003798485, 0.17199726402759552, 2.495743683539331e-05, -0.006059024948626757, 0.9996484518051147, -0.27495720982551575, -2.9266159534454346, 0.05878082662820816, 0.0, 0.0, 0.0, 0, 0, 0, 0, 0, 0, -0.27495720982551575, -2.9266159534454346, 0.05878082662820816
13805, 0.033487070351839066, -0.19871415197849274, -0.03629444167017937, 0.0205103550106287, 0.007814163342118263, 0.055630553513765335, -0.0011109394254162908, -0.004173805471509695, 0.9993496537208557, -0.27490609884262085, -2.9321868419647217, 0.05890843644738197, 0.0, 0.0, 0.0, 0, 0, 0, 0, 0, 0, -0.27490609884262085, -2.9321868419647217, 0.05890843644738197
13815, 0.033138662576675415, -0.19900564849376678, -0.03664270043373108, 0.0032351508270949125, 0.16955022513866425, -0.07998392730951309, -0.0023546444717794657, -0.005280890502035618, 1.000321865081787, -0.27485281229019165, -2.9377634525299072, 0.05903581902384758, 0.0, 0.0, 0.0, 0, 0, 0, 0, 0, 0, -0.27485281229019165, -2.9377634525299072, 0.05903581902384758
13825, 0.03341888263821602, -0.1994321346282959, -0.03659887984395027, -0.09038591384887695, 0.12079483270645142, 0.11997350305318832, -0.0034449449740350246, -0.006053883582353592, 0.9973225593566895, -0.27479854226112366, -2.943345785140991, 0.05916230380535126, 0.0, 0.0, 0.0, 0, 0, 0, 0, 0, 0, -0.27479854226112366, -2.943345785140991, 0.05916230380535126
13835, 0.03225730359554291, -0.19908705353736877, -0.036876339465379715, 0.01078966073691845, -0.13735532760620117, -0.13551883399486542, -0.0026988887693732977, -0.005616116803139448, 1.002082109451294, -0.2747436761856079, -2.948934316635132, 0.05928775668144226, 0.0, 0.0, 0.0, 0, 0, 0, 0, 0, 0, -0.2747436761856079, -2.948934316635132, 0.05928775668144226
13845, 0.03267938271164894, -0.19931800663471222, -0.037635575979948044, -0.014235613867640495, -0.16036292910575867, 0.015203489921987057, -0.004137279465794563, -0.0049531529657542706, 1.0004997253417969, -0.2746886610984802, -2.954528570175171, 0.059413522481918335, 0.0, 0.0, 0.0, 0, 0, 0, 0, 0, 0, -0.2746886610984802, -2.954528570175171, 0.059413522481918335
13855, 0.03275218978524208, -0.2000218629837036, -0.03749886527657509, -0.1275312304496765, 0.22247518599033356, -0.1304934024810791, -0.004020912107080221, -0.007263499312102795, 0.9974639415740967, -0.2746340334415436, -2.9601283073425293, 0.059539563953876495, 0.0, 0.0, 0.0, 0, 0, 0, 0, 0, 0, -0.2746340334415436, -2.9601283073425293, 0.059539563953876495
13865, 0.031186088919639587, -0.20029617846012115, -0.03812575340270996, -0.07232518494129181, -0.08685701340436935, -0.07896053791046143, -0.0014798355987295508, -0.006639436352998018, 1.0011858940124512, -0.27457961440086365, -2.9657351970672607, 0.05966464802622795, 0.0, 0.0, 0.0, 0, 0, 0, 0, 0, 0, -0.27457961440086365, -2.9657351970672607, 0.05966464802622795
13875, 0.031530823558568954, -0.19970691204071045, -0.03849847614765167, 0.025288768112659454, 0.0030681572388857603, -0.09520726650953293, -0.0018830103799700737, -0.004984536208212376, 1.0011738538742065, -0.2745239734649658, -2.971348762512207, 0.059789709746837616, 0.0, 0.0, 0.0, 0, 0, 0, 0, 0, 0, -0.2745239734649658, -2.971348762512207, 0.059789709746837616
13885, 0.031058816239237785, -0.2020130157470703, -0.03835892304778099, 0.021045316010713577, 0.348234087228775, -0.07018519192934036, 0.0001495142059866339, -0.005386518780142069, 0.9996105432510376, -0.27446600794792175, -2.976968288421631, 0.059915896505117416, 0.0, 0.0, 0.0, 0, 0, 0, 0, 0, 0, -0.27446600794792175, -2.976968288421631, 0.059915896505117416
13895, 0.03149845823645592, -0.20176176726818085, -0.03872028365731239, -0.03701448068022728, -0.13174904882907867, 0.06297432631254196, -0.0030043022707104683, -0.007289012894034386, 0.9977368712425232, -0.27440550923347473, -2.9825942516326904, 0.06004155054688454, 0.0, 0.0, 0.0, 0, 0, 0, 0, 0, 0, -0.27440550923347473, -2.9825942516326904, 0.06004155054688454
13905, 0.03167227283120155, -0.20123213529586792, -0.03806111961603165, 0.15570056438446045, 0.14430025219917297, 0.08394624292850494, -0.0041349707171320915, -0.004598757717758417, 0.9979392886161804, -0.2743438482284546, -2.9882266521453857, 0.06016547977924347, 0.0, 0.0, 0.0, 0, 0, 0, 0, 0, 0, -0.2743438482284546, -2.9882266521453857, 0.06016547977924347
13915, 0.03155139833688736, -0.20243246853351593, -0.03732110559940338, -0.02662367932498455, 0.27941855788230896, 0.1322707235813141, -0.002727487590163946, -0.00507329311221838, 0.9984428882598877, -0.27428242564201355, -2.9938650131225586, 0.060287803411483765, 0.0, 0.0, 0.0, 0, 0, 0, 0, 0, 0, -0.27428242564201355, -2.9938650131225586, 0.060287803411483765
13925, 0.031240463256835938, -0.20407161116600037, -0.037936847656965256, -0.026188166812062263, 0.02204293943941593, -0.017654482275247574, -0.0009781885892152786, -0.004259664099663496, 0.9995584487915039, -0.27422022819519043, -2.9995083808898926, 0.060408350080251694, 0.0, 0.0, 0.0, 0, 0, 0, 0, 0, 0, -0.27422022819519043, -2.9995083808898926, 0.060408350080251694
13935, 0.03093748353421688, -0.20332366228103638, -0.038289256393909454, -0.026315877214074135, 0.07092269510030746, 0.03203185647726059, -0.0013541606022045016, -0.003505052998661995, 1.000730037689209, -0.2741558849811554, -3.0051565170288086, 0.060528744012117386, 0.0, 0.0, 0.0, 0, 0, 0, 0, 0, 0, -0.2741558849811554, -3.0051565170288086, 0.060528744012117386
13945, 0.030824728310108185, -0.20291642844676971, -0.0373397059738636, -0.09843721240758896, 0.04977669194340706, 0.017527399584650993, -0.001509906374849379, -0.006264996714890003, 0.9977709054946899, -0.27408939599990845, -3.0108094215393066, 0.06064924970269203, 0.0, 0.0, 0.0, 0, 0, 0, 0, 0, 0, -0.27408939599990845, -3.0108094215393066, 0.06064924970269203
13955, 0.03101508691906929, -0.20251378417015076, -0.037197746336460114, -0.03255041316151619, -0.4875045418739319, -0.1598511040210724, -0.0008081480045802891, -0.006990781053900719, 0.996562659740448, -0.2740207612514496, -3.0164682865142822, 0.06076817587018013, 0.0, 0.0, 0.0, 0, 0, 0, 0, 0, 0, -0.2740207612514496, -3.0164682865142822, 0.06076817587018013
13965, 0.030063899233937263, -0.20109930634498596, -0.03781997412443161, -0.04064331576228142, 0.029742999002337456, 0.12356623262166977, -0.0019869955722242594, -0.004762261174619198, 0.9996584057807922, -0.2739498019218445, -3.0221335887908936, 0.060884661972522736, 0.0, 0.0, 0.0, 0, 0, 0, 0, 0, 0, -0.2739498019218445, -3.0221335887908936, 0.060884661972522736
13975, 0.030880650505423546, -0.20120449364185333, -0.03713707625865936, -0.0700748935341835, 0.1219523474574089, -0.06139625981450081, -0.0021336600184440613, -0.00428135646507144, 0.999341607093811, -0.27387717366218567, -3.027804136276245, 0.060999639332294464, 0.0, 0.0, 0.0, 0, 0, 0, 0, 0, 0, -0.27387717366218567, -3.027804136276245, 0.060999639332294464
13985, 0.031215863302350044, -0.2008277177810669, -0.03732910007238388, 0.10309161245822906, 0.2270115315914154, -0.10067973285913467, -0.0014396696351468563, -0.006744746118783951, 0.998257577419281, -0.2738032042980194, -3.033479928970337, 0.06111390143632889, 0.0, 0.0, 0.0, 0, 0, 0, 0, 0, 0, -0.2738032042980194, -3.033479928970337, 0.06111390143632889
13995, 0.03176494687795639, -0.20137088000774384, -0.0361202135682106, 0.04419654607772827, -0.3534936308860779, -0.11148484796285629, -0.0016866783844307065, -0.004945479333400726, 1.0012907981872559, -0.2737274467945099, -3.0391619205474854, 0.0612272284924984, 0.0, 0.0, 0.0, 0, 0, 0, 0, 0, 0, -0.2737274467945099, -3.0391619205474854, 0.0612272284924984
14005, 0.032872144132852554, -0.2005956918001175, -0.03713880106806755, -0.030687550082802773, 0.08163556456565857, -0.10731282830238342, 0.0006228850688785315, -0.003533905604854226, 0.9994555115699768, -0.273649126291275, -3.044849395751953, 0.061340831220149994, 0.0, 0.0, 0.0, 0, 0, 0, 0, 0, 0, -0.273649126291275, -3.044849395751953, 0.061340831220149994
14015, 0.03259948641061783, -0.20062200725078583, -0.037471458315849304, -0.02274998091161251, -0.009713572449982166, -0.11336209625005722, -0.0004042093059979379, -0.0049699353985488415, 1.0000523328781128, -0.2735671103000641, -3.050541400909424, 0.0614546462893486, 0.0, 0.0, 0.0, 0, 0, 0, 0, 0, 0, -0.2735671103000641, -3.050541400909424, 0.0614546462893486
14025, 0.03218628093600273, -0.20121541619300842, -0.03668004646897316, -0.06752558797597885, 0.20450592041015625, 0.12279593199491501, -0.003148609772324562, -0.004918030463159084, 1.0006412267684937, -0.27348214387893677, -3.0562379360198975, 0.06156827509403229, 0.0, 0.0, 0.0, 0, 0, 0, 0, 0, 0, -0.27348214387893677, -3.0562379360198975, 0.06156827509403229
14035, 0.0316707007586956, -0.20144447684288025, -0.03741178289055824, 0.043132323771715164, 0.21099260449409485, 0.2721898555755615, -0.003438022220507264, -0.004708159249275923, 1.000463604927063, -0.27339619398117065, -3.0619399547576904, 0.06168254464864731, 0.0, 0.0, 0.0, 0, 0, 0, 0, 0, 0, -0.27339619398117065, -3.0619399547576904, 0.06168254464864731
14045, 0.03238113597035408, -0.2030031681060791, -0.03794028237462044, -0.02543664537370205, 0.08315429091453552, 0.05389336124062538, -0.004042955115437508, -0.004254826344549656, 0.9988938570022583, -0.27331027388572693, -3.0676474571228027, 0.061797045171260834, 0.0, 0.0, 0.0, 0, 0, 0, 0, 0, 0, -0.27331027388572693, -3.0676474571228027, 0.061797045171260834
14055, 0.03350209817290306, -0.2021380513906479, -0.03740108385682106, 0.292788028717041, -0.05959445238113403, 0.028009893372654915, -0.0005612139939330518, -0.004890882410109043, 1.0000752210617065, -0.2732241749763489, -3.073359966278076, 0.06191102787852287, 0.0, 0.0, 0.0, 0, 0, 0, 0, 0, 0, -0.2732241749763489, -3.073359966278076, 0.06191102787852287
14065, 0.03352372720837593, -0.20107901096343994, -0.03713320195674896, -0.06083216145634651, 0.19473841786384583, -0.12662509083747864, -0.0011517502134665847, -0.006035481579601765, 1.0001468658447266, -0.27313655614852905, -3.079077959060669, 0.06202491745352745, 0.0, 0.0, 0.0, 0, 0, 0, 0, 0, 0, -0.27313655614852905, -3.079077959060669, 0.06202491745352745
14075, 0.03407921642065048, -0.20169031620025635, -0.038105495274066925, -0.0357477106153965, -0.37147167325019836, -0.025423811748623848, 0.0003271999885328114, -0.0038565362337976694, 0.9992048740386963, -0.2730465531349182, -3.08480167388916, 0.06213853508234024, 0.0, 0.0, 0.0, 0, 0, 0, 0, 0, 0, -0.2730465531349182, -3.08480167388916, 0.06213853508234024
14085, 0.03349342569708824, -0.19902265071868896, -0.037028275430202484, 0.08631036430597305, -0.09302116185426712, -0.0024495511315762997, 0.00036552012898027897, -0.005285652820020914, 1.0014407634735107, -0.27295351028442383, -3.0905303955078125, 0.06225205957889557, 0.0, 0.0, 0.0, 0, 0, 0, 0, 0, 0, -0.27295351028442383, -3.0905303955078125, 0.06225205957889557
14095, 0.032639600336551666, -0.1976015567779541, -0.036481477320194244, -0.14082162082195282, 0.025693055242300034, -0.20661227405071259, 0.00010718911653384566, -0.006070183124393225, 1.0011029243469238, -0.2728569507598877, -3.0962648391723633, 0.06236637756228447, 0.0, 0.0, 0.0, 0, 0, 0, 0, 0, 0, -0.2728569507598877, -3.0962648391723633, 0.06236637756228447
14105, 0.03241259604692459, -0.19885675609111786, -0.03550255671143532, 0.09585338085889816, 0.0591747984290123, 0.3275623321533203, -0.0005138428532518446, -0.005501417443156242, 1.0003998279571533, -0.2727568447589874, -3.1020054817199707, 0.062481869012117386, 0.0, 0.0, 0.0, 0, 0, 0, 0, 0, 0, -0.2727568447589874, -3.1020054817199707, 0.062481869012117386
14115, 0.03195754438638687, -0.19791509211063385, -0.03491617739200592, 0.019687293097376823, 0.1523582935333252, -0.1273280531167984, -0.0034092518035322428, -0.004784563090652227, 0.9989647269248962, -0.2726542055606842, -3.1077523231506348, 0.06259773671627045, 0.0, 0.0, 0.0, 0, 0, 0, 0, 0, 0, -0.2726542055606842, -3.1077523231506348, 0.06259773671627045
14125, 0.032020967453718185, -0.19841554760932922, -0.03630935773253441, -0.12631066143512726, -0.08377398550510406, -0.012010272592306137, -0.0008930828771553934, -0.006109532900154591, 0.997657299041748, -0.2725503444671631, -3.1135048866271973, 0.06271233409643173, 0.0, 0.0, 0.0, 0, 0, 0, 0, 0, 0, -0.2725503444671631, -3.1135048866271973, 0.06271233409643173
14135, 0.03144567459821701, -0.19632337987422943, -0.037360966205596924, 0.18411298096179962, 0.10939610004425049, -0.072415292263031, -0.0017169291386380792, -0.007534581236541271, 1.0011948347091675, -0.2724449634552002, -3.1192641258239746, 0.06282572448253632, 0.0, 0.0, 0.0, 0, 0, 0, 0, 0, 0, -0.2724449634552002, -3.1192641258239746, 0.06282572448253632
14145, 0.031475625932216644, -0.1982754021883011, -0.03658469766378403, -0.15743902325630188, 0.15423664450645447, -0.028644882142543793, -0.003786972025409341, -0.004542996175587177, 1.0004727840423584, -0.272338330745697, -3.125030040740967, 0.06293924152851105, 0.0, 0.0, 0.0, 0, 0, 0, 0, 0, 0, -0.272338330745697, -3.125030040740967, 0.06293924152851105
14155, 0.03198061138391495, -0.19956094026565552, -0.03753376007080078, 0.17428815364837646, 0.13097430765628815, 0.028926754370331764, -0.0021964479237794876, -0.005149936769157648, 1.001421332359314, -0.2722313404083252, -3.1308021545410156, 0.06305363774299622, 0.0, 0.0, 0.0, 0, 0, 0, 0, 0, 0, -0.2722313404083252, -3.1308021545410156, 0.06305363774299622
14165, 0.031210703775286674, -0.1992625743150711, -0.038261398673057556, 0.14817465841770172, -0.2233389914035797, 0.11357489973306656, -0.0020516724325716496, -0.003646662225946784, 1.000938892364502, -0.27212369441986084, -3.1365795135498047, 0.06316911429166794, 0.0, 0.0, 0.0, 0, 0, 0, 0, 0, 0, -0.27212369441986084, -3.1365795135498047, 0.06316911429166794
14175, 0.03185189142823219, -0.19963683187961578, -0.03804375231266022, 0.12338190525770187, 0.12865275144577026, -0.11157628893852234, -8.002711547305807e-05, -0.004074630327522755, 0.9989680647850037, -0.2720143496990204, -3.142361640930176, 0.06328506767749786, 0.0, 0.0, 0.0, 0, 0, 0, 0, 0, 0, -0.2720143496990204, -3.142361640930176, 0.06328506767749786
14185, 0.03099425882101059, -0.19917358458042145, -0.0387200303375721, -0.012722235172986984, -0.019276948645710945, -0.022328443825244904, -0.0022644519340246916, -0.005892313085496426, 1.000780463218689, -0.27190274000167847, -3.148148536682129, 0.06340073049068451, 0.0, 0.0, 0.0, 0, 0, 0, 0, 0, 0, -0.27190274000167847, -3.148148536682129, 0.06340073049068451
14195, 0.032280128449201584, -0.19904972612857819, -0.03849291801452637, 0.15796677768230438, 0.1257675588130951, 0.062317341566085815, -0.002599779050797224, -0.0058985501527786255, 0.9997862577438354, -0.2717895209789276, -3.1539409160614014, 0.06351640075445175, 0.0, 0.0, 0.0, 0, 0, 0, 0, 0, 0, -0.2717895209789276, -3.1539409160614014, 0.06351640075445175
14205, 0.03162215277552605, -0.20103982090950012, -0.03891666978597641, -0.16211286187171936, 0.16875088214874268, -0.13585861027240753, -0.0024676902685314417, -0.005125553347170353, 0.998643696308136, -0.27167534828186035, -3.1597397327423096, 0.06363196671009064, 0.0, 0.0, 0.0, 0, 0, 0, 0, 0, 0, -0.27167534828186035, -3.1597397327423096, 0.06363196671009064
14215, 0.030484430491924286, -0.19877029955387115, -0.039297230541706085, -0.0628712922334671, -0.1638498604297638, -0.15477272868156433, -0.0004918705089949071, -0.005047566257417202, 1.002678394317627, -0.2715596556663513, -3.165544033050537, 0.06374744325876236, 0.0, 0.0, 0.0, 0, 0, 0, 0, 0, 0, -0.2715596556663513, -3.165544033050537, 0.06374744325876236
14225, 0.030920201912522316, -0.19905468821525574, -0.04014253243803978, -0.08151230216026306, -0.22260813415050507, -0.04171298071742058, -0.000637693505268544, -0.007736734580248594, 1.000807762145996, -0.27144163846969604, -3.1713545322418213, 0.06386413425207138, 0.0, 0.0, 0.0, 0, 0, 0, 0, 0, 0, -0.27144163846969604, -3.1713545322418213, 0.06386413425207138
