timeTick, roll, pitch, yaw, gyroX, gyroY, gyroZ, accX, accY, accZ, stateX, stateY, stateZ, target_x, target_y, target_z, otX, otY, otZ, otRoll, otPitch, otYaw, kalX, kalY, kalZ
15483, 0.020403705537319183, -0.2755106985569, -0.1066897064447403, 0, 0, 0, 0, 0, 0, 0, 0, 0, 0, 0, 0, 0, 0, 0, 0, 0, 0, 0, 0, 0
15493, 0.019678648561239243, -0.27762293815612793, -0.10633336752653122, -0.0474969707429409, 0.4032287001609802, 0.12340270727872849, -0.0004169036401435733, -0.006020982749760151, 1.0010490417480469, 0.6267911791801453, -4.120543479919434, -0.09047476202249527, 0.0, 0.0, 0.0, 0, 0, 0, 0, 0, 0, 0.6267911791801453, -4.120543479919434, -0.09047476202249527
15503, 0.020075540989637375, -0.2788282036781311, -0.105446457862854, 0.150530144572258, 0.028288623318076134, 0.05703972652554512, -0.0014508762396872044, -0.004373841919004917, 1.0030772686004639, 0.6288349032402039, -4.127261638641357, -0.090665303170681, 0.0, 0.0, 0.0, 0, 0, 0, 0, 0, 0, 0.6288349032402039, -4.127261638641357, -0.090665303170681
15513, 0.020153485238552094, -0.2781694233417511, -0.10616158694028854, -0.1696544587612152, -0.19651588797569275, -0.06273631006479263, -0.0010130166774615645, -0.005375575739890337, 1.0010625123977661, 0.6308820843696594, -4.1339850425720215, -0.09085403382778168, 0.0, 0.0, 0.0, 0, 0, 0, 0, 0, 0, 0.6308820843696594, -4.1339850425720215, -0.09085403382778168
15523, 0.02060333825647831, -0.2779252827167511, -0.10563351213932037, 0.27443376183509827, 0.036776088178157806, 0.1874992996454239, -0.0010640394175425172, -0.004501014482229948, 0.9978107810020447, 0.6329329609870911, -4.140713691711426, -0.09104154258966446, 0.0, 0.0, 0.0, 0, 0, 0, 0, 0, 0, 0.6329329609870911, -4.140713691711426, -0.09104154258966446
15533, 0.02029515616595745, -0.27789315581321716, -0.10667508095502853, 0.039746079593896866, 0.21921931207180023, 0.013769722543656826, -0.0011168941855430603, -0.005093695130199194, 1.0004379749298096, 0.6349875330924988, -4.14744758605957, -0.09122979640960693, 0.0, 0.0, 0.0, 0, 0, 0, 0, 0, 0, 0.6349875330924988, -4.14744758605957, -0.09122979640960693
15543, 0.020453613251447678, -0.27921169996261597, -0.10567675530910492, -0.06174154207110405, -0.0023364622611552477, 0.009516781195998192, -9.481726010562852e-05, -0.005836882162839174, 0.9987594485282898, 0.6370458602905273, -4.154186725616455, -0.09141911566257477, 0.0, 0.0, 0.0, 0, 0, 0, 0, 0, 0, 0.6370458602905273, -4.154186725616455, -0.09141911566257477
15553, 0.0192459374666214, -0.2798892855644226, -0.10565842688083649, -0.037560220807790756, 0.4423466622829437, 0.060752660036087036, 0.0026299364399164915, -0.004173956345766783, 1.0003715753555298, 0.6391090154647827, -4.160931587219238, -0.09160877019166946, 0.0, 0.0, 0.0, 0, 0, 0, 0, 0, 0, 0.6391090154647827, -4.160931587219238, -0.09160877019166946
15563, 0.018989523872733116, -0.28042981028556824, -0.10539740324020386, -0.11945627629756927, -0.18192005157470703, 0.10910800099372864, -0.0002151288208551705, -0.004922835621982813, 0.9985586404800415, 0.6411782503128052, -4.167681694030762, -0.09179902821779251, 0.0, 0.0, 0.0, 0, 0, 0, 0, 0, 0, 0.6411782503128052, -4.167681694030762, -0.09179902821779251
15573, 0.018673932179808617, -0.28009748458862305, -0.10452290624380112, 0.017895987257361412, 0.2619727849960327, 0.010044042021036148, -0.0007988186553120613, -0.0046636126935482025, 0.998695969581604, 0.6432528495788574, -4.174436569213867, -0.0919901579618454, 0.0, 0.0, 0.0, 0, 0, 0, 0, 0, 0, 0.6432528495788574, -4.174436569213867, -0.0919901579618454
15583, 0.019374150782823563, -0.28071218729019165, -0.10559647530317307, -0.0504617765545845, -0.30264198780059814, -0.10545498132705688, -0.0010779716540127993, -0.006260688416659832, 0.9990273714065552, 0.6453315615653992, -4.181196689605713, -0.09218249469995499, 0.0, 0.0, 0.0, 0, 0, 0, 0, 0, 0, 0.6453315615653992, -4.181196689605713, -0.09218249469995499
15593, 0.020230107009410858, -0.2786734402179718, -0.1047363355755806, 0.0969383716583252, -0.19906263053417206, -0.00954347476363182, -0.004008525982499123, -0.0054153562523424625, 0.9982613325119019, 0.6474137306213379, -4.187962532043457, -0.09237582981586456, 0.0, 0.0, 0.0, 0, 0, 0, 0, 0, 0, 0.6474137306213379, -4.187962532043457, -0.09237582981586456
15603, 0.020865531638264656, -0.2776543200016022, -0.10405533015727997, 0.044134579598903656, 0.07968053966760635, 0.038843926042318344, -0.002209051512181759, -0.005291569512337446, 1.0007025003433228, 0.6494978070259094, -4.194734573364258, -0.0925699844956398, 0.0, 0.0, 0.0, 0, 0, 0, 0, 0, 0, 0.6494978070259094, -4.194734573364258, -0.0925699844956398
15613, 0.02075977623462677, -0.27852609753608704, -0.10423421114683151, 0.014087218791246414, -0.06913857907056808, 0.24974839389324188, -0.0019492064602673054, -0.005223835818469524, 0.9995392560958862, 0.6515836119651794, -4.201511859893799, -0.09276439249515533, 0.0, 0.0, 0.0, 0, 0, 0, 0, 0, 0, 0.6515836119651794, -4.201511859893799, -0.09276439249515533
15623, 0.020534168928861618, -0.27612605690956116, -0.1034981980919838, 0.0631294846534729, -0.20555338263511658, 0.04275326803326607, -0.000496170308906585, -0.004196574911475182, 0.9979957342147827, 0.653672456741333, -4.208294868469238, -0.09295883774757385, 0.0, 0.0, 0.0, 0, 0, 0, 0, 0, 0, 0.653672456741333, -4.208294868469238, -0.09295883774757385
15633, 0.02123430371284485, -0.27388647198677063, -0.10263948142528534, -0.10995565354824066, -0.17651481926441193, 0.05691910907626152, -0.0016646012663841248, -0.005208724178373814, 0.9992452263832092, 0.6557649970054626, -4.215083122253418, -0.09315469861030579, 0.0, 0.0, 0.0, 0, 0, 0, 0, 0, 0, 0.6557649970054626, -4.215083122253418, -0.09315469861030579
15643, 0.021545754745602608, -0.27365121245384216, -0.10253111273050308, 0.13247661292552948, 0.13019058108329773, 0.06591503322124481, -0.0028872760012745857, -0.005504061933606863, 0.9999335408210754, 0.6578607559204102, -4.22187614440918, -0.09335190802812576, 0.0, 0.0, 0.0, 0, 0, 0, 0, 0, 0, 0.6578607559204102, -4.22187614440918, -0.09335190802812576
15653, 0.02166091278195381, -0.2729870676994324, -0.10233734548091888, 0.16478727757930756, 0.3924684226512909, 0.03684846684336662, -0.0008764482336118817, -0.006188726518303156, 0.9998003840446472, 0.6599591374397278, -4.22867488861084, -0.09354919195175171, 0.0, 0.0, 0.0, 0, 0, 0, 0, 0, 0, 0.6599591374397278, -4.22867488861084, -0.09354919195175171
15663, 0.022624798119068146, -0.2757478356361389, -0.10137222707271576, 0.06717190146446228, 0.29101794958114624, 0.18636322021484375, -0.002314566168934107, -0.005914522800594568, 0.9983716011047363, 0.6620603799819946, -4.235479831695557, -0.0937471091747284, 0.0, 0.0, 0.0, 0, 0, 0, 0, 0, 0, 0.6620603799819946, -4.235479831695557, -0.0937471091747284
15673, 0.022836951538920403, -0.27690619230270386, -0.10194792598485947, -0.15471889078617096, 0.4627363383769989, -0.12163187563419342, 3.3598364097997546e-05, -0.004068395122885704, 1.0005829334259033, 0.6641644239425659, -4.24229097366333, -0.0939459502696991, 0.0, 0.0, 0.0, 0, 0, 0, 0, 0, 0, 0.6641644239425659, -4.24229097366333, -0.0939459502696991
15683, 0.02217329479753971, -0.2781325876712799, -0.10201843827962875, -0.11361570656299591, 0.03911646455526352, 0.10157586634159088, 0.00035449821734800935, -0.005688992794603109, 0.9989134073257446, 0.6662724614143372, -4.249107360839844, -0.09414497017860413, 0.0, 0.0, 0.0, 0, 0, 0, 0, 0, 0, 0.6662724614143372, -4.249107360839844, -0.09414497017860413
15693, 0.02288273721933365, -0.2780621349811554, -0.10179270803928375, 0.07456718385219574, 0.033279549330472946, -0.048087865114212036, -0.000526921299751848, -0.006720023229718208, 0.9960933923721313, 0.6683855652809143, -4.255929470062256, -0.09434504806995392, 0.0, 0.0, 0.0, 0, 0, 0, 0, 0, 0, 0.6683855652809143, -4.255929470062256, -0.09434504806995392
15703, 0.022322198376059532, -0.27812644839286804, -0.10162639617919922, -0.014925118535757065, 0.00758329825475812, -0.08071664720773697, -0.0010860488982871175, -0.004984680563211441, 0.9969502687454224, 0.6705029010772705, -4.262758255004883, -0.09454786032438278, 0.0, 0.0, 0.0, 0, 0, 0, 0, 0, 0, 0.6705029010772705, -4.262758255004883, -0.09454786032438278
15713, 0.022530920803546906, -0.2783331274986267, -0.1027790904045105, -0.22433732450008392, 0.07566460222005844, -0.02697731927037239, -0.002170192077755928, -0.005763248074799776, 1.001201868057251, 0.6726235151290894, -4.269592761993408, -0.09475315362215042, 0.0, 0.0, 0.0, 0, 0, 0, 0, 0, 0, 0.6726235151290894, -4.269592761993408, -0.09475315362215042
15723, 0.022601213306188583, -0.27712327241897583, -0.10332755744457245, 0.29515546560287476, -0.01929301954805851, 0.06787469983100891, 0.0009086086647585034, -0.005833907052874565, 1.0004853010177612, 0.67474764585495, -4.276432991027832, -0.09495849162340164, 0.0, 0.0, 0.0, 0, 0, 0, 0, 0, 0, 0.67474764585495, -4.276432991027832, -0.09495849162340164
15733, 0.022289013490080833, -0.27612802386283875, -0.102850541472435, 0.046620022505521774, 0.14447703957557678, 0.029607942327857018, 0.00034818710992112756, -0.005006464198231697, 0.9985244870185852, 0.6768765449523926, -4.2832794189453125, -0.09516359120607376, 0.0, 0.0, 0.0, 0, 0, 0, 0, 0, 0, 0.6768765449523926, -4.2832794189453125, -0.09516359120607376
15743, 0.022621022537350655, -0.2779063880443573, -0.10259035974740982, -0.1581844836473465, 0.2049262821674347, -0.1661723256111145, -0.0013900817139074206, -0.005194985773414373, 0.9987178444862366, 0.679010272026062, -4.290131568908691, -0.09536981582641602, 0.0, 0.0, 0.0, 0, 0, 0, 0, 0, 0, 0.679010272026062, -4.290131568908691, -0.09536981582641602
15753, 0.02041100524365902, -0.2786356806755066, -0.10378807038068771, -0.04762496426701546, 0.22549964487552643, -0.07886916399002075, -0.002599412342533469, -0.003916156943887472, 1.0003408193588257, 0.6811473369598389, -4.2969889640808105, -0.09557699412107468, 0.0, 0.0, 0.0, 0, 0, 0, 0, 0, 0, 0.6811473369598389, -4.2969889640808105, -0.09557699412107468
15763, 0.020892402157187462, -0.27948737144470215, -0.10223360359668732, 0.00017725711222738028, 0.30463725328445435, 0.01933194510638714, -0.0009978283196687698, -0.00424524862319231, 1.0009050369262695, 0.6832873225212097, -4.303851127624512, -0.09578431397676468, 0.0, 0.0, 0.0, 0, 0, 0, 0, 0, 0, 0.6832873225212097, -4.303851127624512, -0.09578431397676468
15773, 0.021271394565701485, -0.2799493968486786, -0.10228495299816132, 0.20133933424949646, -0.2801581621170044, 0.04597771540284157, 0.0004416171577759087, -0.00548528041690588, 0.9994891285896301, 0.6854308843612671, -4.310717582702637, -0.09599091112613678, 0.0, 0.0, 0.0, 0, 0, 0, 0, 0, 0, 0.6854308843612671, -4.310717582702637, -0.09599091112613678
15783, 0.02129926159977913, -0.278827965259552, -0.1020025685429573, -0.149245947599411, 0.16391031444072723, 0.09204503893852234, -0.0002226825599791482, -0.00588617380708456, 0.9983757138252258, 0.6875789761543274, -4.31758975982666, -0.0961979478597641, 0.0, 0.0, 0.0, 0, 0, 0, 0, 0, 0, 0.6875789761543274, -4.31758975982666, -0.0961979478597641
15793, 0.021727630868554115, -0.2813190817832947, -0.10249942541122437, -0.03536844998598099, 0.1743273288011551, -0.292755663394928, -0.0006282872054725885, -0.006261962465941906, 0.9977108240127563, 0.6897315382957458, -4.32446813583374, -0.09640645235776901, 0.0, 0.0, 0.0, 0, 0, 0, 0, 0, 0, 0.6897315382957458, -4.32446813583374, -0.09640645235776901
15803, 0.021392937749624252, -0.28104716539382935, -0.10115799307823181, 0.06561793386936188, 0.25276800990104675, -0.10944663733243942, -0.0015178980538621545, -0.006788683123886585, 1.000037431716919, 0.6918882727622986, -4.331352710723877, -0.09661631286144257, 0.0, 0.0, 0.0, 0, 0, 0, 0, 0, 0, 0.6918882727622986, -4.331352710723877, -0.09661631286144257
15813, 0.021502438932657242, -0.2803632915019989, -0.10224399715662003, -0.10400083661079407, -0.07062910497188568, -0.05541692674160004, 0.0006615862948819995, -0.002913440577685833, 0.9992204308509827, 0.6940491199493408, -4.33824348449707, -0.09682738035917282, 0.0, 0.0, 0.0, 0, 0, 0, 0, 0, 0, 0.6940491199493408, -4.33824348449707, -0.09682738035917282
15823, 0.021264085546135902, -0.27985259890556335, -0.10186029225587845, 0.2625390589237213, -0.2300138771533966, 0.18176588416099548, -0.0007379940361715853, -0.004977528937160969, 1.0012547969818115, 0.6962140798568726, -4.345139026641846, -0.09703868627548218, 0.0, 0.0, 0.0, 0, 0, 0, 0, 0, 0, 0.6962140798568726, -4.345139026641846, -0.09703868627548218
15833, 0.021822743117809296, -0.27873140573501587, -0.10258854925632477, -0.000588556460570544, -0.24234923720359802, -0.22405429184436798, -0.0010232554050162435, -0.0047364202328026295, 1.0017117261886597, 0.6983832716941833, -4.352039337158203, -0.09724937379360199, 0.0, 0.0, 0.0, 0, 0, 0, 0, 0, 0, 0.6983832716941833, -4.352039337158203, -0.09724937379360199
15843, 0.02287609688937664, -0.2782055139541626, -0.10232961922883987, 0.14753927290439606, -0.2634986937046051, 0.08881271630525589, -0.0006937655271030962, -0.004166666883975267, 0.9990959167480469, 0.7005561590194702, -4.358944416046143, -0.09745895117521286, 0.0, 0.0, 0.0, 0, 0, 0, 0, 0, 0, 0.7005561590194702, -4.358944416046143, -0.09745895117521286
15853, 0.021862991154193878, -0.27629074454307556, -0.10287506878376007, -0.007759820204228163, -0.1457345336675644, 0.24664461612701416, -0.00046166888205334544, -0.004761076066643, 1.0005476474761963, 0.7027329206466675, -4.365854263305664, -0.09766817092895508, 0.0, 0.0, 0.0, 0, 0, 0, 0, 0, 0, 0.7027329206466675, -4.365854263305664, -0.09766817092895508
15863, 0.02122541330754757, -0.2756272852420807, -0.10327920317649841, -0.1057521253824234, -0.11480770260095596, -0.14910782873630524, -0.003139543579891324, -0.004371502436697483, 0.9982788562774658, 0.7049137353897095, -4.372768878936768, -0.09787772595882416, 0.0, 0.0, 0.0, 0, 0, 0, 0, 0, 0, 0.7049137353897095, -4.372768878936768, -0.09787772595882416
15873, 0.020801609382033348, -0.2743114233016968, -0.10328321158885956, 0.15713384747505188, 0.20429812371730804, 0.15768100321292877, -0.0019667998421937227, -0.0035166400484740734, 1.000100016593933, 0.7070972919464111, -4.379688262939453, -0.09808757156133652, 0.0, 0.0, 0.0, 0, 0, 0, 0, 0, 0, 0.7070972919464111, -4.379688262939453, -0.09808757156133652
15883, 0.021690094843506813, -0.2743452191352844, -0.10246607661247253, -0.04369034618139267, -0.09887918084859848, 0.18490725755691528, -0.001549975830130279, -0.004522546194493771, 0.9996759295463562, 0.7092835307121277, -4.3866119384765625, -0.09829770773649216, 0.0, 0.0, 0.0, 0, 0, 0, 0, 0, 0, 0.7092835307121277, -4.3866119384765625, -0.09829770773649216
15893, 0.021012641489505768, -0.27357399463653564, -0.10304757207632065, -0.016720980405807495, 0.025895241647958755, -0.14394068717956543, -0.0021165162324905396, -0.004434602800756693, 0.9993401765823364, 0.7114731669425964, -4.393540382385254, -0.09850815683603287, 0.0, 0.0, 0.0, 0, 0, 0, 0, 0, 0, 0.7114731669425964, -4.393540382385254, -0.09850815683603287
15903, 0.02029825747013092, -0.2751076817512512, -0.1015249639749527, -0.004031147342175245, 0.20391832292079926, 0.0700826421380043, -0.0011957206297665834, -0.0038300296291708946, 1.0013909339904785, 0.7136659026145935, -4.400473594665527, -0.09871847927570343, 0.0, 0.0, 0.0, 0, 0, 0, 0, 0, 0, 0.7136659026145935, -4.400473594665527, -0.09871847927570343
15913, 0.019986528903245926, -0.2758629024028778, -0.10141433775424957, 0.06383389234542847, 0.14092424511909485, 0.03780495002865791, -0.0017387671396136284, -0.004711776506155729, 1.001224398612976, 0.7158616781234741, -4.407411098480225, -0.09892787784337997, 0.0, 0.0, 0.0, 0, 0, 0, 0, 0, 0, 0.7158616781234741, -4.407411098480225, -0.09892787784337997
15923, 0.02014852501451969, -0.2747393250465393, -0.10269386321306229, 0.1309148073196411, -0.09108075499534607, -0.12341492623090744, 0.001615568995475769, -0.006177058909088373, 0.9995712637901306, 0.7180616855621338, -4.414353847503662, -0.09913625568151474, 0.0, 0.0, 0.0, 0, 0, 0, 0, 0, 0, 0.7180616855621338, -4.414353847503662, -0.09913625568151474
15933, 0.0212178323417902, -0.27444323897361755, -0.10134000331163406, -0.027271589264273643, 0.13138554990291595, -0.08669836819171906, -0.0014412706950679421, -0.006784032564610243, 1.0038684606552124, 0.7202666997909546, -4.421302795410156, -0.09934422373771667, 0.0, 0.0, 0.0, 0, 0, 0, 0, 0, 0, 0.7202666997909546, -4.421302795410156, -0.09934422373771667
15943, 0.0216547641903162, -0.2735480070114136, -0.10328121483325958, -0.05029169097542763, 0.17490065097808838, 0.034618232399225235, -0.0025947848334908485, -0.005231484770774841, 0.9995434284210205, 0.7224755883216858, -4.428258419036865, -0.09955064207315445, 0.0, 0.0, 0.0, 0, 0, 0, 0, 0, 0, 0.7224755883216858, -4.428258419036865, -0.09955064207315445
15953, 0.022373823449015617, -0.27542442083358765, -0.10209328681230545, 0.17096877098083496, 0.10322804749011993, -0.04498123750090599, -0.00039501921855844557, -0.004492024891078472, 0.999294638633728, 0.7246872782707214, -4.435219764709473, -0.09975592792034149, 0.0, 0.0, 0.0, 0, 0, 0, 0, 0, 0, 0.7246872782707214, -4.435219764709473, -0.09975592792034149
15963, 0.02129109762609005, -0.2753075957298279, -0.10326327383518219, 0.05453311279416084, 0.011675935238599777, -0.030043285340070724, -0.00014521405682899058, -0.005494610872119665, 0.9993467330932617, 0.7269024848937988, -4.4421868324279785, -0.09996238350868225, 0.0, 0.0, 0.0, 0, 0, 0, 0, 0, 0, 0.7269024848937988, -4.4421868324279785, -0.09996238350868225
15973, 0.02208366058766842, -0.275957852602005, -0.10248584300279617, 0.07932992279529572, 0.03678559884428978, 0.09199295938014984, 0.0006966982618905604, -0.006201831623911858, 0.999159038066864, 0.7291222810745239, -4.449159622192383, -0.10016964375972748, 0.0, 0.0, 0.0, 0, 0, 0, 0, 0, 0, 0.7291222810745239, -4.449159622192383, -0.10016964375972748
15983, 0.02286972850561142, -0.2734057307243347, -0.10239169746637344, 0.026451649144291878, -0.19988161325454712, 0.18688227236270905, -0.0012267361162230372, -0.006504884921014309, 1.0010498762130737, 0.7313469648361206, -4.456138610839844, -0.10037719458341599, 0.0, 0.0, 0.0, 0, 0, 0, 0, 0, 0, 0.7313469648361206, -4.456138610839844, -0.10037719458341599
15993, 0.02213956229388714, -0.2752287983894348, -0.1016983911395073, -0.19039978086948395, 0.3713461756706238, 0.02510092407464981, -0.001965988427400589, -0.007243557833135128, 1.001062035560608, 0.7335757613182068, -4.463123798370361, -0.1005844846367836, 0.0, 0.0, 0.0, 0, 0, 0, 0, 0, 0, 0.7335757613182068, -4.463123798370361, -0.1005844846367836
16003, 0.020727690309286118, -0.27462002635002136, -0.10186616331338882, 0.195241779088974, 0.0887502133846283, -0.00689998222514987, -0.0012125951470807195, -0.00619469303637743, 1.000734806060791, 0.735807478427887, -4.470116138458252, -0.10079067200422287, 0.0, 0.0, 0.0, 0, 0, 0, 0, 0, 0, 0.735807478427887, -4.470116138458252, -0.10079067200422287
16013, 0.022075999528169632, -0.27679863572120667, -0.10178883373737335, -0.0890306830406189, -0.1679539680480957, 0.09936727583408356, 0.0018395900260657072, -0.004874550737440586, 1.0008975267410278, 0.7380427122116089, -4.477115154266357, -0.10099616646766663, 0.0, 0.0, 0.0, 0, 0, 0, 0, 0, 0, 0.7380427122116089, -4.477115154266357, -0.10099616646766663
16023, 0.022343546152114868, -0.2758563756942749, -0.10015194118022919, 0.3705997169017792, -0.0037704957649111748, 0.1556752473115921, 0.00027931315707974136, -0.005416774190962315, 0.997077226638794, 0.7402833700180054, -4.484119415283203, -0.10120127350091934, 0.0, 0.0, 0.0, 0, 0, 0, 0, 0, 0, 0.7402833700180054, -4.484119415283203, -0.10120127350091934
16033, 0.022098103538155556, -0.2753138244152069, -0.10028152912855148, -0.1613020896911621, 0.1084277331829071, 0.24160251021385193, -0.001992319943383336, -0.004194583743810654, 1.0016846656799316, 0.7427541613578796, -4.491830348968506, -0.10142792761325836, 0.0, 0.0, 0.0, 0, 0, 0, 0, 0, 0, 0.7427541613578796, -4.491830348968506, -0.10142792761325836
16043, 0.022694196552038193, -0.2771826982498169, -0.09756246209144592, 0.11883457750082016, -0.0353061817586422, 0.16087375581264496, -0.0018955664709210396, -0.003943054936826229, 1.0020525455474854, 0.7450039982795715, -4.49884557723999, -0.10163402557373047, 0.0, 0.0, 0.0, 0, 0, 0, 0, 0, 0, 0.7450039982795715, -4.49884557723999, -0.10163402557373047
16053, 0.02324187383055687, -0.2764526307582855, -0.09892402589321136, 0.1447135955095291, 0.09090705960988998, -0.17710334062576294, -0.0019120931392535567, -0.006108440924435854, 1.0005487203598022, 0.7472565174102783, -4.505865097045898, -0.10183824598789215, 0.0, 0.0, 0.0, 0, 0, 0, 0, 0, 0, 0.7472565174102783, -4.505865097045898, -0.10183824598789215
16063, 0.02333632856607437, -0.27402010560035706, -0.10071049630641937, 0.03391502797603607, -0.23537954688072205, 0.0029710305389016867, -0.0011130600469186902, -0.006024698726832867, 0.9990036487579346, 0.7495120167732239, -4.512890338897705, -0.10204195976257324, 0.0, 0.0, 0.0, 0, 0, 0, 0, 0, 0, 0.7495120167732239, -4.512890338897705, -0.10204195976257324
16073, 0.023146959021687508, -0.2741735279560089, -0.10019519925117493, 0.0686173066496849, -0.21194913983345032, -0.03750286251306534, -0.0012017228873446584, -0.005921559873968363, 0.9992527961730957, 0.7517709136009216, -4.519921779632568, -0.10224615037441254, 0.0, 0.0, 0.0, 0, 0, 0, 0, 0, 0, 0.7517709136009216, -4.519921779632568, -0.10224615037441254
16083, 0.024236952885985374, -0.2737796902656555, -0.1004452258348465, 0.034029386937618256, 0.07931825518608093, 0.22221148014068604, -0.0015714031178504229, -0.004968165419995785, 1.0022300481796265, 0.7540333867073059, -4.526959419250488, -0.10245057940483093, 0.0, 0.0, 0.0, 0, 0, 0, 0, 0, 0, 0.7540333867073059, -4.526959419250488, -0.10245057940483093
16093, 0.02408357337117195, -0.2759486734867096, -0.09999004006385803, -0.04363672807812691, 0.18852019309997559, -0.03274765983223915, -0.001924487529322505, -0.0049566710367798805, 1.0011481046676636, 0.7562989592552185, -4.534002780914307, -0.10265397280454636, 0.0, 0.0, 0.0, 0, 0, 0, 0, 0, 0, 0.7562989592552185, -4.534002780914307, -0.10265397280454636
16103, 0.024130376055836678, -0.27605757117271423, -0.10050229728221893, 0.06594330817461014, 0.09334181994199753, -0.12751510739326477, -0.0010718817356973886, -0.0034071230329573154, 1.0003752708435059, 0.7585676312446594, -4.541051387786865, -0.1028558611869812, 0.0, 0.0, 0.0, 0, 0, 0, 0, 0, 0, 0.7585676312446594, -4.541051387786865, -0.1028558611869812
16113, 0.024293353781104088, -0.2774822413921356, -0.10127739608287811, -0.251033216714859, 0.11080633103847504, 0.0744553729891777, -0.0017363312654197216, -0.004068040754646063, 0.9959951043128967, 0.7608395218849182, -4.548104286193848, -0.1030580922961235, 0.0, 0.0, 0.0, 0, 0, 0, 0, 0, 0, 0.7608395218849182, -4.548104286193848, -0.1030580922961235
16123, 0.023450536653399467, -0.27787235379219055, -0.10087782889604568, 0.08251185715198517, -0.10373064875602722, -0.13296090066432953, -0.0019429466919973493, -0.006019740365445614, 0.9979813694953918, 0.763114333152771, -4.555161952972412, -0.10326238721609116, 0.0, 0.0, 0.0, 0, 0, 0, 0, 0, 0, 0.763114333152771, -4.555161952972412, -0.10326238721609116
16133, 0.02404879406094551, -0.2771453261375427, -0.1009230688214302, 0.09133818745613098, -0.08769858628511429, 0.10641660541296005, 0.0016721937572583556, -0.005357882007956505, 1.0002890825271606, 0.765392541885376, -4.562224864959717, -0.10346872359514236, 0.0, 0.0, 0.0, 0, 0, 0, 0, 0, 0, 0.765392541885376, -4.562224864959717, -0.10346872359514236
16143, 0.023946674540638924, -0.2783065736293793, -0.10070101916790009, -0.12233603745698929, 0.3394045829772949, -0.14212508499622345, 0.0007102733943611383, -0.007292625028640032, 0.9998565316200256, 0.767676055431366, -4.569294452667236, -0.10367579758167267, 0.0, 0.0, 0.0, 0, 0, 0, 0, 0, 0, 0.767676055431366, -4.569294452667236, -0.10367579758167267
16153, 0.023503631353378296, -0.2783683240413666, -0.10063206404447556, -0.05718139186501503, 0.20333974063396454, -0.09375515580177307, -0.004203466232866049, -0.00507845776155591, 1.0007950067520142, 0.7699645161628723, -4.5763702392578125, -0.1038823127746582, 0.0, 0.0, 0.0, 0, 0, 0, 0, 0, 0, 0.7699645161628723, -4.5763702392578125, -0.1038823127746582
16163, 0.02258082665503025, -0.2790199816226959, -0.10072124004364014, 0.11365648359060287, 0.17847341299057007, 0.010361118242144585, -0.0011087761959061027, -0.005458602216094732, 0.9992757439613342, 0.7722553014755249, -4.583452224731445, -0.10408846288919449, 0.0, 0.0, 0.0, 0, 0, 0, 0, 0, 0, 0.7722553014755249, -4.583452224731445, -0.10408846288919449
16173, 0.02296300232410431, -0.28116658329963684, -0.10031965374946594, 0.0809091180562973, 0.24647405743598938, -0.10706683993339539, -0.0003173384757246822, -0.004290676210075617, 0.9991032481193542, 0.7745491862297058, -4.590539455413818, -0.1042950227856636, 0.0, 0.0, 0.0, 0, 0, 0, 0, 0, 0, 0.7745491862297058, -4.590539455413818, -0.1042950227856636
16183, 0.02249862439930439, -0.27904564142227173, -0.10104981809854507, -0.030776843428611755, -0.03541739657521248, 0.08131763339042664, -0.001305480138398707, -0.0053673735819756985, 1.0009167194366455, 0.776847243309021, -4.597631931304932, -0.10450232028961182, 0.0, 0.0, 0.0, 0, 0, 0, 0, 0, 0, 0.776847243309021, -4.597631931304932, -0.10450232028961182
16193, 0.022513292729854584, -0.27918076515197754, -0.10070423781871796, -0.0660608783364296, -0.07366636395454407, -0.03413226827979088, -0.0037803759332746267, -0.006151145789772272, 0.9989880919456482, 0.779148280620575, -4.604729652404785, -0.10470977425575256, 0.0, 0.0, 0.0, 0, 0, 0, 0, 0, 0, 0.779148280620575, -4.604729652404785, -0.10470977425575256
16203, 0.02191423811018467, -0.28076162934303284, -0.1013803482055664, -0.21237023174762726, 0.271713525056839, -0.0841277614235878, -0.0019129827851429582, -0.00556099833920598, 1.002108097076416, 0.7814512252807617, -4.611833572387695, -0.10491675138473511, 0.0, 0.0, 0.0, 0, 0, 0, 0, 0, 0, 0.7814512252807617, -4.611833572387695, -0.10491675138473511
16213, 0.02145012468099594, -0.28268831968307495, -0.10135725885629654, -0.013976013287901878, 0.4503798186779022, -0.03982982039451599, -0.002261872636154294, -0.0060821836814284325, 0.9989336729049683, 0.7837563753128052, -4.618943691253662, -0.10512343049049377, 0.0, 0.0, 0.0, 0, 0, 0, 0, 0, 0, 0.7837563753128052, -4.618943691253662, -0.10512343049049377
16223, 0.02097334899008274, -0.28278493881225586, -0.10218437016010284, 0.03425830230116844, -0.0921049490571022, -0.049080558121204376, -0.002921208506450057, -0.0056005981750786304, 0.9993977546691895, 0.7860643863677979, -4.6260600090026855, -0.10533016920089722, 0.0, 0.0, 0.0, 0, 0, 0, 0, 0, 0, 0.7860643863677979, -4.6260600090026855, -0.10533016920089722
16233, 0.02067248523235321, -0.2840976119041443, -0.10187532752752304, 0.0010379087179899216, 0.008332968689501286, 0.019256118685007095, -0.0006224863464012742, -0.006093138363212347, 1.000637173652649, 0.7883751392364502, -4.633182048797607, -0.10553734004497528, 0.0, 0.0, 0.0, 0, 0, 0, 0, 0, 0, 0.7883751392364502, -4.633182048797607, -0.10553734004497528
16243, 0.021002132445573807, -0.28527453541755676, -0.10139798372983932, -0.10211722552776337, 0.16697323322296143, 0.02543976902961731, 0.0007970056030899286, -0.005585068836808205, 0.9983168840408325, 0.7906895875930786, -4.640310287475586, -0.1057448610663414, 0.0, 0.0, 0.0, 0, 0, 0, 0, 0, 0, 0.7906895875930786, -4.640310287475586, -0.1057448610663414
16253, 0.020135769620537758, -0.28661876916885376, -0.10218437016010284, -0.1043417751789093, 0.18151067197322845, -0.09134451299905777, 0.0001198396785184741, -0.004024422727525234, 1.0005515813827515, 0.7930094599723816, -4.647443771362305, -0.1059526801109314, 0.0, 0.0, 0.0, 0, 0, 0, 0, 0, 0, 0.7930094599723816, -4.647443771362305, -0.1059526801109314
16263, 0.01907522976398468, -0.28649967908859253, -0.10384344309568405, 0.10965870320796967, -0.09618759155273438, -0.12205833941698074, -0.0006509045488201082, -0.0029585009906440973, 1.0007507801055908, 0.7953346371650696, -4.654581546783447, -0.10616064816713333, 0.0, 0.0, 0.0, 0, 0, 0, 0, 0, 0, 0.7953346371650696, -4.654581546783447, -0.10616064816713333
16273, 0.020458431914448738, -0.2864757180213928, -0.1026148647069931, 0.030933953821659088, 0.014348414726555347, -0.12733888626098633, -0.0026763121131807566, -0.005830975715070963, 1.001787781715393, 0.7976637482643127, -4.6617231369018555, -0.10636777430772781, 0.0, 0.0, 0.0, 0, 0, 0, 0, 0, 0, 0.7976637482643127, -4.6617231369018555, -0.10636777430772781
16283, 0.02039608173072338, -0.2878586947917938, -0.10277018696069717, -0.029378317296504974, 0.2046339362859726, -0.11395703256130219, -0.0014486074214801192, -0.005668128374963999, 0.9999498128890991, 0.7999955415725708, -4.668869972229004, -0.10657378286123276, 0.0, 0.0, 0.0, 0, 0, 0, 0, 0, 0, 0.7999955415725708, -4.668869972229004, -0.10657378286123276
16293, 0.020396366715431213, -0.28867119550704956, -0.10358661413192749, 0.014571421779692173, 0.12082938849925995, -0.03777642175555229, -0.0019713749643415213, -0.006590741220861673, 1.0002466440200806, 0.8023303747177124, -4.676023006439209, -0.10677935928106308, 0.0, 0.0, 0.0, 0, 0, 0, 0, 0, 0, 0.8023303747177124, -4.676023006439209, -0.10677935928106308
16303, 0.02015710063278675, -0.2866150140762329, -0.10411819070577621, -0.07848245650529861, -0.1537502408027649, -0.013384639285504818, -0.0007706859614700079, -0.005771370604634285, 1.0001615285873413, 0.8046687841415405, -4.683182716369629, -0.1069847121834755, 0.0, 0.0, 0.0, 0, 0, 0, 0, 0, 0, 0.8046687841415405, -4.683182716369629, -0.1069847121834755
16313, 0.02066102623939514, -0.2858349084854126, -0.1048378124833107, -0.06735306233167648, -0.33636248111724854, -0.06017553433775902, -0.0004889967967756093, -0.004258179571479559, 1.0017755031585693, 0.8070110082626343, -4.690348148345947, -0.10718970745801926, 0.0, 0.0, 0.0, 0, 0, 0, 0, 0, 0, 0.8070110082626343, -4.690348148345947, -0.10718970745801926
16323, 0.020533205941319466, -0.2855059802532196, -0.10479775071144104, 0.03970785811543465, -0.09178882837295532, -0.0490880012512207, -0.0015162014169618487, -0.004210213664919138, 0.9988618493080139, 0.8093574047088623, -4.697518348693848, -0.10739360749721527, 0.0, 0.0, 0.0, 0, 0, 0, 0, 0, 0, 0.8093574047088623, -4.697518348693848, -0.10739360749721527
16333, 0.021103790029883385, -0.28315216302871704, -0.10551979392766953, -0.09851646423339844, -0.08906932920217514, 0.06026534363627434, -0.0009560863836668432, -0.00406584981828928, 1.0000978708267212, 0.8117075562477112, -4.70469331741333, -0.10759738087654114, 0.0, 0.0, 0.0, 0, 0, 0, 0, 0, 0, 0.8117075562477112, -4.70469331741333, -0.10759738087654114
16343, 0.020881984382867813, -0.2832232713699341, -0.10558512061834335, -0.05144094303250313, -0.04764091223478317, -0.18545672297477722, -0.0015351073816418648, -0.002411493333056569, 1.001191258430481, 0.8140612244606018, -4.711872100830078, -0.10780156403779984, 0.0, 0.0, 0.0, 0, 0, 0, 0, 0, 0, 0.8140612244606018, -4.711872100830078, -0.10780156403779984
16353, 0.020137615501880646, -0.2833513021469116, -0.10612815618515015, -0.16518951952457428, 0.278564989566803, 0.1416105329990387, -0.0018419827101752162, -0.0038180958945304155, 0.9999256134033203, 0.8164182305335999, -4.719054222106934, -0.10800478607416153, 0.0, 0.0, 0.0, 0, 0, 0, 0, 0, 0, 0.8164182305335999, -4.719054222106934, -0.10800478607416153
16363, 0.019572043791413307, -0.2844153046607971, -0.10593380779027939, -0.2510603368282318, 0.03546266630291939, -0.030198682099580765, -0.0007539463113062084, -0.0026004028040915728, 0.9999667406082153, 0.8187786340713501, -4.726240158081055, -0.10820800065994263, 0.0, 0.0, 0.0, 0, 0, 0, 0, 0, 0, 0.8187786340713501, -4.726240158081055, -0.10820800065994263
16373, 0.020565126091241837, -0.2850232720375061, -0.10588225722312927, -0.013014664873480797, 0.23786629736423492, 0.14833541214466095, -0.0005232993862591684, -0.0034053875133395195, 1.0001193284988403, 0.8211429119110107, -4.733429431915283, -0.10841144621372223, 0.0, 0.0, 0.0, 0, 0, 0, 0, 0, 0, 0.8211429119110107, -4.733429431915283, -0.10841144621372223
16383, 0.019717447459697723, -0.285183846950531, -0.10418757051229477, 0.05747930705547333, -0.11219518631696701, -0.04416162520647049, -0.001500725862570107, -0.00595393031835556, 0.9979416131973267, 0.8235113620758057, -4.7406229972839355, -0.10861516743898392, 0.0, 0.0, 0.0, 0, 0, 0, 0, 0, 0, 0.8235113620758057, -4.7406229972839355, -0.10861516743898392
16393, 0.019808726385235786, -0.2860846519470215, -0.10398294031620026, 0.003975689876824617, 0.0727132111787796, 0.10227558016777039, -0.0017839692300185561, -0.008748493157327175, 0.9972690343856812, 0.825883150100708, -4.7478227615356445, -0.1088205873966217, 0.0, 0.0, 0.0, 0, 0, 0, 0, 0, 0, 0.825883150100708, -4.7478227615356445, -0.1088205873966217
16403, 0.01972883939743042, -0.2867830693721771, -0.10369408130645752, -0.008164864964783192, 0.27659350633621216, -0.15919171273708344, -0.002108626998960972, -0.00545130530372262, 1.0008339881896973, 0.82825767993927, -4.755029678344727, -0.10902772843837738, 0.0, 0.0, 0.0, 0, 0, 0, 0, 0, 0, 0.82825767993927, -4.755029678344727, -0.10902772843837738
16413, 0.02028597891330719, -0.28635385632514954, -0.10342991352081299, 0.08983783423900604, -0.12693622708320618, 0.009633509442210197, -0.0021543793845921755, -0.008031676523387432, 0.999417245388031, 0.8306348323822021, -4.76224422454834, -0.10923530906438828, 0.0, 0.0, 0.0, 0, 0, 0, 0, 0, 0, 0.8306348323822021, -4.76224422454834, -0.10923530906438828
16423, 0.02022472396492958, -0.28704366087913513, -0.10330077260732651, 0.07519388943910599, 0.3257104158401489, -0.06928153336048126, 2.020711690420285e-05, -0.008018613792955875, 0.9978089332580566, 0.8330152034759521, -4.769466400146484, -0.10944296419620514, 0.0, 0.0, 0.0, 0, 0, 0, 0, 0, 0, 0.8330152034759521, -4.769466400146484, -0.10944296419620514
16433, 0.019702862948179245, -0.2892276346683502, -0.10224556922912598, 0.07310530543327332, -0.036179255694150925, -0.014884276315569878, -0.001643966999836266, -0.008153089322149754, 1.0004453659057617, 0.835399866104126, -4.776697158813477, -0.10965170711278915, 0.0, 0.0, 0.0, 0, 0, 0, 0, 0, 0, 0.835399866104126, -4.776697158813477, -0.10965170711278915
16443, 0.02212613821029663, -0.2903088331222534, -0.10197111964225769, 0.08264734596014023, 0.17783966660499573, 0.08444542437791824, -0.00354062975384295, -0.007188260555267334, 0.9979565143585205, 0.8377881646156311, -4.783936023712158, -0.10986141860485077, 0.0, 0.0, 0.0, 0, 0, 0, 0, 0, 0, 0.8377881646156311, -4.783936023712158, -0.10986141860485077
16453, 0.02194898948073387, -0.2887648642063141, -0.10373411327600479, 0.13972513377666473, -0.2017090618610382, -0.11141787469387054, -0.00424734503030777, -0.005389196798205376, 1.0000239610671997, 0.8401780724525452, -4.791182518005371, -0.11007168143987656, 0.0, 0.0, 0.0, 0, 0, 0, 0, 0, 0, 0.8401780724525452, -4.791182518005371, -0.11007168143987656
16463, 0.02219492942094803, -0.2898472547531128, -0.10237917304039001, -0.21560683846473694, 0.15746350586414337, 0.024306315928697586, -0.001563551602885127, -0.005181940272450447, 0.9990940690040588, 0.8425691723823547, -4.798434734344482, -0.11028261482715607, 0.0, 0.0, 0.0, 0, 0, 0, 0, 0, 0, 0.8425691723823547, -4.798434734344482, -0.11028261482715607
16473, 0.022487124428153038, -0.29068586230278015, -0.10318849980831146, 0.003904322860762477, 0.07382933795452118, -0.3733021914958954, -0.0010066182585433125, -0.006717570126056671, 1.0010459423065186, 0.8449630737304688, -4.805692672729492, -0.11049367487430573, 0.0, 0.0, 0.0, 0, 0, 0, 0, 0, 0, 0.8449630737304688, -4.805692672729492, -0.11049367487430573
16483, 0.02332128770649433, -0.2896422743797302, -0.10300509631633759, 0.00487528508529067, 0.024065222591161728, 0.016847241669893265, -0.0018583318451419473, -0.006466821767389774, 0.9992963671684265, 0.8473607301712036, -4.812957286834717, -0.11070448905229568, 0.0, 0.0, 0.0, 0, 0, 0, 0, 0, 0, 0.8473607301712036, -4.812957286834717, -0.11070448905229568
16493, 0.02374119684100151, -0.2911018133163452, -0.10337119549512863, 0.06281086802482605, 0.06279008090496063, -0.0952901542186737, -0.0014955347869545221, -0.00628198217600584, 0.9983891844749451, 0.849761962890625, -4.8202290534973145, -0.11091579496860504, 0.0, 0.0, 0.0, 0, 0, 0, 0, 0, 0, 0.849761962890625, -4.8202290534973145, -0.11091579496860504
16503, 0.023649491369724274, -0.290696382522583, -0.10302691906690598, -0.027072977274656296, 0.0923420637845993, -0.06507674604654312, -0.0009031625231727958, -0.006022714078426361, 1.001441240310669, 0.8521667718887329, -4.827507495880127, -0.11112789064645767, 0.0, 0.0, 0.0, 0, 0, 0, 0, 0, 0, 0.8521667718887329, -4.827507495880127, -0.11112789064645767
16513, 0.023500729352235794, -0.2918403148651123, -0.10520549863576889, -0.03837468847632408, -0.19521202147006989, -0.22045718133449554, 0.00048409466398879886, -0.004458442330360413, 1.000685453414917, 0.8545756936073303, -4.834791660308838, -0.11133991926908493, 0.0, 0.0, 0.0, 0, 0, 0, 0, 0, 0, 0.8545756936073303, -4.834791660308838, -0.11133991926908493
16523, 0.02376970462501049, -0.2903158962726593, -0.10560932010412216, 0.09366904944181442, -0.2544904947280884, 0.015200529247522354, -0.0003634827444329858, -0.0031281476840376854, 1.0003178119659424, 0.8569895625114441, -4.842080593109131, -0.11155092716217041, 0.0, 0.0, 0.0, 0, 0, 0, 0, 0, 0, 0.8569895625114441, -4.842080593109131, -0.11155092716217041
16533, 0.023153550922870636, -0.29102233052253723, -0.1053985208272934, -0.06489016115665436, -0.05296889692544937, 0.03289690986275673, -0.0009873530361801386, -0.006640328094363213, 1.0003584623336792, 0.8594082593917847, -4.849373817443848, -0.11176121234893799, 0.0, 0.0, 0.0, 0, 0, 0, 0, 0, 0, 0.8594082593917847, -4.849373817443848, -0.11176121234893799
16543, 0.023444565013051033, -0.2897847592830658, -0.1045675128698349, 0.009110912680625916, 0.20777170360088348, 0.12216592580080032, -0.0008844640688039362, -0.0038801138289272785, 0.9987747669219971, 0.8618309497833252, -4.856672763824463, -0.1119716539978981, 0.0, 0.0, 0.0, 0, 0, 0, 0, 0, 0, 0.8618309497833252, -4.856672763824463, -0.1119716539978981
16553, 0.02267218939960003, -0.29063835740089417, -0.10349138081073761, -0.1733221411705017, 0.15128053724765778, -0.012689885683357716, -0.0019089881097897887, -0.0036702833604067564, 0.9985823631286621, 0.8642575144767761, -4.86397647857666, -0.11218288540840149, 0.0, 0.0, 0.0, 0, 0, 0, 0, 0, 0, 0.8642575144767761, -4.86397647857666, -0.11218288540840149
16563, 0.022904090583324432, -0.29053449630737305, -0.10379326343536377, -0.12676142156124115, 0.041869621723890305, -0.0584593191742897, -0.0017570385243743658, -0.006027804221957922, 1.0009431838989258, 0.8666873574256897, -4.871284484863281, -0.11239516735076904, 0.0, 0.0, 0.0, 0, 0, 0, 0, 0, 0, 0.8666873574256897, -4.871284484863281, -0.11239516735076904
16573, 0.022519951686263084, -0.2893417775630951, -0.10478165000677109, 0.2422916144132614, -0.24977098405361176, 0.04017910361289978, -0.0009939437732100487, -0.004748060833662748, 1.0022600889205933, 0.8691205978393555, -4.878598213195801, -0.1126069650053978, 0.0, 0.0, 0.0, 0, 0, 0, 0, 0, 0, 0.8691205978393555, -4.878598213195801, -0.1126069650053978
16583, 0.02280580811202526, -0.2897326350212097, -0.10353764146566391, -0.298033744096756, 0.11399823427200317, 0.061050351709127426, -0.0016949810087680817, -0.007459033280611038, 0.9999725222587585, 0.8715572357177734, -4.885918617248535, -0.11281745880842209, 0.0, 0.0, 0.0, 0, 0, 0, 0, 0, 0, 0.8715572357177734, -4.885918617248535, -0.11281745880842209
16593, 0.022395433858036995, -0.29003146290779114, -0.10400761663913727, 0.20253050327301025, -0.09809177368879318, -0.14216341078281403, -0.0003012801753357053, -0.004751770757138729, 0.9986358880996704, 0.8739975094795227, -4.893245220184326, -0.11302755773067474, 0.0, 0.0, 0.0, 0, 0, 0, 0, 0, 0, 0.8739975094795227, -4.893245220184326, -0.11302755773067474
16603, 0.022327616810798645, -0.28804928064346313, -0.10268376767635345, 0.1323269009590149, -0.051786523312330246, 0.15263631939888, 0.0007584150298498571, -0.004221556708216667, 1.0001755952835083, 0.8764423727989197, -4.900578022003174, -0.11323811113834381, 0.0, 0.0, 0.0, 0, 0, 0, 0, 0, 0, 0.8764423727989197, -4.900578022003174, -0.11323811113834381
16613, 0.02192823961377144, -0.29004883766174316, -0.10276961326599121, -0.2208833545446396, 0.061210598796606064, -0.20451922714710236, -3.745326102944091e-05, -0.0039363824762403965, 0.9995399713516235, 0.8788924217224121, -4.9079155921936035, -0.11344928294420242, 0.0, 0.0, 0.0, 0, 0, 0, 0, 0, 0, 0.8788924217224121, -4.9079155921936035, -0.11344928294420242
16623, 0.019983507692813873, -0.28929588198661804, -0.10355459153652191, -0.04394063353538513, 0.21237894892692566, 0.04670846462249756, -0.001228776411153376, -0.006997269112616777, 1.000571846961975, 0.88134765625, -4.915257930755615, -0.11366023868322372, 0.0, 0.0, 0.0, 0, 0, 0, 0, 0, 0, 0.88134765625, -4.915257930755615, -0.11366023868322372
16633, 0.020320279523730278, -0.2867378890514374, -0.10435204952955246, -0.07350797951221466, 0.07967625558376312, 0.048105377703905106, -0.0008267940138466656, -0.004468344617635012, 1.000018835067749, 0.8838071227073669, -4.922606468200684, -0.1138707846403122, 0.0, 0.0, 0.0, 0, 0, 0, 0, 0, 0, 0.8838071227073669, -4.922606468200684, -0.1138707846403122
16643, 0.021285271272063255, -0.28719156980514526, -0.10335828363895416, 0.2269287407398224, 0.015350639820098877, 0.16356851160526276, -0.00044585124123841524, -0.005342394579201937, 0.9961215853691101, 0.8862708806991577, -4.929960250854492, -0.11408217996358871, 0.0, 0.0, 0.0, 0, 0, 0, 0, 0, 0, 0.8862708806991577, -4.929960250854492, -0.11408217996358871
16653, 0.02084954082965851, -0.2866469621658325, -0.10252036154270172, 0.035773538053035736, -0.04513038322329521, -0.07808008044958115, -0.0018698006169870496, -0.004255890846252441, 0.9989681839942932, 0.888738751411438, -4.937319278717041, -0.11429595947265625, 0.0, 0.0, 0.0, 0, 0, 0, 0, 0, 0, 0.888738751411438, -4.937319278717041, -0.11429595947265625
16663, 0.021351179108023643, -0.2868223190307617, -0.10331764817237854, 0.1032111719250679, 0.02583029866218567, 0.03624628484249115, -0.0010327007621526718, -0.0033301482908427715, 0.9989508986473083, 0.8912103772163391, -4.944683074951172, -0.11451170593500137, 0.0, 0.0, 0.0, 0, 0, 0, 0, 0, 0, 0.8912103772163391, -4.944683074951172, -0.11451170593500137
16673, 0.021018696948885918, -0.2887374460697174, -0.10437234491109848, 0.16440095007419586, -0.029116930440068245, -0.1866774559020996, -0.001356449443846941, -0.005330038256943226, 1.0001845359802246, 0.8936858773231506, -4.952051162719727, -0.11472813040018082, 0.0, 0.0, 0.0, 0, 0, 0, 0, 0, 0, 0.8936858773231506, -4.952051162719727, -0.11472813040018082
16683, 0.020793769508600235, -0.2886284589767456, -0.10455280542373657, -0.0019021464977413416, 0.059103015810251236, 0.011173387058079243, -0.00023183220764622092, -0.005670848768204451, 1.0013108253479004, 0.8961653113365173, -4.95942497253418, -0.11494467407464981, 0.0, 0.0, 0.0, 0, 0, 0, 0, 0, 0, 0.8961653113365173, -4.95942497253418, -0.11494467407464981
16693, 0.021092530339956284, -0.28793373703956604, -0.10370855033397675, -0.09377194941043854, -0.17645935714244843, -0.0375128798186779, -4.952721610607114e-06, -0.0052657900378108025, 0.9992991089820862, 0.8986493349075317, -4.966804504394531, -0.11516056954860687, 0.0, 0.0, 0.0, 0, 0, 0, 0, 0, 0, 0.8986493349075317, -4.966804504394531, -0.11516056954860687
16703, 0.021407803520560265, -0.2869620621204376, -0.10502725094556808, 0.14520736038684845, -0.09817811846733093, -0.052163269370794296, -0.0015641992213204503, -0.00539420498535037, 0.9997907876968384, 0.9011378288269043, -4.974189758300781, -0.11537634581327438, 0.0, 0.0, 0.0, 0, 0, 0, 0, 0, 0, 0.9011378288269043, -4.974189758300781, -0.11537634581327438
16713, 0.020804330706596375, -0.2882425785064697, -0.10346216708421707, -0.17151886224746704, 0.06182337924838066, 0.0588218979537487, -0.0006041862652637064, -0.004379782825708389, 1.0003743171691895, 0.9036303162574768, -4.9815802574157715, -0.11559262871742249, 0.0, 0.0, 0.0, 0, 0, 0, 0, 0, 0, 0.9036303162574768, -4.9815802574157715, -0.11559262871742249
16723, 0.020367931574583054, -0.2898990213871002, -0.10415929555892944, 0.001331231789663434, 0.26526299118995667, 0.10906209796667099, -0.0003357024397701025, -0.004800279159098864, 1.0007288455963135, 0.9061270952224731, -4.988976001739502, -0.11580850183963776, 0.0, 0.0, 0.0, 0, 0, 0, 0, 0, 0, 0.9061270952224731, -4.988976001739502, -0.11580850183963776
16733, 0.021179204806685448, -0.28975996375083923, -0.10331540554761887, 0.04021432250738144, -0.16373467445373535, -0.04268775135278702, -0.0005981265567243099, -0.004201424773782492, 1.0014283657073975, 0.9086284041404724, -4.9963765144348145, -0.11602359265089035, 0.0, 0.0, 0.0, 0, 0, 0, 0, 0, 0, 0.9086284041404724, -4.9963765144348145, -0.11602359265089035
16743, 0.021998759359121323, -0.2893706262111664, -0.10483892261981964, -0.030604979023337364, 0.1088201031088829, -0.16432251036167145, 0.0016086404211819172, -0.004802541341632605, 0.9998500347137451, 0.9111345410346985, -5.003781795501709, -0.11623767763376236, 0.0, 0.0, 0.0, 0, 0, 0, 0, 0, 0, 0.9111345410346985, -5.003781795501709, -0.11623767763376236
16753, 0.02199641428887844, -0.289584219455719, -0.10548723489046097, 0.11583687365055084, 0.18295322358608246, 0.021640175953507423, -0.0003386751050129533, -0.00618853559717536, 1.0003365278244019, 0.913646399974823, -5.011192321777344, -0.1164509728550911, 0.0, 0.0, 0.0, 0, 0, 0, 0, 0, 0, 0.913646399974823, -5.011192321777344, -0.1164509728550911
16763, 0.022318899631500244, -0.29059845209121704, -0.10580483824014664, 0.07869680225849152, 0.21291908621788025, 0.22978396713733673, -0.001263163867406547, -0.004743747413158417, 0.9989379644393921, 0.9161631464958191, -5.018608570098877, -0.11666424572467804, 0.0, 0.0, 0.0, 0, 0, 0, 0, 0, 0, 0.9161631464958191, -5.018608570098877, -0.11666424572467804
16773, 0.02277030237019062, -0.2903282046318054, -0.10442358255386353, 0.18562562763690948, 0.09330112487077713, 0.14852780103683472, -0.00019140435324516147, -0.004521798342466354, 1.000627875328064, 0.9186837077140808, -5.02603006362915, -0.11687745153903961, 0.0, 0.0, 0.0, 0, 0, 0, 0, 0, 0, 0.9186837077140808, -5.02603006362915, -0.11687745153903961
16783, 0.02241171896457672, -0.2890811562538147, -0.10441558063030243, -0.15791739523410797, -0.03231305256485939, 0.024348599836230278, -0.00016666387091390789, -0.003907735925167799, 1.0016980171203613, 0.9212089776992798, -5.033455848693848, -0.11709028482437134, 0.0, 0.0, 0.0, 0, 0, 0, 0, 0, 0, 0.9212089776992798, -5.033455848693848, -0.11709028482437134
16793, 0.022956645116209984, -0.29168832302093506, -0.10505756735801697, 0.11524827778339386, 0.19365616142749786, -0.08573048561811447, -0.0005821008235216141, -0.0058084456250071526, 1.0020033121109009, 0.9237391352653503, -5.040886878967285, -0.11730191856622696, 0.0, 0.0, 0.0, 0, 0, 0, 0, 0, 0, 0.9237391352653503, -5.040886878967285, -0.11730191856622696
16803, 0.02253752574324608, -0.2935972809791565, -0.10510576516389847, -0.10745003819465637, 0.0010857089655473828, -0.17359600961208344, -0.0005726172821596265, -0.0066855656914412975, 1.0028589963912964, 0.9262739419937134, -5.048323631286621, -0.11751148849725723, 0.0, 0.0, 0.0, 0, 0, 0, 0, 0, 0, 0.9262739419937134, -5.048323631286621, -0.11751148849725723
16813, 0.021758468821644783, -0.2928193509578705, -0.10589560121297836, -0.054640717804431915, -0.11664633452892303, 0.07359863817691803, -0.0023574682418257, -0.006747323088347912, 1.001861810684204, 0.9288129210472107, -5.05576753616333, -0.11771898716688156, 0.0, 0.0, 0.0, 0, 0, 0, 0, 0, 0, 0.9288129210472107, -5.05576753616333, -0.11771898716688156
16823, 0.02134115621447563, -0.2918678820133209, -0.10570254921913147, 0.12615205347537994, 0.03306702896952629, -0.09327289462089539, -0.002380932681262493, -0.0028576403856277466, 1.0009275674819946, 0.9313549399375916, -5.063217639923096, -0.11792425066232681, 0.0, 0.0, 0.0, 0, 0, 0, 0, 0, 0, 0.9313549399375916, -5.063217639923096, -0.11792425066232681
16833, 0.021519595757126808, -0.28997093439102173, -0.1057085320353508, -0.002972465008497238, 0.088223397731781, -0.3048396110534668, -0.0010730279609560966, -0.004667909350246191, 0.9999610185623169, 0.9338997602462769, -5.070672512054443, -0.1181282252073288, 0.0, 0.0, 0.0, 0, 0, 0, 0, 0, 0, 0.9338997602462769, -5.070672512054443, -0.1181282252073288
16843, 0.02143845707178116, -0.2923969030380249, -0.10689128935337067, 0.03789754584431648, 0.12720583379268646, 0.2722094655036926, -0.00025974385789595544, -0.00453806621953845, 0.9987642168998718, 0.9364482760429382, -5.078131675720215, -0.11833232641220093, 0.0, 0.0, 0.0, 0, 0, 0, 0, 0, 0, 0.9364482760429382, -5.078131675720215, -0.11833232641220093
16853, 0.02073090150952339, -0.2925930321216583, -0.10509634763002396, 0.09705847501754761, -0.1451052874326706, -0.130161851644516, -0.0007219885010272264, -0.004610829055309296, 1.0026273727416992, 0.9390013813972473, -5.085596084594727, -0.11853634566068649, 0.0, 0.0, 0.0, 0, 0, 0, 0, 0, 0, 0.9390013813972473, -5.085596084594727, -0.11853634566068649
16863, 0.021758554503321648, -0.2918524444103241, -0.10472674667835236, -0.007900699973106384, -0.07729434967041016, 0.013487095013260841, -0.0015628180699422956, -0.0058916001580655575, 1.0003776550292969, 0.941558837890625, -5.09306526184082, -0.11873936653137207, 0.0, 0.0, 0.0, 0, 0, 0, 0, 0, 0, 0.941558837890625, -5.09306526184082, -0.11873936653137207
16873, 0.02126394771039486, -0.2907148599624634, -0.10461082309484482, 0.10480360686779022, -0.03882850334048271, 0.01101058628410101, -0.0007626496371813118, -0.00446311105042696, 0.9983303546905518, 0.9441201686859131, -5.1005401611328125, -0.11894170939922333, 0.0, 0.0, 0.0, 0, 0, 0, 0, 0, 0, 0.9441201686859131, -5.1005401611328125, -0.11894170939922333
16883, 0.021306360140442848, -0.29069167375564575, -0.10499105602502823, -0.1514432281255722, 0.2012772560119629, -0.061615850776433945, 0.0009688505670055747, -0.005615180358290672, 0.999789297580719, 0.9466862082481384, -5.108020305633545, -0.1191449761390686, 0.0, 0.0, 0.0, 0, 0, 0, 0, 0, 0, 0.9466862082481384, -5.108020305633545, -0.1191449761390686
16893, 0.021979086101055145, -0.29197990894317627, -0.10372184962034225, 0.00020310345280449837, -0.013814825564622879, -0.0727614313364029, -0.00040178230847232044, -0.006952513474971056, 0.9994171857833862, 0.9492577314376831, -5.115506172180176, -0.11934912949800491, 0.0, 0.0, 0.0, 0, 0, 0, 0, 0, 0, 0.9492577314376831, -5.115506172180176, -0.11934912949800491
16903, 0.022105973213911057, -0.2924725115299225, -0.10467398911714554, 0.02416869066655636, 0.01717788726091385, -0.1492648422718048, -0.0022316263057291508, -0.00413011759519577, 1.0020452737808228, 0.9518339037895203, -5.1229987144470215, -0.11955320835113525, 0.0, 0.0, 0.0, 0, 0, 0, 0, 0, 0, 0.9518339037895203, -5.1229987144470215, -0.11955320835113525
16913, 0.022234614938497543, -0.2927824854850769, -0.1050126850605011, -0.11323389410972595, -0.024892833083868027, 0.06647458672523499, -0.0022556912153959274, -0.0024628369137644768, 1.0006316900253296, 0.9518339037895203, -5.1229987144470215, -0.11955320835113525, 0.0, 0.0, 0.0, 0, 0, 0, 0, 0, 0, 0.9546713829040527, -5.131246089935303, -0.11977668851613998
16923, 0.02306174300611019, -0.2922608256340027, -0.10424157232046127, 0.15219342708587646, 0.16659055650234222, 0.11658357083797455, -0.002117202850058675, -0.005392883904278278, 0.9985039234161377, 0.9546713829040527, -5.131246089935303, -0.11977668851613998, 0.0, 0.0, 0.0, 0, 0, 0, 0, 0, 0, 0.9572538733482361, -5.138747692108154, -0.11997923254966736
16933, 0.023108655586838722, -0.29174020886421204, -0.10463003814220428, -0.17025068402290344, -0.14718037843704224, -0.14480090141296387, -0.0004876003076788038, -0.006330378353595734, 0.9976433515548706, 0.9572538733482361, -5.138747692108154, -0.11997923254966736, 0.0, 0.0, 0.0, 0, 0, 0, 0, 0, 0, 0.9600986242294312, -5.147005558013916, -0.12020348012447357
16943, 0.02302875556051731, -0.29254433512687683, -0.10568594932556152, 0.050186414271593094, -0.1412259191274643, -0.03059721551835537, -0.001226705964654684, -0.006392710376530886, 0.998831570148468, 0.9600986242294312, -5.147005558013916, -0.12020348012447357, 0.0, 0.0, 0.0, 0, 0, 0, 0, 0, 0, 0.9626888632774353, -5.154520034790039, -0.12040949612855911
16953, 0.022746628150343895, -0.2922757565975189, -0.10678300261497498, -0.05572020262479782, 0.18136951327323914, -0.09871038049459457, 0.0006048675277270377, -0.006434175651520491, 1.0002788305282593, 0.9626888632774353, -5.154520034790039, -0.12040949612855911, 0.0, 0.0, 0.0, 0, 0, 0, 0, 0, 0, 0.9652835130691528, -5.162041187286377, -0.1206163689494133
16963, 0.023069607093930244, -0.2916961908340454, -0.10636480152606964, -0.07169569283723831, -0.12126851826906204, 0.07432347536087036, -0.0013893373543396592, -0.006013123784214258, 0.9996429085731506, 0.9652835130691528, -5.162041187286377, -0.1206163689494133, 0.0, 0.0, 0.0, 0, 0, 0, 0, 0, 0, 0.9678826928138733, -5.1695685386657715, -0.12082322686910629
16973, 0.022769860923290253, -0.29279059171676636, -0.10621944814920425, 0.058917488902807236, 0.16761459410190582, -0.0018975610146299005, -0.003681493690237403, -0.004807658493518829, 0.9999722242355347, 0.9678826928138733, -5.1695685386657715, -0.12082322686910629, 0.0, 0.0, 0.0, 0, 0, 0, 0, 0, 0, 0.9704850316047668, -5.177102088928223, -0.121030293405056
16983, 0.022629065439105034, -0.2917841076850891, -0.10631899535655975, -0.10602666437625885, 0.01675560511648655, -0.04262780025601387, -0.0021330376621335745, -0.007136205211281776, 0.9995749592781067, 0.9704850316047668, -5.177102088928223, -0.121030293405056, 0.0, 0.0, 0.0, 0, 0, 0, 0, 0, 0, 0.9730896353721619, -5.1846418380737305, -0.12123774737119675
16993, 0.02319369651377201, -0.29201599955558777, -0.10654708743095398, 0.09597045183181763, -0.20707222819328308, -0.4189775586128235, -0.0007689043995924294, -0.006673636846244335, 1.0003790855407715, 0.9730896353721619, -5.1846418380737305, -0.12123774737119675, 0.0, 0.0, 0.0, 0, 0, 0, 0, 0, 0, 0.97569739818573, -5.192188739776611, -0.1214451938867569
17003, 0.023343853652477264, -0.29096946120262146, -0.10889667272567749, 0.002820666180923581, -0.12536819279193878, -0.3962171971797943, -0.00011342496873112395, -0.0032884138636291027, 1.000372290611267, 0.97569739818573, -5.192188739776611, -0.1214451938867569, 0.0, 0.0, 0.0, 0, 0, 0, 0, 0, 0, 0.9783092737197876, -5.199741840362549, -0.12165234237909317
17013, 0.02382650412619114, -0.28983181715011597, -0.11078529804944992, 0.08249913156032562, -0.11878005415201187, -0.02441222593188286, -0.0017149694031104445, -0.005798737984150648, 0.9995208382606506, 0.9783092737197876, -5.199741840362549, -0.12165234237909317, 0.0, 0.0, 0.0, 0, 0, 0, 0, 0, 0, 0.9809253811836243, -5.207299709320068, -0.12185980379581451
17023, 0.02444397285580635, -0.28713202476501465, -0.11142916977405548, 0.15092183649539948, -0.39716485142707825, -0.08557236194610596, -0.002150465501472354, -0.0066338493488729, 1.0000848770141602, 0.9809253811836243, -5.207299709320068, -0.12185980379581451, 0.0, 0.0, 0.0, 0, 0, 0, 0, 0, 0, 0.9835450053215027, -5.214863300323486, -0.12206745892763138
17033, 0.02360105887055397, -0.28868645429611206, -0.11083539575338364, -0.09345914423465729, 0.14819219708442688, 0.01755473203957081, -0.001881346688605845, -0.004134361632168293, 1.0011634826660156, 0.9835450053215027, -5.214863300323486, -0.12206745892763138, 0.0, 0.0, 0.0, 0, 0, 0, 0, 0, 0, 0.9861675500869751, -5.222433090209961, -0.12227492779493332
17043, 0.023365821689367294, -0.2895990312099457, -0.1112574115395546, -0.0764424279332161, 0.12481150776147842, -0.15810276567935944, -0.0004780981980729848, -0.006368919741362333, 0.9975422620773315, 0.9861675500869751, -5.222433090209961, -0.12227492779493332, 0.0, 0.0, 0.0, 0, 0, 0, 0, 0, 0, 0.9887937307357788, -5.230008602142334, -0.1224822998046875
17053, 0.023297889158129692, -0.2896420955657959, -0.1111539676785469, 0.05552617087960243, 0.20595258474349976, -0.02111353538930416, -0.002119152806699276, -0.00714597012847662, 0.9989321827888489, 0.9887937307357788, -5.230008602142334, -0.1224822998046875, 0.0, 0.0, 0.0, 0, 0, 0, 0, 0, 0, 0.9914238452911377, -5.237590789794922, -0.12269067764282227
17063, 0.023575488477945328, -0.2892173230648041, -0.11070647090673447, 0.036835722625255585, -0.12444105744361877, 0.12004424631595612, -0.0024004564620554447, -0.004297848790884018, 0.99821937084198, 0.9914238452911377, -5.237590789794922, -0.12269067764282227, 0.0, 0.0, 0.0, 0, 0, 0, 0, 0, 0, 0.9940569400787354, -5.245179653167725, -0.12290078401565552
17073, 0.023001469671726227, -0.29077789187431335, -0.1101817712187767, 0.1273038387298584, 0.27478668093681335, 0.04156719148159027, -0.001990851480513811, -0.004875200800597668, 0.9997329115867615, 0.9940569400787354, -5.245179653167725, -0.12290078401565552, 0.0, 0.0, 0.0, 0, 0, 0, 0, 0, 0, 0.9966927766799927, -5.252773761749268, -0.12311171740293503
17083, 0.024240154772996902, -0.29237717390060425, -0.1100422590970993, 0.17697681486606598, -0.05331730842590332, 0.026021085679531097, -0.003138326806947589, -0.005189098417758942, 0.9996718168258667, 0.9966927766799927, -5.252773761749268, -0.12311171740293503, 0.0, 0.0, 0.0, 0, 0, 0, 0, 0, 0, 0.9993314743041992, -5.260373115539551, -0.12332326173782349
17093, 0.024742236360907555, -0.2922404408454895, -0.10976900160312653, -0.04001852497458458, -0.11074522882699966, -0.10203974694013596, -0.0021061841398477554, -0.006015317980200052, 0.9995988011360168, 0.9993314743041992, -5.260373115539551, -0.12332326173782349, 0.0, 0.0, 0.0, 0, 0, 0, 0, 0, 0, 1.0019726753234863, -5.267978191375732, -0.12353524565696716
17103, 0.024969028308987617, -0.2932102382183075, -0.10920747369527817, 0.16049239039421082, 0.1318259835243225, 0.08767176419496536, -0.0011956311063840985, -0.0056600673124194145, 1.0017200708389282, 1.0019726753234863, -5.267978191375732, -0.12353524565696716, 0.0, 0.0, 0.0, 0, 0, 0, 0, 0, 0, 1.0046167373657227, -5.275589466094971, -0.12374681979417801
17113, 0.02553577348589897, -0.29131007194519043, -0.11011263728141785, -0.12635965645313263, -0.28731101751327515, -0.033054105937480927, -0.0016804380575194955, -0.005483648274093866, 1.0000156164169312, 1.0046167373657227, -5.275589466094971, -0.12374681979417801, 0.0, 0.0, 0.0, 0, 0, 0, 0, 0, 0, 1.0072643756866455, -5.283206462860107, -0.1239577904343605
17123, 0.02601741999387741, -0.29201045632362366, -0.11040771007537842, -0.019978584721684456, 0.30324527621269226, 0.026975257322192192, -0.0005280912155285478, -0.005592591129243374, 0.9992797374725342, 1.0072643756866455, -5.283206462860107, -0.1239577904343605, 0.0, 0.0, 0.0, 0, 0, 0, 0, 0, 0, 1.009915828704834, -5.290829658508301, -0.1241685301065445
17133, 0.02493021823465824, -0.2921137511730194, -0.10990532487630844, -0.0781664177775383, 0.028376448899507523, 0.09584289789199829, -0.0004446890961844474, -0.004028638359159231, 0.9978649616241455, 1.009915828704834, -5.290829658508301, -0.1241685301065445, 0.0, 0.0, 0.0, 0, 0, 0, 0, 0, 0, 1.0125716924667358, -5.298459053039551, -0.1243804320693016
17143, 0.02576150745153427, -0.29399046301841736, -0.10828695446252823, 0.1281605362892151, 0.2972413897514343, 0.08770324289798737, -0.0003397290129214525, -0.00529378280043602, 0.9996238946914673, 1.0125716924667358, -5.298459053039551, -0.1243804320693016, 0.0, 0.0, 0.0, 0, 0, 0, 0, 0, 0, 1.0152322053909302, -5.306093215942383, -0.12459403276443481
17153, 0.025675395503640175, -0.29399052262306213, -0.10796324908733368, 0.006056221667677164, 0.15562331676483154, 0.1337631642818451, -0.0006884102476760745, -0.0038784865755587816, 1.0012882947921753, 1.0152322053909302, -5.306093215942383, -0.12459403276443481, 0.0, 0.0, 0.0, 0, 0, 0, 0, 0, 0, 1.0178974866867065, -5.313732147216797, -0.12480775266885757
17163, 0.02575904317200184, -0.2936866283416748, -0.10597050935029984, 0.01361282728612423, -0.1658036708831787, 0.20654785633087158, 0.0006704170955345035, -0.00705997459590435, 1.001153588294983, 1.0178974866867065, -5.313732147216797, -0.12480775266885757, 0.0, 0.0, 0.0, 0, 0, 0, 0, 0, 0, 1.0205672979354858, -5.321376800537109, -0.12502051889896393
17173, 0.026301732286810875, -0.2959722578525543, -0.10596893727779388, 0.10136106610298157, 0.27572840452194214, -0.08270707726478577, 0.00019489633268676698, -0.007619318552315235, 1.0015900135040283, 1.0205672979354858, -5.321376800537109, -0.12502051889896393, 0.0, 0.0, 0.0, 0, 0, 0, 0, 0, 0, 1.0232425928115845, -5.329028606414795, -0.12523193657398224
17183, 0.02712930738925934, -0.2960110008716583, -0.1048654094338417, 0.025890907272696495, 0.26444587111473083, 0.010044632479548454, -0.002163488417863846, -0.00572761008515954, 1.0017588138580322, 1.0232425928115845, -5.329028606414795, -0.12523193657398224, 0.0, 0.0, 0.0, 0, 0, 0, 0, 0, 0, 1.0259225368499756, -5.336688041687012, -0.1254417896270752
17193, 0.026423921808600426, -0.2956864833831787, -0.10709198564291, -0.26055145263671875, -0.18564386665821075, -0.46476784348487854, -0.00260110548697412, -0.006001617293804884, 0.9998387098312378, 1.0259225368499756, -5.336688041687012, -0.1254417896270752, 0.0, 0.0, 0.0, 0, 0, 0, 0, 0, 0, 1.028605580329895, -5.344354152679443, -0.1256503462791443
17203, 0.027451545000076294, -0.29628828167915344, -0.10697295516729355, -0.003484348999336362, 0.26053377985954285, -0.09459421783685684, -0.002220519818365574, -0.005620154086500406, 0.9993356466293335, 1.028605580329895, -5.344354152679443, -0.1256503462791443, 0.0, 0.0, 0.0, 0, 0, 0, 0, 0, 0, 1.0312914848327637, -5.352026462554932, -0.12585864961147308
17213, 0.02732391655445099, -0.2997736632823944, -0.10607039928436279, 0.11062398552894592, 0.32656076550483704, -0.13292326033115387, -0.003087859833613038, -0.008924556896090508, 0.999893844127655, 1.0312914848327637, -5.352026462554932, -0.12585864961147308, 0.0, 0.0, 0.0, 0, 0, 0, 0, 0, 0, 1.0339796543121338, -5.359705924987793, -0.12606731057167053
17223, 0.02666924148797989, -0.29906290769577026, -0.10528939962387085, 0.047947727143764496, -0.0829944834113121, 0.15318015217781067, -0.00017546470917295665, -0.008411241695284843, 0.9984455704689026, 1.0339796543121338, -5.359705924987793, -0.12606731057167053, 0.0, 0.0, 0.0, 0, 0, 0, 0, 0, 0, 1.0366708040237427, -5.36739444732666, -0.12627637386322021
17233, 0.025892550125718117, -0.3002171516418457, -0.10553988069295883, -0.01790972799062729, 0.23772582411766052, -0.17928895354270935, 0.001465680543333292, -0.006160157732665539, 0.999954104423523, 1.0366708040237427, -5.36739444732666, -0.12627637386322021, 0.0, 0.0, 0.0, 0, 0, 0, 0, 0, 0, 1.0393673181533813, -5.375091075897217, -0.12648648023605347
17243, 0.02668839320540428, -0.29935675859451294, -0.10555284470319748, 0.005853407550603151, 0.046422917395830154, 0.04626113921403885, -0.00022364895266946405, -0.005949469283223152, 1.0002944469451904, 1.0393673181533813, -5.375091075897217, -0.12648648023605347, 0.0, 0.0, 0.0, 0, 0, 0, 0, 0, 0, 1.042069673538208, -5.38279390335083, -0.12669683992862701
17253, 0.027353495359420776, -0.2991394102573395, -0.10554081201553345, 0.11853577941656113, 0.1773441731929779, 0.1915096640586853, 0.0002626465284265578, -0.006942650768905878, 1.000493049621582, 1.042069673538208, -5.38279390335083, -0.12669683992862701, 0.0, 0.0, 0.0, 0, 0, 0, 0, 0, 0, 1.0447769165039062, -5.390503406524658, -0.1269066035747528
17263, 0.027233025059103966, -0.3004377782344818, -0.10621694475412369, 0.0045005809515714645, 0.060919389128685, -0.1817415952682495, -0.0031825799960643053, -0.007151580415666103, 0.9999094009399414, 1.0447769165039062, -5.390503406524658, -0.1269066035747528, 0.0, 0.0, 0.0, 0, 0, 0, 0, 0, 0, 1.0474879741668701, -5.398220062255859, -0.12711632251739502
17273, 0.02762981690466404, -0.29984989762306213, -0.10709994286298752, 0.027832897379994392, -0.0006853716913610697, -0.13428126275539398, -0.00382988341152668, -0.005367272067815065, 1.0009645223617554, 1.0474879741668701, -5.398220062255859, -0.12711632251739502, 0.0, 0.0, 0.0, 0, 0, 0, 0, 0, 0, 1.0502012968063354, -5.405943393707275, -0.1273253858089447
17283, 0.027378657832741737, -0.301595002412796, -0.10613010823726654, 0.017860494554042816, 0.2434566617012024, 0.06466305255889893, -0.003206258872523904, -0.004580869805067778, 1.0017553567886353, 1.0502012968063354, -5.405943393707275, -0.1273253858089447, 0.0, 0.0, 0.0, 0, 0, 0, 0, 0, 0, 1.052916169166565, -5.413671970367432, -0.12753324210643768
17293, 0.027936581522226334, -0.3019668757915497, -0.10597458481788635, 0.06486281007528305, 0.09315881133079529, 0.009654752910137177, -0.0015806211158633232, -0.005134994629770517, 1.0003076791763306, 1.052916169166565, -5.413671970367432, -0.12753324210643768, 0.0, 0.0, 0.0, 0, 0, 0, 0, 0, 0, 1.055633544921875, -5.421405792236328, -0.12774011492729187
17303, 0.02824028953909874, -0.3009801208972931, -0.1056583821773529, -0.0549577921628952, -0.12656745314598083, 0.10798126459121704, -0.001692501362413168, -0.00565746147185564, 0.9988406896591187, 1.055633544921875, -5.421405792236328, -0.12774011492729187, 0.0, 0.0, 0.0, 0, 0, 0, 0, 0, 0, 1.0583544969558716, -5.429144859313965, -0.1279469132423401
17313, 0.0294814333319664, -0.30188968777656555, -0.10614517331123352, 0.04515782743692398, 0.17871254682540894, 0.03106805495917797, -0.003240272169932723, -0.006299903150647879, 0.9984342455863953, 1.0583544969558716, -5.429144859313965, -0.1279469132423401, 0.0, 0.0, 0.0, 0, 0, 0, 0, 0, 0, 1.061078429222107, -5.436890602111816, -0.12815521657466888
17323, 0.029542844742536545, -0.3022129237651825, -0.10443787276744843, 0.06053723767399788, 0.038336217403411865, 0.06087607890367508, -0.0013625584542751312, -0.006225265096873045, 0.9996626973152161, 1.061078429222107, -5.436890602111816, -0.12815521657466888, 0.0, 0.0, 0.0, 0, 0, 0, 0, 0, 0, 1.063805103302002, -5.444643020629883, -0.12836474180221558
17333, 0.029380368068814278, -0.30186906456947327, -0.10555853694677353, -0.031144097447395325, -0.036556802690029144, -0.19163824617862701, -0.0012584277428686619, -0.00583227165043354, 1.001090168952942, 1.063805103302002, -5.444643020629883, -0.12836474180221558, 0.0, 0.0, 0.0, 0, 0, 0, 0, 0, 0, 1.066535234451294, -5.452401638031006, -0.12857429683208466
17343, 0.030448663979768753, -0.30215686559677124, -0.10589446127414703, 0.1009279191493988, -0.003460436826571822, -0.04232272505760193, -0.0017381517682224512, -0.0045316568575799465, 0.999222457408905, 1.066535234451294, -5.452401638031006, -0.12857429683208466, 0.0, 0.0, 0.0, 0, 0, 0, 0, 0, 0, 1.0692694187164307, -5.4601664543151855, -0.1287834644317627
17353, 0.02911883220076561, -0.30305206775665283, -0.10587355494499207, -0.03523258492350578, 0.38380956649780273, -0.015639621764421463, -0.003215893404558301, -0.005118227563798428, 1.0011026859283447, 1.0692694187164307, -5.4601664543151855, -0.1287834644317627, 0.0, 0.0, 0.0, 0, 0, 0, 0, 0, 0, 1.0720067024230957, -5.467936992645264, -0.1289924830198288
17363, 0.028531668707728386, -0.3035852313041687, -0.10535521060228348, -0.15410834550857544, 0.11511003226041794, 0.01832190342247486, 0.00022870019893161952, -0.003054059576243162, 0.9988797307014465, 1.0720067024230957, -5.467936992645264, -0.1289924830198288, 0.0, 0.0, 0.0, 0, 0, 0, 0, 0, 0, 1.074747085571289, -5.475711822509766, -0.12920185923576355
17373, 0.02820609137415886, -0.3017917275428772, -0.10661397129297256, -0.10917090624570847, -0.06002114340662956, -0.11267908662557602, -0.00018514282419346273, -0.005082122050225735, 0.9988221526145935, 1.074747085571289, -5.475711822509766, -0.12920185923576355, 0.0, 0.0, 0.0, 0, 0, 0, 0, 0, 0, 1.0774922370910645, -5.483490943908691, -0.1294119954109192
17383, 0.027550311759114265, -0.3001907169818878, -0.10618916898965836, -0.0033546946942806244, -0.40890324115753174, 0.09032247215509415, -0.0009510234231129289, -0.006041362415999174, 1.0002825260162354, 1.0774922370910645, -5.483490943908691, -0.1294119954109192, 0.0, 0.0, 0.0, 0, 0, 0, 0, 0, 0, 1.0802422761917114, -5.491275787353516, -0.12962259352207184
17393, 0.027472281828522682, -0.3008849024772644, -0.1072448119521141, -0.06734960526227951, 0.18163450062274933, -0.14208251237869263, -0.0015458232956007123, -0.006498295813798904, 1.0000262260437012, 1.0802422761917114, -5.491275787353516, -0.12962259352207184, 0.0, 0.0, 0.0, 0, 0, 0, 0, 0, 0, 1.0829966068267822, -5.4990668296813965, -0.12983308732509613
17403, 0.02649460732936859, -0.2997617721557617, -0.10652630031108856, -0.12432093173265457, -0.2589028477668762, 0.07775072008371353, -0.0008605878101661801, -0.006302588153630495, 1.000309944152832, 1.0829966068267822, -5.4990668296813965, -0.12983308732509613, 0.0, 0.0, 0.0, 0, 0, 0, 0, 0, 0, 1.0857548713684082, -5.50686502456665, -0.1300436109304428
17413, 0.02711903303861618, -0.29992932081222534, -0.10738050192594528, -0.0169563926756382, 0.09454099833965302, -0.1350538432598114, -0.000913926400244236, -0.005476497579365969, 0.9990012049674988, 1.0857548713684082, -5.50686502456665, -0.1300436109304428, 0.0, 0.0, 0.0, 0, 0, 0, 0, 0, 0, 1.0885175466537476, -5.514669895172119, -0.130254864692688
17423, 0.02646695077419281, -0.3000446856021881, -0.10808488726615906, 0.04765496402978897, -0.000765956356190145, -0.06445656716823578, -0.0035307949874550104, -0.005080274771898985, 0.9986147880554199, 1.0885175466537476, -5.514669895172119, -0.130254864692688, 0.0, 0.0, 0.0, 0, 0, 0, 0, 0, 0, 1.0912837982177734, -5.522480487823486, -0.13046704232692719
17433, 0.025061005726456642, -0.29974254965782166, -0.10803365707397461, -0.0804937481880188, 0.14472627639770508, -0.07259999960660934, -0.002451203763484955, -0.00602367240935564, 1.000870943069458, 1.0912837982177734, -5.522480487823486, -0.13046704232692719, 0.0, 0.0, 0.0, 0, 0, 0, 0, 0, 0, 1.0940523147583008, -5.530296802520752, -0.1306796818971634
17443, 0.025888897478580475, -0.2984250485897064, -0.10704641044139862, 0.08819438517093658, 0.12815140187740326, 0.18003158271312714, -0.0023017716594040394, -0.00589433079585433, 0.9981515407562256, 1.0940523147583008, -5.530296802520752, -0.1306796818971634, 0.0, 0.0, 0.0, 0, 0, 0, 0, 0, 0, 1.0968235731124878, -5.538119792938232, -0.13089267909526825
17453, 0.025778332725167274, -0.3001362979412079, -0.10632763803005219, 0.09154120087623596, 0.08171156048774719, -0.00291250878944993, -0.001957084285095334, -0.0049697719514369965, 1.0002124309539795, 1.0968235731124878, -5.538119792938232, -0.13089267909526825, 0.0, 0.0, 0.0, 0, 0, 0, 0, 0, 0, 1.0995978116989136, -5.545948505401611, -0.13110613822937012
17463, 0.02678634785115719, -0.30127963423728943, -0.10639283061027527, 0.02410082332789898, 0.16310158371925354, -0.09597741812467575, -0.0008730407571420074, -0.005486045964062214, 1.0012285709381104, 1.0995978116989136, -5.545948505401611, -0.13110613822937012, 0.0, 0.0, 0.0, 0, 0, 0, 0, 0, 0, 1.1023752689361572, -5.553782939910889, -0.13131944835186005
17473, 0.02631530910730362, -0.3025134801864624, -0.10552672296762466, -0.11017749458551407, 0.1019744724035263, -0.12899115681648254, 0.0003519059100653976, -0.004379820544272661, 1.0003515481948853, 1.1023752689361572, -5.553782939910889, -0.13131944835186005, 0.0, 0.0, 0.0, 0, 0, 0, 0, 0, 0, 1.1051572561264038, -5.561622619628906, -0.13153180480003357
17483, 0.02566572092473507, -0.3041747510433197, -0.10427318513393402, -0.07693313807249069, 0.03268705680966377, 0.07016879320144653, -0.0013258507242426276, -0.005176766309887171, 1.0013006925582886, 1.1051572561264038, -5.561622619628906, -0.13153180480003357, 0.0, 0.0, 0.0, 0, 0, 0, 0, 0, 0, 1.107944130897522, -5.569467544555664, -0.1317434012889862
17493, 0.025245534256100655, -0.30460625886917114, -0.1036280170083046, 0.005856689997017384, 0.11022938042879105, 0.06633233278989792, 0.00032420826028101146, -0.0042868684977293015, 1.0006283521652222, 1.107944130897522, -5.569467544555664, -0.1317434012889862, 0.0, 0.0, 0.0, 0, 0, 0, 0, 0, 0, 1.110735535621643, -5.577317714691162, -0.1319541037082672
17503, 0.025309568271040916, -0.3032858371734619, -0.1035555750131607, 0.10445500165224075, 0.008223818615078926, -0.17022457718849182, -0.0020684809423983097, -0.005281026009470224, 0.9996339082717896, 1.110735535621643, -5.577317714691162, -0.1319541037082672, 0.0, 0.0, 0.0, 0, 0, 0, 0, 0, 0, 1.1135315895080566, -5.5851731300354, -0.13216426968574524
17513, 0.025985099375247955, -0.30438297986984253, -0.10324636846780777, 0.010798678733408451, 0.03643196076154709, -0.13988585770130157, -0.0012332507176324725, -0.005746105220168829, 1.0008032321929932, 1.1135315895080566, -5.5851731300354, -0.13216426968574524, 0.0, 0.0, 0.0, 0, 0, 0, 0, 0, 0, 1.1163315773010254, -5.593033790588379, -0.13237445056438446
17523, 0.02693123370409012, -0.30466029047966003, -0.10207299143075943, 0.09538052976131439, 0.09105399250984192, 0.08003050833940506, -0.00014517904492095113, -0.006065805908292532, 0.9984237551689148, 1.1163315773010254, -5.593033790588379, -0.13237445056438446, 0.0, 0.0, 0.0, 0, 0, 0, 0, 0, 0, 1.1191357374191284, -5.600900173187256, -0.13258463144302368
17533, 0.02588660456240177, -0.30197739601135254, -0.10415052622556686, -0.1526210457086563, -0.4628430902957916, -0.25888198614120483, -0.0013823400950059295, -0.007406698539853096, 0.9977197647094727, 1.1191357374191284, -5.600900173187256, -0.13258463144302368, 0.0, 0.0, 0.0, 0, 0, 0, 0, 0, 0, 1.121944546699524, -5.608773708343506, -0.1327962726354599
17543, 0.026305438950657845, -0.3009791374206543, -0.10472553968429565, 0.02294185198843479, -0.014528139494359493, -0.06747625768184662, -0.0013619676465168595, -0.006682343780994415, 0.9987432956695557, 1.121944546699524, -5.608773708343506, -0.1327962726354599, 0.0, 0.0, 0.0, 0, 0, 0, 0, 0, 0, 1.1247576475143433, -5.616654396057129, -0.1330099254846573
17553, 0.02603911980986595, -0.30012840032577515, -0.10571710765361786, -0.03924940526485443, -0.12550592422485352, -0.28561651706695557, 0.0006941069732420146, -0.007535530254244804, 1.0016149282455444, 1.1247576475143433, -5.616654396057129, -0.1330099254846573, 0.0, 0.0, 0.0, 0, 0, 0, 0, 0, 0, 1.1275750398635864, -5.624542713165283, -0.13322418928146362
17563, 0.026805689558386803, -0.299645334482193, -0.10617560148239136, 0.04883548617362976, -0.16056540608406067, 0.018023701384663582, 0.00034476694418117404, -0.005182004999369383, 1.0007706880569458, 1.1275750398635864, -5.624542713165283, -0.13322418928146362, 0.0, 0.0, 0.0, 0, 0, 0, 0, 0, 0, 1.1303975582122803, -5.632437705993652, -0.13343775272369385
17573, 0.026401745155453682, -0.2998403012752533, -0.10698031634092331, -0.06468542665243149, 0.11471834778785706, -0.10327524691820145, -0.0008539154659956694, -0.003963822964578867, 0.9979767799377441, 1.1303975582122803, -5.632437705993652, -0.13343775272369385, 0.0, 0.0, 0.0, 0, 0, 0, 0, 0, 0, 1.1332253217697144, -5.640337944030762, -0.13365104794502258
17583, 0.026545779779553413, -0.2990579903125763, -0.10648169368505478, 0.17361602187156677, -0.026830485090613365, 0.17423737049102783, -0.0016896575689315796, -0.0050402418710291386, 0.9997518062591553, 1.1332253217697144, -5.640337944030762, -0.13365104794502258, 0.0, 0.0, 0.0, 0, 0, 0, 0, 0, 0, 1.1360572576522827, -5.648242950439453, -0.1338653564453125
17593, 0.026947110891342163, -0.29895707964897156, -0.10851559042930603, 0.1753193438053131, 0.037164151668548584, -0.27313342690467834, -0.002292339690029621, -0.006012393161654472, 0.9985430836677551, 1.1360572576522827, -5.648242950439453, -0.1338653564453125, 0.0, 0.0, 0.0, 0, 0, 0, 0, 0, 0, 1.1388925313949585, -5.656153202056885, -0.13408039510250092
17603, 0.026842543855309486, -0.29708051681518555, -0.10781127959489822, -0.10413406044244766, -0.019214408472180367, 0.07825996726751328, -0.0003783641732297838, -0.005468218121677637, 0.9989508390426636, 1.1388925313949585, -5.656153202056885, -0.13408039510250092, 0.0, 0.0, 0.0, 0, 0, 0, 0, 0, 0, 1.1417312622070312, -5.664069652557373, -0.13429632782936096
17613, 0.02677137590944767, -0.2980901002883911, -0.10793934017419815, -0.005349542945623398, 0.12354236841201782, 0.08024603128433228, -0.0002052031923085451, -0.006328066345304251, 0.9997699856758118, 1.1417312622070312, -5.664069652557373, -0.13429632782936096, 0.0, 0.0, 0.0, 0, 0, 0, 0, 0, 0, 1.144574522972107, -5.671992301940918, -0.13451312482357025
17623, 0.026332668960094452, -0.298250675201416, -0.10790973156690598, 0.24228139221668243, 0.010665809735655785, 0.23217813670635223, -0.0023344012442976236, -0.006615364924073219, 0.9994718432426453, 1.144574522972107, -5.671992301940918, -0.13451312482357025, 0.0, 0.0, 0.0, 0, 0, 0, 0, 0, 0, 1.1474220752716064, -5.6799211502075195, -0.13473021984100342
17633, 0.026141146197915077, -0.29921212792396545, -0.10819406807422638, -0.008439094759523869, -0.05841433256864548, -0.05504574999213219, -0.002929793670773506, -0.006277936976402998, 0.9989595413208008, 1.1474220752716064, -5.6799211502075195, -0.13473021984100342, 0.0, 0.0, 0.0, 0, 0, 0, 0, 0, 0, 1.1502723693847656, -5.687856674194336, -0.13494829833507538
17643, 0.026274090632796288, -0.2989138066768646, -0.1089693233370781, 0.01454857736825943, -0.2631739377975464, -0.1238495409488678, -0.0011894992785528302, -0.008308556862175465, 1.0001083612442017, 1.1502723693847656, -5.687856674194336, -0.13494829833507538, 0.0, 0.0, 0.0, 0, 0, 0, 0, 0, 0, 1.1531257629394531, -5.695799827575684, -0.1351669430732727
17653, 0.02597474306821823, -0.2987044155597687, -0.10815707594156265, 0.06010710075497627, 0.07569584250450134, -0.020590651780366898, -0.0042343782261013985, -0.005208193324506283, 1.0000730752944946, 1.1531257629394531, -5.695799827575684, -0.1351669430732727, 0.0, 0.0, 0.0, 0, 0, 0, 0, 0, 0, 1.1559820175170898, -5.703750133514404, -0.13538524508476257
17663, 0.026550501585006714, -0.3007339537143707, -0.10715823620557785, -0.020313650369644165, 0.1444968432188034, 0.14505799114704132, -0.00655946834012866, -0.0043897200375795364, 1.000352144241333, 1.1559820175170898, -5.703750133514404, -0.13538524508476257, 0.0, 0.0, 0.0, 0, 0, 0, 0, 0, 0, 1.1588388681411743, -5.711706638336182, -0.13560374081134796
17673, 0.025923697277903557, -0.30039235949516296, -0.10804158449172974, -0.05447673797607422, -0.048135463148355484, -0.21334493160247803, -0.002861006883904338, -0.00594923784956336, 1.0033681392669678, 1.1588388681411743, -5.711706638336182, -0.13560374081134796, 0.0, 0.0, 0.0, 0, 0, 0, 0, 0, 0, 1.1616955995559692, -5.719668388366699, -0.13582122325897217
17683, 0.025876058265566826, -0.301065057516098, -0.10903987288475037, -0.09855159372091293, 0.06242215633392334, 0.0980449914932251, -0.0023316992446780205, -0.005276983603835106, 1.0013357400894165, 1.1616955995559692, -5.719668388366699, -0.13582122325897217, 0.0, 0.0, 0.0, 0, 0, 0, 0, 0, 0, 1.1645543575286865, -5.727635860443115, -0.1360364556312561
17693, 0.026617104187607765, -0.3006949722766876, -0.10889081656932831, 0.07630772888660431, -0.09597597271203995, -0.010154124349355698, -0.0005296196322888136, -0.0047070663422346115, 0.9983918070793152, 1.1645543575286865, -5.727635860443115, -0.1360364556312561, 0.0, 0.0, 0.0, 0, 0, 0, 0, 0, 0, 1.1674166917800903, -5.73560905456543, -0.13625098764896393
17703, 0.025988252833485603, -0.2971886992454529, -0.10990207642316818, -0.15898160636425018, -0.38470444083213806, -0.1761806607246399, -0.0008258107700385153, -0.006351863499730825, 0.9997318983078003, 1.1674166917800903, -5.73560905456543, -0.13625098764896393, 0.0, 0.0, 0.0, 0, 0, 0, 0, 0, 0, 1.170283317565918, -5.743587970733643, -0.13646645843982697
17713, 0.025987179949879646, -0.2978537976741791, -0.10974717885255814, -0.04417211934924126, 0.06208815798163414, -0.0543314591050148, -0.0023657954297959805, -0.006011693272739649, 0.9994088411331177, 1.170283317565918, -5.743587970733643, -0.13646645843982697, 0.0, 0.0, 0.0, 0, 0, 0, 0, 0, 0, 1.1731538772583008, -5.75157356262207, -0.13668286800384521
17723, 0.026306532323360443, -0.2986230254173279, -0.10921142995357513, 0.1233023852109909, 0.14596283435821533, -0.041617438197135925, -0.002374831819906831, -0.006665801163762808, 0.9999966025352478, 1.1731538772583008, -5.75157356262207, -0.13668286800384521, 0.0, 0.0, 0.0, 0, 0, 0, 0, 0, 0, 1.1760274171829224, -5.759565353393555, -0.13689954578876495
17733, 0.02621406503021717, -0.2976440191268921, -0.10889200121164322, -0.11244893819093704, -0.33523672819137573, -0.13065393269062042, -0.0013871692353859544, -0.005753145553171635, 0.9998622536659241, 1.1760274171829224, -5.759565353393555, -0.13689954578876495, 0.0, 0.0, 0.0, 0, 0, 0, 0, 0, 0, 1.1789039373397827, -5.767564296722412, -0.13711635768413544
17743, 0.028303464874625206, -0.2988119125366211, -0.11068867146968842, 0.14524272084236145, 0.2675952911376953, -0.07570970058441162, -0.0011313118739053607, -0.0026377385947853327, 0.9973517656326294, 1.1789039373397827, -5.767564296722412, -0.13711635768413544, 0.0, 0.0, 0.0, 0, 0, 0, 0, 0, 0, 1.1817840337753296, -5.775568962097168, -0.13733389973640442
17753, 0.027605567127466202, -0.2989218831062317, -0.11113814264535904, -0.09969746321439743, 0.31827878952026367, -0.06962990760803223, 0.00016089413838926703, -0.0036850692704319954, 0.9989035725593567, 1.1817840337753296, -5.775568962097168, -0.13733389973640442, 0.0, 0.0, 0.0, 0, 0, 0, 0, 0, 0, 1.1846686601638794, -5.7835774421691895, -0.13755300641059875
17763, 0.028731342405080795, -0.30041757225990295, -0.10995876789093018, 0.14981389045715332, 0.02662837691605091, 0.2566363513469696, -7.168859883677214e-05, -0.006883066613227129, 0.9997616410255432, 1.1846686601638794, -5.7835774421691895, -0.13755300641059875, 0.0, 0.0, 0.0, 0, 0, 0, 0, 0, 0, 1.1875582933425903, -5.791590213775635, -0.13777358829975128
17773, 0.02807764895260334, -0.3002859652042389, -0.10979801416397095, -0.07732067257165909, -0.11248081177473068, -0.012113340198993683, 1.2177923053968698e-05, -0.007005422376096249, 1.0006214380264282, 1.1875582933425903, -5.791590213775635, -0.13777358829975128, 0.0, 0.0, 0.0, 0, 0, 0, 0, 0, 0, 1.190453290939331, -5.799609661102295, -0.13799446821212769
17783, 0.02721373178064823, -0.30118730664253235, -0.10821796953678131, -0.04903191328048706, 0.14929650723934174, 0.24424760043621063, -0.0018664422677829862, -0.003545059124007821, 0.9987323880195618, 1.190453290939331, -5.799609661102295, -0.13799446821212769, 0.0, 0.0, 0.0, 0, 0, 0, 0, 0, 0, 1.1933526992797852, -5.807635307312012, -0.1382155865430832
17793, 0.027788538485765457, -0.2994479238986969, -0.10879567265510559, 0.009382468648254871, -0.2530202269554138, -0.04793728142976761, -0.0013005182845517993, -0.004358435049653053, 0.9980413913726807, 1.1933526992797852, -5.807635307312012, -0.1382155865430832, 0.0, 0.0, 0.0, 0, 0, 0, 0, 0, 0, 1.196546196937561, -5.816469192504883, -0.13846024870872498
17803, 0.029019277542829514, -0.2989838719367981, -0.10916438698768616, 0.0009942700853571296, 0.05526280775666237, 0.011146771721541882, -0.001730979303829372, -0.005377896595746279, 1.0004093647003174, 1.196546196937561, -5.816469192504883, -0.13846024870872498, 0.0, 0.0, 0.0, 0, 0, 0, 0, 0, 0, 1.1994532346725464, -5.824504852294922, -0.13868366181850433
17813, 0.028211945667862892, -0.2998385727405548, -0.10769966244697571, -0.1513793170452118, 0.1124032661318779, 0.27198007702827454, -0.0025674481876194477, -0.0043200901709496975, 1.0002909898757935, 1.1994532346725464, -5.824504852294922, -0.13868366181850433, 0.0, 0.0, 0.0, 0, 0, 0, 0, 0, 0, 1.2023634910583496, -5.832545280456543, -0.13890720903873444
17823, 0.028512336313724518, -0.3021933436393738, -0.10714594274759293, 0.043160341680049896, 0.31469032168388367, -0.008323097601532936, -0.0008680057944729924, -0.005774469580501318, 1.0013880729675293, 1.2023634910583496, -5.832545280456543, -0.13890720903873444, 0.0, 0.0, 0.0, 0, 0, 0, 0, 0, 0, 1.2052772045135498, -5.8405914306640625, -0.13913029432296753
17833, 0.028161145746707916, -0.3031224310398102, -0.10716982185840607, -0.09229926019906998, 0.0835811197757721, -0.041207775473594666, -0.0004206692392472178, -0.006555379368364811, 1.0032249689102173, 1.2052772045135498, -5.8405914306640625, -0.13913029432296753, 0.0, 0.0, 0.0, 0, 0, 0, 0, 0, 0, 1.2081953287124634, -5.848643779754639, -0.13935168087482452
17843, 0.029353056102991104, -0.30385467410087585, -0.10709741711616516, 0.17366249859333038, 0.07793735712766647, -0.12857794761657715, -0.0008419580990448594, -0.007084736134856939, 0.9991360306739807, 1.2081953287124634, -5.848643779754639, -0.13935168087482452, 0.0, 0.0, 0.0, 0, 0, 0, 0, 0, 0, 1.2111181020736694, -5.856703281402588, -0.13957162201404572
17853, 0.029948342591524124, -0.3037033975124359, -0.1076444610953331, 0.28745654225349426, -0.046620577573776245, -0.14279957115650177, -0.001262885401956737, -0.007021757774055004, 0.9972096085548401, 1.2111181020736694, -5.856703281402588, -0.13957162201404572, 0.0, 0.0, 0.0, 0, 0, 0, 0, 0, 0, 1.2140452861785889, -5.86476993560791, -0.13979271054267883
17863, 0.029035229235887527, -0.3038613200187683, -0.10770583897829056, -0.13400249183177948, 0.08698558062314987, 0.05631595104932785, -0.003267874475568533, -0.005132623482495546, 0.9983376264572144, 1.2140452861785889, -5.86476993560791, -0.13979271054267883, 0.0, 0.0, 0.0, 0, 0, 0, 0, 0, 0, 1.216975450515747, -5.872843265533447, -0.14001630246639252
17873, 0.028902588412165642, -0.30396971106529236, -0.10726692527532578, 0.0020162349101155996, 0.08252812176942825, 0.2005607932806015, -0.0016889122780412436, -0.005623416975140572, 1.0002059936523438, 1.216975450515747, -5.872843265533447, -0.14001630246639252, 0.0, 0.0, 0.0, 0, 0, 0, 0, 0, 0, 1.2199082374572754, -5.880922794342041, -0.14024092257022858
17883, 0.02876642346382141, -0.30638745427131653, -0.10542924702167511, -0.0680069774389267, 0.18147680163383484, 0.18394088745117188, -0.0009608958498574793, -0.003633590182289481, 0.9990254640579224, 1.2199082374572754, -5.880922794342041, -0.14024092257022858, 0.0, 0.0, 0.0, 0, 0, 0, 0, 0, 0, 1.2228444814682007, -5.889007568359375, -0.1404658704996109
17893, 0.02902965247631073, -0.30932483077049255, -0.105024054646492, -0.049351099878549576, 0.3632350564002991, -0.03431463614106178, -0.0002616003912407905, -0.003680446418002248, 0.9979332089424133, 1.2228444814682007, -5.889007568359375, -0.1404658704996109, 0.0, 0.0, 0.0, 0, 0, 0, 0, 0, 0, 1.2257851362228394, -5.897096633911133, -0.14069224894046783
17903, 0.029105842113494873, -0.30997535586357117, -0.1050257757306099, 0.13321426510810852, -0.00020186651090625674, -0.006775350775569677, -0.0007736172410659492, -0.005599301308393478, 0.999512255191803, 1.2257851362228394, -5.897096633911133, -0.14069224894046783, 0.0, 0.0, 0.0, 0, 0, 0, 0, 0, 0, 1.2287304401397705, -5.9051899909973145, -0.1409200131893158
17913, 0.028912482783198357, -0.30999940633773804, -0.10463003814220428, -0.08377368748188019, 0.03938329219818115, 0.07291410118341446, -0.0029771216213703156, -0.006363007705658674, 0.9977986812591553, 1.2287304401397705, -5.9051899909973145, -0.1409200131893158, 0.0, 0.0, 0.0, 0, 0, 0, 0, 0, 0, 1.2316794395446777, -5.913289546966553, -0.14114919304847717
17923, 0.02852078713476658, -0.31032902002334595, -0.10440375655889511, 0.015871133655309677, 0.12666621804237366, -0.14055593311786652, -0.0015526575734838843, -0.004389033652842045, 0.9990109801292419, 1.2316794395446777, -5.913289546966553, -0.14114919304847717, 0.0, 0.0, 0.0, 0, 0, 0, 0, 0, 0, 1.2346316576004028, -5.921395301818848, -0.14138007164001465
17933, 0.028456540778279305, -0.3087000250816345, -0.1037912592291832, 0.014774776995182037, -0.24333249032497406, -0.051644306629896164, -0.000859355553984642, -0.004144077189266682, 1.0016475915908813, 1.2346316576004028, -5.921395301818848, -0.14138007164001465, 0.0, 0.0, 0.0, 0, 0, 0, 0, 0, 0, 1.237587809562683, -5.929505825042725, -0.14161139726638794
17943, 0.027951249852776527, -0.30862897634506226, -0.10315294563770294, -0.014058010652661324, 0.05513741448521614, 0.13224686682224274, -0.0005240455502644181, -0.004792821127921343, 0.9999125003814697, 1.237587809562683, -5.929505825042725, -0.14161139726638794, 0.0, 0.0, 0.0, 0, 0, 0, 0, 0, 0, 1.2405484914779663, -5.937621116638184, -0.14184227585792542
17953, 0.028079496696591377, -0.3107614517211914, -0.10359001159667969, 0.0021073759999126196, 0.2048538625240326, -0.015119520016014576, 0.0003090112004429102, -0.00564935989677906, 1.0010156631469727, 1.2405484914779663, -5.937621116638184, -0.14184227585792542, 0.0, 0.0, 0.0, 0, 0, 0, 0, 0, 0, 1.2435141801834106, -5.945742130279541, -0.14207273721694946
17963, 0.028162619099020958, -0.31182926893234253, -0.10138281434774399, -0.12864844501018524, 0.13815201818943024, 0.312282919883728, 4.591194374370389e-05, -0.005107000004500151, 0.99876469373703, 1.2435141801834106, -5.945742130279541, -0.14207273721694946, 0.0, 0.0, 0.0, 0, 0, 0, 0, 0, 0, 1.2464852333068848, -5.953868865966797, -0.14230316877365112
17973, 0.027713123708963394, -0.31331801414489746, -0.10275547206401825, -0.04322028532624245, 0.22299876809120178, -0.24147465825080872, -0.0012772026238963008, -0.005227646790444851, 0.9981402158737183, 1.2464852333068848, -5.953868865966797, -0.14230316877365112, 0.0, 0.0, 0.0, 0, 0, 0, 0, 0, 0, 1.2494611740112305, -5.962001323699951, -0.14253458380699158
17983, 0.027818961068987846, -0.3118264675140381, -0.10506099462509155, -0.10809401422739029, -0.3693702220916748, -0.34681907296180725, -0.00159773463383317, -0.003336919704452157, 1.000590443611145, 1.2494611740112305, -5.962001323699951, -0.14253458380699158, 0.0, 0.0, 0.0, 0, 0, 0, 0, 0, 0, 1.252441167831421, -5.9701385498046875, -0.14276669919490814
17993, 0.028507063165307045, -0.3125118613243103, -0.10501936078071594, 0.10588299483060837, 0.0948634073138237, 0.08384204655885696, 5.7187035054084845e-06, -0.005030830390751362, 0.9990710616111755, 1.252441167831421, -5.9701385498046875, -0.14276669919490814, 0.0, 0.0, 0.0, 0, 0, 0, 0, 0, 0, 1.2554254531860352, -5.978280544281006, -0.14299890398979187
18003, 0.02910277433693409, -0.3110419511795044, -0.10399045795202255, 0.019093146547675133, -0.16794371604919434, 0.1012808233499527, -0.0029874839819967747, -0.004660872742533684, 1.0012472867965698, 1.2554254531860352, -5.978280544281006, -0.14299890398979187, 0.0, 0.0, 0.0, 0, 0, 0, 0, 0, 0, 1.2584139108657837, -5.9864277839660645, -0.14323092997074127
18013, 0.029310857877135277, -0.31111380457878113, -0.1047355905175209, -0.04971712827682495, -0.01486800704151392, -0.08336175233125687, -0.0013798321597278118, -0.0064856186509132385, 0.999839186668396, 1.2584139108657837, -5.9864277839660645, -0.14323092997074127, 0.0, 0.0, 0.0, 0, 0, 0, 0, 0, 0, 1.2614054679870605, -5.9945807456970215, -0.14346253871917725
18023, 0.030765945091843605, -0.3129657208919525, -0.10515394806861877, 0.2888236343860626, 0.29491832852363586, 0.015931647270917892, -0.0009190634009428322, -0.006552962586283684, 0.9980809688568115, 1.2614054679870605, -5.9945807456970215, -0.14346253871917725, 0.0, 0.0, 0.0, 0, 0, 0, 0, 0, 0, 1.264400839805603, -6.002740383148193, -0.14369459450244904
18033, 0.030239129438996315, -0.3137490749359131, -0.10600601881742477, -0.04440351203083992, 0.3492650091648102, -0.0996631607413292, -7.295476098079234e-05, -0.006902768276631832, 1.0003337860107422, 1.264400839805603, -6.002740383148193, -0.14369459450244904, 0.0, 0.0, 0.0, 0, 0, 0, 0, 0, 0, 1.267400860786438, -6.010907173156738, -0.143927663564682
18043, 0.030641140416264534, -0.313022643327713, -0.1071452647447586, 0.10356678813695908, 0.002310075331479311, -0.1972046196460724, 0.0022237952798604965, -0.00528205931186676, 1.0012937784194946, 1.267400860786438, -6.010907173156738, -0.143927663564682, 0.0, 0.0, 0.0, 0, 0, 0, 0, 0, 0, 1.2704066038131714, -6.019080638885498, -0.14416031539440155
18053, 0.029601365327835083, -0.3129708170890808, -0.10661966353654861, -0.17410607635974884, 0.18758338689804077, 0.009146380238234997, -0.000420764263253659, -0.004234278108924627, 0.9992318749427795, 1.2704066038131714, -6.019080638885498, -0.14416031539440155, 0.0, 0.0, 0.0, 0, 0, 0, 0, 0, 0, 1.2734184265136719, -6.027259349822998, -0.1443922072649002
18063, 0.02927241101861, -0.3119286000728607, -0.10715524852275848, 0.06712587922811508, -0.16038471460342407, -0.04027450829744339, -0.0022536073811352253, -0.0027460900600999594, 0.9984370470046997, 1.2734184265136719, -6.027259349822998, -0.1443922072649002, 0.0, 0.0, 0.0, 0, 0, 0, 0, 0, 0, 1.2764345407485962, -6.035442352294922, -0.14462484419345856
18073, 0.029231039807200432, -0.3108350336551666, -0.107111357152462, -0.04970353841781616, -0.005768388509750366, -0.032550521194934845, 0.00047306163469329476, -0.0035048529971390963, 0.9986766576766968, 1.2764345407485962, -6.035442352294922, -0.14462484419345856, 0.0, 0.0, 0.0, 0, 0, 0, 0, 0, 0, 1.2794548273086548, -6.043628692626953, -0.14485888183116913
18083, 0.028342874720692635, -0.3088948130607605, -0.10642529278993607, -0.19993655383586884, -0.16592881083488464, 0.04694097116589546, -0.0006591503042727709, -0.0062576341442763805, 0.9988740086555481, 1.2794548273086548, -6.043628692626953, -0.14485888183116913, 0.0, 0.0, 0.0, 0, 0, 0, 0, 0, 0, 1.2824803590774536, -6.051819801330566, -0.14509424567222595
18093, 0.02830670028924942, -0.3102320432662964, -0.1061742752790451, -0.026474911719560623, 0.27039459347724915, -0.0033156464342027903, 5.592742672888562e-05, -0.006576250307261944, 1.000672459602356, 1.2824803590774536, -6.051819801330566, -0.14509424567222595, 0.0, 0.0, 0.0, 0, 0, 0, 0, 0, 0, 1.2855110168457031, -6.060017108917236, -0.14532999694347382
18103, 0.028036637231707573, -0.31132152676582336, -0.10500753670930862, -0.04972850903868675, 0.04501938819885254, 0.1846407949924469, 0.0008699658210389316, -0.007902327924966812, 1.0003392696380615, 1.2855110168457031, -6.060017108917236, -0.14532999694347382, 0.0, 0.0, 0.0, 0, 0, 0, 0, 0, 0, 1.288547396659851, -6.0682220458984375, -0.14556539058685303
18113, 0.02725093998014927, -0.3118855357170105, -0.10450593382120132, -0.19451174139976501, 0.15008920431137085, -0.010325799696147442, -0.0003350029292050749, -0.0072598764672875404, 0.998684823513031, 1.288547396659851, -6.0682220458984375, -0.14556539058685303, 0.0, 0.0, 0.0, 0, 0, 0, 0, 0, 0, 1.291589379310608, -6.076435089111328, -0.14580108225345612
18123, 0.02839917130768299, -0.31235405802726746, -0.1041027307510376, 0.09381353110074997, 0.26320093870162964, -0.05198625102639198, -0.00048593341489322484, -0.006299295928329229, 1.0004273653030396, 1.291589379310608, -6.076435089111328, -0.14580108225345612, 0.0, 0.0, 0.0, 0, 0, 0, 0, 0, 0, 1.2946364879608154, -6.08465576171875, -0.1460370570421219
18133, 0.028117215260863304, -0.3114929795265198, -0.1042710542678833, 0.05334730073809624, -0.1901395171880722, -0.04889833927154541, -0.0011108053149655461, -0.005261857062578201, 1.0008372068405151, 1.2946364879608154, -6.08465576171875, -0.1460370570421219, 0.0, 0.0, 0.0, 0, 0, 0, 0, 0, 0, 1.297688364982605, -6.0928826332092285, -0.14627256989479065
18143, 0.028449781239032745, -0.31073880195617676, -0.10504572838544846, -0.03034331277012825, 0.07306624948978424, 0.008478861302137375, -0.0010009416146203876, -0.003713590558618307, 0.9991840124130249, 1.297688364982605, -6.0928826332092285, -0.14627256989479065, 0.0, 0.0, 0.0, 0, 0, 0, 0, 0, 0, 1.3007445335388184, -6.101114273071289, -0.14650782942771912
18153, 0.027871454134583473, -0.3113730847835541, -0.10686532407999039, -0.17028015851974487, 0.18068359792232513, -0.11579494178295135, -0.0003372109495103359, -0.005465087480843067, 0.9999956488609314, 1.3007445335388184, -6.101114273071289, -0.14650782942771912, 0.0, 0.0, 0.0, 0, 0, 0, 0, 0, 0, 1.3038052320480347, -6.10935115814209, -0.14674319326877594
18163, 0.026751745492219925, -0.31243613362312317, -0.10617955029010773, -0.18749243021011353, 0.21063874661922455, -0.05507056415081024, -0.0014347934629768133, -0.005800155457109213, 0.9985259771347046, 1.3038052320480347, -6.10935115814209, -0.14674319326877594, 0.0, 0.0, 0.0, 0, 0, 0, 0, 0, 0, 1.3068705797195435, -6.117593765258789, -0.1469791978597641
18173, 0.027657954022288322, -0.31148916482925415, -0.10660947859287262, 0.10313049703836441, 0.1054844856262207, -0.11750359833240509, -0.0013096920447424054, -0.004756059497594833, 1.001505970954895, 1.3068705797195435, -6.117593765258789, -0.1469791978597641, 0.0, 0.0, 0.0, 0, 0, 0, 0, 0, 0, 1.3099398612976074, -6.125842094421387, -0.14721523225307465
18183, 0.027909858152270317, -0.31222599744796753, -0.10546546429395676, -0.018677150830626488, 0.18462307751178741, 0.2983756363391876, -0.0015831352211534977, -0.006517804693430662, 1.0023473501205444, 1.3099398612976074, -6.125842094421387, -0.14721523225307465, 0.0, 0.0, 0.0, 0, 0, 0, 0, 0, 0, 1.3130130767822266, -6.134096622467041, -0.14744985103607178
18193, 0.028323359787464142, -0.3125787377357483, -0.10548923164606094, -0.0029990680050104856, 0.0771002396941185, -0.06342051178216934, -0.0028024089988321066, -0.00649790745228529, 0.9989054203033447, 1.3130130767822266, -6.134096622467041, -0.14744985103607178, 0.0, 0.0, 0.0, 0, 0, 0, 0, 0, 0, 1.3160897493362427, -6.14235782623291, -0.1476833075284958
18203, 0.02902248688042164, -0.3108381927013397, -0.10516209900379181, 0.047211915254592896, -0.1620997041463852, -0.09268508851528168, -0.0005293021094985306, -0.0061292205937206745, 0.999919593334198, 1.3160897493362427, -6.14235782623291, -0.1476833075284958, 0.0, 0.0, 0.0, 0, 0, 0, 0, 0, 0, 1.3191699981689453, -6.150626182556152, -0.14791692793369293
18213, 0.02881145477294922, -0.31188151240348816, -0.10691244155168533, -0.0433209054172039, 0.07806883007287979, -0.24573777616024017, 0.0020225336775183678, -0.005591023247689009, 1.0007497072219849, 1.3191699981689453, -6.150626182556152, -0.14791692793369293, 0.0, 0.0, 0.0, 0, 0, 0, 0, 0, 0, 1.3222557306289673, -6.158900737762451, -0.14815057814121246
18223, 0.030011380091309547, -0.31387534737586975, -0.10690571367740631, 0.15533895790576935, 0.3101685345172882, -0.013289246708154678, -0.0020095021463930607, -0.003948814235627651, 1.0021992921829224, 1.3222557306289673, -6.158900737762451, -0.14815057814121246, 0.0, 0.0, 0.0, 0, 0, 0, 0, 0, 0, 1.3253471851348877, -6.167181015014648, -0.14838258922100067
18233, 0.0298421960324049, -0.31322988867759705, -0.10663942992687225, -0.04455683007836342, -0.24494676291942596, 0.04505180940032005, -0.0008991272770799696, -0.0049986569210886955, 1.0000839233398438, 1.3253471851348877, -6.167181015014648, -0.14838258922100067, 0.0, 0.0, 0.0, 0, 0, 0, 0, 0, 0, 1.328442931175232, -6.175466060638428, -0.14861321449279785
18243, 0.030139131471514702, -0.3150738477706909, -0.10675521939992905, 0.014466417953372002, 0.3175032436847687, 0.05299939587712288, -0.0014815740287303925, -0.005719740875065327, 0.9973599910736084, 1.328442931175232, -6.175466060638428, -0.14861321449279785, 0.0, 0.0, 0.0, 0, 0, 0, 0, 0, 0, 1.33154296875, -6.1837568283081055, -0.14884451031684875
18253, 0.030482549220323563, -0.3143591582775116, -0.10689608752727509, 0.005645569413900375, 0.08881671726703644, 0.09239358454942703, -0.00038667520857416093, -0.00550989992916584, 1.0008976459503174, 1.33154296875, -6.1837568283081055, -0.14884451031684875, 0.0, 0.0, 0.0, 0, 0, 0, 0, 0, 0, 1.3346474170684814, -6.19205379486084, -0.14907686412334442
18263, 0.02999945729970932, -0.311879426240921, -0.10766198486089706, -0.048575688153505325, -0.2862369418144226, -0.2798078656196594, -0.0021971368696540594, -0.006775400601327419, 1.0002564191818237, 1.3346474170684814, -6.19205379486084, -0.14907686412334442, 0.0, 0.0, 0.0, 0, 0, 0, 0, 0, 0, 1.3377560377120972, -6.200357437133789, -0.14930927753448486
18273, 0.030467461794614792, -0.31176114082336426, -0.1070839986205101, 0.10975544154644012, 0.12598787248134613, 0.10104609280824661, -0.0023967125453054905, -0.00641885120421648, 0.9999587535858154, 1.3377560377120972, -6.200357437133789, -0.14930927753448486, 0.0, 0.0, 0.0, 0, 0, 0, 0, 0, 0, 1.3408682346343994, -6.208668231964111, -0.1495414823293686
18283, 0.030781526118516922, -0.310456782579422, -0.10785407572984695, -0.10619056224822998, -0.16746629774570465, -0.10684989392757416, -0.0020816002506762743, -0.006098979618400335, 0.9982433319091797, 1.3408682346343994, -6.208668231964111, -0.1495414823293686, 0.0, 0.0, 0.0, 0, 0, 0, 0, 0, 0, 1.34398353099823, -6.216986179351807, -0.14977437257766724
18293, 0.030138405039906502, -0.31184113025665283, -0.10925288498401642, -0.16754107177257538, 0.22520679235458374, -0.27286940813064575, -0.0004590215103235096, -0.005468830466270447, 0.9988194704055786, 1.34398353099823, -6.216986179351807, -0.14977437257766724, 0.0, 0.0, 0.0, 0, 0, 0, 0, 0, 0, 1.3471027612686157, -6.225310325622559, -0.1500084400177002
18303, 0.029835615307092667, -0.31221404671669006, -0.10872188955545425, -0.02582540549337864, -0.04049962759017944, -0.09695132076740265, -0.0016175436321645975, -0.004251653328537941, 0.9988827109336853, 1.3471027612686157, -6.225310325622559, -0.1500084400177002, 0.0, 0.0, 0.0, 0, 0, 0, 0, 0, 0, 1.3502262830734253, -6.233639717102051, -0.15024353563785553
18313, 0.029119685292243958, -0.31431227922439575, -0.10832230001688004, -0.14260002970695496, 0.3009147346019745, 0.003843385959044099, -0.0035170498304069042, -0.0036656868178397417, 1.0004286766052246, 1.3502262830734253, -6.233639717102051, -0.15024353563785553, 0.0, 0.0, 0.0, 0, 0, 0, 0, 0, 0, 1.3533527851104736, -6.241973876953125, -0.1504792720079422
18323, 0.02922317571938038, -0.31250154972076416, -0.10755344480276108, 0.017310798168182373, -0.16333992779254913, -0.09865628927946091, -0.0017602253938093781, -0.003952722530812025, 1.0018575191497803, 1.3533527851104736, -6.241973876953125, -0.1504792720079422, 0.0, 0.0, 0.0, 0, 0, 0, 0, 0, 0, 1.3564820289611816, -6.250312328338623, -0.15071433782577515
18333, 0.029804153367877007, -0.3125191926956177, -0.10783977061510086, 0.0846390351653099, -0.022901037707924843, -0.0003295349597465247, -0.0014220722950994968, -0.005226293578743935, 1.0023037195205688, 1.3564820289611816, -6.250312328338623, -0.15071433782577515, 0.0, 0.0, 0.0, 0, 0, 0, 0, 0, 0, 1.3596148490905762, -6.258655548095703, -0.1509479135274887
18343, 0.03152437135577202, -0.31417807936668396, -0.10788813978433609, 0.24300262331962585, 0.05283334106206894, 0.024277551099658012, -0.0014815273461863399, -0.005434397142380476, 1.0016450881958008, 1.3596148490905762, -6.258655548095703, -0.1509479135274887, 0.0, 0.0, 0.0, 0, 0, 0, 0, 0, 0, 1.3627517223358154, -6.267004489898682, -0.1511794626712799
18353, 0.030125338584184647, -0.31529101729393005, -0.10813804715871811, -0.0937427207827568, 0.24283529818058014, 0.015182853676378727, -0.0015730217564851046, -0.006095935124903917, 1.0001866817474365, 1.3627517223358154, -6.267004489898682, -0.1511794626712799, 0.0, 0.0, 0.0, 0, 0, 0, 0, 0, 0, 1.3658925294876099, -6.275359153747559, -0.15140973031520844
18363, 0.028971729800105095, -0.3147300183773041, -0.10845725238323212, -0.10676530748605728, -0.0376412458717823, -0.18536798655986786, -0.0029751139227300882, -0.004589005373418331, 0.997797966003418, 1.3658925294876099, -6.275359153747559, -0.15140973031520844, 0.0, 0.0, 0.0, 0, 0, 0, 0, 0, 0, 1.3690366744995117, -6.283719539642334, -0.151640847325325
18373, 0.030238904058933258, -0.31388771533966064, -0.10832150280475616, 0.08988015353679657, -0.2786421775817871, -0.11277081072330475, -0.002291225828230381, -0.006829818245023489, 1.0012481212615967, 1.3690366744995117, -6.283719539642334, -0.151640847325325, 0.0, 0.0, 0.0, 0, 0, 0, 0, 0, 0, 1.3721835613250732, -6.292086124420166, -0.15187276899814606
18383, 0.02938808873295784, -0.3147623538970947, -0.10842300951480865, -0.25484979152679443, 0.11997386068105698, -0.011859027668833733, -0.0030817303340882063, -0.004443568643182516, 0.9994493126869202, 1.3721835613250732, -6.292086124420166, -0.15187276899814606, 0.0, 0.0, 0.0, 0, 0, 0, 0, 0, 0, 1.3753334283828735, -6.300458908081055, -0.15210479497909546
18393, 0.029635172337293625, -0.31427255272865295, -0.10933694243431091, 0.028167612850666046, -0.036429617553949356, -0.0732979029417038, -0.0013984407996758819, -0.005427442025393248, 0.9987112283706665, 1.3753334283828735, -6.300458908081055, -0.15210479497909546, 0.0, 0.0, 0.0, 0, 0, 0, 0, 0, 0, 1.3784863948822021, -6.308836936950684, -0.1523374617099762
18403, 0.028746377676725388, -0.3141941726207733, -0.10977434366941452, -0.10631203651428223, 0.002700634067878127, -0.06599345058202744, 0.0011996866669505835, -0.004789124708622694, 0.9968145489692688, 1.3784863948822021, -6.308836936950684, -0.1523374617099762, 0.0, 0.0, 0.0, 0, 0, 0, 0, 0, 0, 1.3816442489624023, -6.317220211029053, -0.1525719165802002
18413, 0.02944820560514927, -0.3126096725463867, -0.11020730435848236, -0.018321074545383453, -0.12149964272975922, -0.1874890774488449, -0.0006729362066835165, -0.004222342744469643, 0.9981570839881897, 1.3816442489624023, -6.317220211029053, -0.1525719165802002, 0.0, 0.0, 0.0, 0, 0, 0, 0, 0, 0, 1.3848077058792114, -6.325608730316162, -0.15280885994434357
18423, 0.027934152632951736, -0.31355056166648865, -0.11109057068824768, -0.1910390406847, 0.41125568747520447, -0.23189230263233185, -0.003285172861069441, -0.0038344108033925295, 0.9985934495925903, 1.3848077058792114, -6.325608730316162, -0.15280885994434357, 0.0, 0.0, 0.0, 0, 0, 0, 0, 0, 0, 1.3879749774932861, -6.334002494812012, -0.15304769575595856
18433, 0.02747645415365696, -0.31251710653305054, -0.1107802763581276, -0.14459291100502014, -0.10006532073020935, -0.012301163747906685, -0.0025118670891970396, -0.002930382266640663, 1.000800371170044, 1.3879749774932861, -6.334002494812012, -0.15304769575595856, 0.0, 0.0, 0.0, 0, 0, 0, 0, 0, 0, 1.391144871711731, -6.342400550842285, -0.1532873958349228
18443, 0.028552116826176643, -0.31438732147216797, -0.11074255406856537, 0.13097308576107025, 0.2821447551250458, 0.05688057467341423, 0.0002175136614823714, -0.005578188691288233, 1.0015766620635986, 1.391144871711731, -6.342400550842285, -0.1532873958349228, 0.0, 0.0, 0.0, 0, 0, 0, 0, 0, 0, 1.3943185806274414, -6.350802898406982, -0.1535264402627945
18453, 0.027528520673513412, -0.3129127025604248, -0.11136471480131149, -0.018995100632309914, -0.33880120515823364, -0.24543502926826477, -0.0002463444252498448, -0.006137784104794264, 1.0019434690475464, 1.3943185806274414, -6.350802898406982, -0.1535264402627945, 0.0, 0.0, 0.0, 0, 0, 0, 0, 0, 0, 1.3974976539611816, -6.359210968017578, -0.153763547539711
18463, 0.027507340535521507, -0.31198206543922424, -0.11138129234313965, 0.028011228889226913, -0.13641870021820068, -0.05124513432383537, -0.0016883050557225943, -0.0053407433442771435, 0.9984045624732971, 1.3974976539611816, -6.359210968017578, -0.153763547539711, 0.0, 0.0, 0.0, 0, 0, 0, 0, 0, 0, 1.400681495666504, -6.3676252365112305, -0.15399987995624542
18473, 0.027300985530018806, -0.3103006184101105, -0.11190430819988251, -0.035661883652210236, -0.14918774366378784, -0.14812985062599182, 0.00010690841008909047, -0.00382831203751266, 1.000595211982727, 1.400681495666504, -6.3676252365112305, -0.15399987995624542, 0.0, 0.0, 0.0, 0, 0, 0, 0, 0, 0, 1.4038699865341187, -6.376044750213623, -0.15423673391342163
18483, 0.02748992294073105, -0.3108416199684143, -0.11098684370517731, -0.08452576398849487, 0.22321370244026184, 0.136011004447937, 0.0005399525980465114, -0.004422840196639299, 1.0008047819137573, 1.4038699865341187, -6.376044750213623, -0.15423673391342163, 0.0, 0.0, 0.0, 0, 0, 0, 0, 0, 0, 1.4070638418197632, -6.384469032287598, -0.15447348356246948
18493, 0.02791157178580761, -0.3120703399181366, -0.1102483943104744, 0.20448239147663116, -0.024145035073161125, 0.043739594519138336, -0.0002728399995248765, -0.004075794015079737, 0.999370276927948, 1.4070638418197632, -6.384469032287598, -0.15447348356246948, 0.0, 0.0, 0.0, 0, 0, 0, 0, 0, 0, 1.4102632999420166, -6.392897605895996, -0.15470993518829346
18503, 0.028271455317735672, -0.31195083260536194, -0.10942651331424713, 0.1514468938112259, 0.11178229749202728, -0.11009993404150009, -0.0012883025920018554, -0.004235963337123394, 0.9989245533943176, 1.4102632999420166, -6.392897605895996, -0.15470993518829346, 0.0, 0.0, 0.0, 0, 0, 0, 0, 0, 0, 1.4134678840637207, -6.401330947875977, -0.15494684875011444
18513, 0.028421742841601372, -0.31175094842910767, -0.10903779417276382, -0.08785043656826019, -0.07139567285776138, 0.007622788194566965, -0.00282945204526186, -0.005903545767068863, 0.9969822764396667, 1.4134678840637207, -6.401330947875977, -0.15494684875011444, 0.0, 0.0, 0.0, 0, 0, 0, 0, 0, 0, 1.4166760444641113, -6.409769535064697, -0.1551854908466339
18523, 0.029051681980490685, -0.3131412863731384, -0.10918813198804855, 0.05560979247093201, 0.3750649094581604, -0.04958811402320862, -0.0005290010594762862, -0.005036366172134876, 0.9956130385398865, 1.4166760444641113, -6.409769535064697, -0.1551854908466339, 0.0, 0.0, 0.0, 0, 0, 0, 0, 0, 0, 1.419887661933899, -6.418213844299316, -0.15542711317539215
18533, 0.028402820229530334, -0.31354349851608276, -0.11015000939369202, -0.09407548606395721, -0.09328559041023254, -0.13729317486286163, -0.0024803774431347847, -0.006363230757415295, 1.0000823736190796, 1.419887661933899, -6.418213844299316, -0.15542711317539215, 0.0, 0.0, 0.0, 0, 0, 0, 0, 0, 0, 1.4231030941009521, -6.426663875579834, -0.15567155182361603
18543, 0.02812383323907852, -0.3130800426006317, -0.11052875965833664, -0.03881313279271126, -0.18557482957839966, -0.10438869893550873, -0.0001800519530661404, -0.005921478383243084, 0.9977598786354065, 1.4231030941009521, -6.426663875579834, -0.15567155182361603, 0.0, 0.0, 0.0, 0, 0, 0, 0, 0, 0, 1.42632257938385, -6.435120582580566, -0.15591731667518616
18553, 0.028518132865428925, -0.3136880397796631, -0.1098368912935257, 0.15300169587135315, 0.08155860751867294, 0.08961066603660583, -0.001674239058047533, -0.004743117373436689, 1.0012352466583252, 1.42632257938385, -6.435120582580566, -0.15591731667518616, 0.0, 0.0, 0.0, 0, 0, 0, 0, 0, 0, 1.4295462369918823, -6.443583011627197, -0.15616384148597717
18563, 0.02783242054283619, -0.3152599334716797, -0.10944193601608276, 0.022779667750000954, -0.133017897605896, 0.04333193227648735, -0.00031508327811025083, -0.0045792292803525925, 0.9992936253547668, 1.4295462369918823, -6.443583011627197, -0.15616384148597717, 0.0, 0.0, 0.0, 0, 0, 0, 0, 0, 0, 1.4327741861343384, -6.452050685882568, -0.15641093254089355
18573, 0.02814270555973053, -0.3170755207538605, -0.10802159458398819, 0.03489290177822113, 0.43072623014450073, 0.1849292665719986, -0.0005898787057958543, -0.00597338518127799, 1.0018826723098755, 1.4327741861343384, -6.452050685882568, -0.15641093254089355, 0.0, 0.0, 0.0, 0, 0, 0, 0, 0, 0, 1.4360069036483765, -6.46052360534668, -0.15665751695632935
18583, 0.02613958530128002, -0.316498339176178, -0.10623667389154434, -0.25255441665649414, -0.010395612567663193, 0.08417478203773499, -0.0015317578800022602, -0.004006607923656702, 1.00211501121521, 1.4360069036483765, -6.46052360534668, -0.15665751695632935, 0.0, 0.0, 0.0, 0, 0, 0, 0, 0, 0, 1.439244270324707, -6.4690022468566895, -0.15690238773822784
18593, 0.025304488837718964, -0.31609463691711426, -0.10715293884277344, -0.18336226046085358, 0.009287362918257713, -0.16298417747020721, -0.002095715142786503, -0.004668175708502531, 1.00053071975708, 1.439244270324707, -6.4690022468566895, -0.15690238773822784, 0.0, 0.0, 0.0, 0, 0, 0, 0, 0, 0, 1.4424853324890137, -6.477485656738281, -0.15714558959007263
18603, 0.026288846507668495, -0.3161783516407013, -0.10781466215848923, 0.15793675184249878, 0.09836473315954208, -0.017044641077518463, -0.00093038659542799, -0.0057179913856089115, 1.0006849765777588, 1.4424853324890137, -6.477485656738281, -0.15714558959007263, 0.0, 0.0, 0.0, 0, 0, 0, 0, 0, 0, 1.4457300901412964, -6.485973834991455, -0.15738826990127563
18613, 0.026235222816467285, -0.31570175290107727, -0.10741601884365082, 0.0002621659077703953, -0.06756854802370071, -0.1574806123971939, -0.002152104629203677, -0.007465787697583437, 1.0009483098983765, 1.4457300901412964, -6.485973834991455, -0.15738826990127563, 0.0, 0.0, 0.0, 0, 0, 0, 0, 0, 0, 1.4489789009094238, -6.494468688964844, -0.15763060748577118
18623, 0.026674270629882812, -0.3161090612411499, -0.10696764290332794, 0.03579261153936386, 0.1955661177635193, -0.1688118875026703, -0.002635049866512418, -0.008435594849288464, 1.0009359121322632, 1.4489789009094238, -6.494468688964844, -0.15763060748577118, 0.0, 0.0, 0.0, 0, 0, 0, 0, 0, 0, 1.4522309303283691, -6.502971649169922, -0.1578720360994339
18633, 0.026273395866155624, -0.3175342082977295, -0.10591693967580795, -0.10238386690616608, 0.0916631668806076, 0.1439664661884308, -0.0014604353345930576, -0.004883262328803539, 0.9996420741081238, 1.4522309303283691, -6.502971649169922, -0.1578720360994339, 0.0, 0.0, 0.0, 0, 0, 0, 0, 0, 0, 1.4554860591888428, -6.511481761932373, -0.1581130176782608
18643, 0.027314018458127975, -0.3180128037929535, -0.10551715642213821, 0.015241861343383789, -0.04379173368215561, -0.08808071166276932, -0.0018369394820183516, -0.004182011820375919, 0.9989144802093506, 1.4554860591888428, -6.511481761932373, -0.1581130176782608, 0.0, 0.0, 0.0, 0, 0, 0, 0, 0, 0, 1.4587451219558716, -6.5199971199035645, -0.15835435688495636
18653, 0.028616469353437424, -0.31924885511398315, -0.10497821122407913, 0.14626845717430115, 0.30212241411209106, 0.08784918487071991, -0.001549869542941451, -0.005861788522452116, 1.0015432834625244, 1.4587451219558716, -6.5199971199035645, -0.15835435688495636, 0.0, 0.0, 0.0, 0, 0, 0, 0, 0, 0, 1.462007999420166, -6.528517723083496, -0.15859559178352356
18663, 0.028828632086515427, -0.31978559494018555, -0.10435346513986588, -0.11718982458114624, 0.3111248016357422, 0.12140696495771408, -0.0011419716756790876, -0.005905583966523409, 0.9995357394218445, 1.462007999420166, -6.528517723083496, -0.15859559178352356, 0.0, 0.0, 0.0, 0, 0, 0, 0, 0, 0, 1.4652748107910156, -6.537044048309326, -0.15883642435073853
18673, 0.02886425144970417, -0.3211226165294647, -0.1040487140417099, 0.017635218799114227, 0.1643729954957962, -0.12901967763900757, -0.001046797027811408, -0.007397614885121584, 0.9989445209503174, 1.4652748107910156, -6.537044048309326, -0.15883642435073853, 0.0, 0.0, 0.0, 0, 0, 0, 0, 0, 0, 1.4685460329055786, -6.545577049255371, -0.15907728672027588
18683, 0.028819527477025986, -0.3208085000514984, -0.10441233217716217, -0.017841761931777, -0.12316368520259857, -0.2074371874332428, -0.003326218342408538, -0.0044059306383132935, 1.0003681182861328, 1.4685460329055786, -6.545577049255371, -0.15907728672027588, 0.0, 0.0, 0.0, 0, 0, 0, 0, 0, 0, 1.4718209505081177, -6.554116725921631, -0.15931843221187592
18693, 0.028177862986922264, -0.3214021325111389, -0.10520713031291962, 0.004806105978786945, 0.03571733459830284, -0.04545433074235916, -0.0022956018801778555, -0.0043334923684597015, 0.9997135996818542, 1.4718209505081177, -6.554116725921631, -0.15931843221187592, 0.0, 0.0, 0.0, 0, 0, 0, 0, 0, 0, 1.4750986099243164, -6.562661170959473, -0.1595594882965088
18703, 0.028419118374586105, -0.31919795274734497, -0.10625782608985901, 0.07146409153938293, -0.3398389518260956, -0.04148832708597183, -0.001150461146607995, -0.006476654205471277, 0.9997437000274658, 1.4750986099243164, -6.562661170959473, -0.1595594882965088, 0.0, 0.0, 0.0, 0, 0, 0, 0, 0, 0, 1.478379726409912, -6.571210861206055, -0.15980054438114166
18713, 0.0281746257096529, -0.3195129632949829, -0.10567327588796616, -0.15692755579948425, -0.012493189424276352, 0.041927579790353775, -0.000766333716455847, -0.005637513007968664, 0.9971771836280823, 1.478379726409912, -6.571210861206055, -0.15980054438114166, 0.0, 0.0, 0.0, 0, 0, 0, 0, 0, 0, 1.4816651344299316, -6.579767227172852, -0.16004317998886108
18723, 0.02954644337296486, -0.3202374577522278, -0.1061713770031929, 0.3030661344528198, 0.2532787322998047, -0.08158945292234421, -0.003288548905402422, -0.006675883196294308, 0.9982210993766785, 1.4816651344299316, -6.579767227172852, -0.16004317998886108, 0.0, 0.0, 0.0, 0, 0, 0, 0, 0, 0, 1.4849541187286377, -6.588330268859863, -0.16028805077075958
18733, 0.029745906591415405, -0.321098268032074, -0.10475212335586548, -0.04752536118030548, 0.06135115399956703, 0.23032362759113312, -0.0009367925813421607, -0.007104585412889719, 0.997339129447937, 1.4849541187286377, -6.588330268859863, -0.16028805077075958, 0.0, 0.0, 0.0, 0, 0, 0, 0, 0, 0, 1.4882463216781616, -6.59689998626709, -0.16053509712219238
18743, 0.02930676005780697, -0.3202541768550873, -0.10546909272670746, -0.02619215101003647, -0.18797937035560608, -0.06389608979225159, -0.0013804342597723007, -0.005512692499905825, 0.9991735816001892, 1.4882463216781616, -6.59689998626709, -0.16053509712219238, 0.0, 0.0, 0.0, 0, 0, 0, 0, 0, 0, 1.4915428161621094, -6.605476379394531, -0.1607840359210968
18753, 0.030276566743850708, -0.32022812962532043, -0.10655145347118378, 0.04523671418428421, 0.015547176823019981, -0.1768445521593094, -0.0016626722645014524, -0.004766171332448721, 0.9998393058776855, 1.4915428161621094, -6.605476379394531, -0.1607840359210968, 0.0, 0.0, 0.0, 0, 0, 0, 0, 0, 0, 1.4948434829711914, -6.614058494567871, -0.16103379428386688
18763, 0.030016744509339333, -0.31875401735305786, -0.1070520207285881, -0.12874245643615723, -0.23506352305412292, -0.10583043098449707, -0.003022724762558937, -0.005526483524590731, 0.9996124505996704, 1.4948434829711914, -6.614058494567871, -0.16103379428386688, 0.0, 0.0, 0.0, 0, 0, 0, 0, 0, 0, 1.4981472492218018, -6.622645854949951, -0.16128401458263397
18773, 0.028538109734654427, -0.32006388902664185, -0.1056552529335022, -0.10661569982767105, 0.4128447473049164, 0.25024935603141785, -0.003244110383093357, -0.0034813929814845324, 1.0012129545211792, 1.4981472492218018, -6.622645854949951, -0.16128401458263397, 0.0, 0.0, 0.0, 0, 0, 0, 0, 0, 0, 1.5014536380767822, -6.6312384605407715, -0.16153396666049957
18783, 0.028430404141545296, -0.3202122747898102, -0.10503403097391129, -0.09353769570589066, 0.13493727147579193, 0.08035769313573837, -0.0028623647522181273, -0.005095598753541708, 1.001395583152771, 1.5014536380767822, -6.6312384605407715, -0.16153396666049957, 0.0, 0.0, 0.0, 0, 0, 0, 0, 0, 0, 1.5047626495361328, -6.639835834503174, -0.16178260743618011
18793, 0.02886640466749668, -0.3216879069805145, -0.10481671988964081, 0.012493846006691456, 0.2884053885936737, -0.03905237093567848, -0.001139461644925177, -0.00536486366763711, 0.999530553817749, 1.5047626495361328, -6.639835834503174, -0.16178260743618011, 0.0, 0.0, 0.0, 0, 0, 0, 0, 0, 0, 1.50807523727417, -6.648438453674316, -0.162030428647995
18803, 0.029392709955573082, -0.3211545944213867, -0.105224609375, 0.09486830234527588, 0.17181318998336792, -0.026439616456627846, -0.0023079104721546173, -0.004080065060406923, 1.0023142099380493, 1.50807523727417, -6.648438453674316, -0.162030428647995, 0.0, 0.0, 0.0, 0, 0, 0, 0, 0, 0, 1.511391520500183, -6.657046318054199, -0.16227731108665466
18813, 0.028760254383087158, -0.32158738374710083, -0.10493254661560059, -0.19416213035583496, -0.033293966203927994, 0.06611859798431396, -0.00023403170052915812, -0.0051154401153326035, 0.9995223879814148, 1.511391520500183, -6.657046318054199, -0.16227731108665466, 0.0, 0.0, 0.0, 0, 0, 0, 0, 0, 0, 1.514711856842041, -6.665659427642822, -0.16252321004867554
18823, 0.0301841888576746, -0.3210391104221344, -0.10431032627820969, 0.175573468208313, -0.022896941751241684, 0.1995847374200821, -0.0011220138985663652, -0.005095961503684521, 0.99961256980896, 1.514711856842041, -6.665659427642822, -0.16252321004867554, 0.0, 0.0, 0.0, 0, 0, 0, 0, 0, 0, 1.518036961555481, -6.6742777824401855, -0.16276894509792328
