timeTick, roll, pitch, yaw, gyroX, gyroY, gyroZ, accX, accY, accZ, stateX, stateY, stateZ, target_x, target_y, target_z, otX, otY, otZ, otRoll, otPitch, otYaw, kalX, kalY, kalZ
11036, 0.034246399998664856, -0.1968482881784439, 0.011169488541781902, 0, 0, 0, 0, 0, 0, 0, 0, 0, 0, 0, 0, 0, 0, 0, 0, 0, 0, 0, 0, 0
11046, 0.03366328403353691, -0.19861027598381042, 0.011216712184250355, -0.06163973733782768, -0.0020322997588664293, -0.008492239750921726, 0.014040478505194187, 0.0019757202826440334, 1.0024328231811523, 4.686350345611572, 1.0306209325790405, -0.08388922363519669, 0.0, 0.0, 0.0, 0, 0, 0, 0, 0, 0, 4.69835090637207, 1.0332515239715576, -0.08399628847837448
11056, 0.03271617740392685, -0.1976037472486496, 0.010865984484553337, -0.07989118248224258, -0.14710633456707, -0.0221251193434, 0.014249772764742374, 0.004976766183972359, 0.9979553818702698, 4.69835090637207, 1.0332515239715576, -0.08399628847837448, 0.0, 0.0, 0.0, 0, 0, 0, 0, 0, 0, 4.710368633270264, 1.0358846187591553, -0.08410225808620453
11066, 0.03244398906826973, -0.1966027021408081, 0.010757332667708397, -0.07075989246368408, -0.19121472537517548, 0.031306810677051544, 0.01230977475643158, 0.004238867666572332, 0.9981405138969421, 4.710368633270264, 1.0358846187591553, -0.08410225808620453, 0.0, 0.0, 0.0, 0, 0, 0, 0, 0, 0, 4.722403526306152, 1.0385215282440186, -0.08420977741479874
11076, 0.03202499449253082, -0.19646427035331726, 0.010122180916368961, -0.08931628614664078, 0.05762435495853424, 0.02967177703976631, 0.008994338102638721, 0.005448094569146633, 1.0008147954940796, 4.722403526306152, 1.0385215282440186, -0.08420977741479874, 0.0, 0.0, 0.0, 0, 0, 0, 0, 0, 0, 4.734452724456787, 1.0411626100540161, -0.08431815356016159
11086, 0.03212946653366089, -0.1953519880771637, 0.00917944684624672, 0.08079975098371506, -0.22722356021404266, -0.171457901597023, 0.01110910065472126, 0.0054215360432863235, 0.9986851215362549, 4.734452724456787, 1.0411626100540161, -0.08431815356016159, 0.0, 0.0, 0.0, 0, 0, 0, 0, 0, 0, 4.746515274047852, 1.0438083410263062, -0.08442670851945877
11096, 0.03275496885180473, -0.19577792286872864, 0.008343472145497799, 0.05345330759882927, 0.03641307353973389, -0.07094807922840118, 0.013177446089684963, 0.006586689036339521, 1.0000053644180298, 4.746515274047852, 1.0438083410263062, -0.08442670851945877, 0.0, 0.0, 0.0, 0, 0, 0, 0, 0, 0, 4.75859260559082, 1.046459436416626, -0.08453588932752609
11106, 0.032165754586458206, -0.1972934752702713, 0.007929683662950993, -0.20182396471500397, 0.2458532452583313, -0.10547969490289688, 0.013666234910488129, 0.0034523014910519123, 1.000844955444336, 4.75859260559082, 1.046459436416626, -0.08453588932752609, 0.0, 0.0, 0.0, 0, 0, 0, 0, 0, 0, 4.770686149597168, 1.0491153001785278, -0.0846448615193367
11116, 0.031879208981990814, -0.1972980499267578, 0.007067546248435974, 0.014512336812913418, 0.0035439636558294296, 0.037347786128520966, 0.013553778640925884, 0.002172027016058564, 1.0010316371917725, 4.770686149597168, 1.0491153001785278, -0.0846448615193367, 0.0, 0.0, 0.0, 0, 0, 0, 0, 0, 0, 4.782796382904053, 1.0517735481262207, -0.08475307375192642
11126, 0.033362265676259995, -0.1986895054578781, 0.007876458577811718, 0.2825523614883423, 0.09080521762371063, 0.1544526219367981, 0.013457739725708961, 0.004611556883901358, 0.9996165037155151, 4.782796382904053, 1.0517735481262207, -0.08475307375192642, 0.0, 0.0, 0.0, 0, 0, 0, 0, 0, 0, 4.794923305511475, 1.0544344186782837, -0.08486105501651764
11136, 0.0335707888007164, -0.19871337711811066, 0.008241867646574974, 0.013135861605405807, -0.0769554078578949, 0.10811974853277206, 0.015330269001424313, 0.003758716396987438, 0.9984661936759949, 4.794923305511475, 1.0544344186782837, -0.08486105501651764, 0.0, 0.0, 0.0, 0, 0, 0, 0, 0, 0, 4.807067394256592, 1.0570988655090332, -0.08496947586536407
11146, 0.033885542303323746, -0.1977282464504242, 0.0083227613940835, -0.014521476812660694, -0.03176551312208176, -0.13168230652809143, 0.01334691233932972, 0.0030714813619852066, 0.9979155659675598, 4.807067394256592, 1.0570988655090332, -0.08496947586536407, 0.0, 0.0, 0.0, 0, 0, 0, 0, 0, 0, 4.8192291259765625, 1.059766173362732, -0.08507920056581497
11156, 0.03354649245738983, -0.19803565740585327, 0.007743148598819971, 0.03419830650091171, 0.05643372982740402, -0.06833697855472565, 0.013483166694641113, 0.003714399179443717, 0.9999812841415405, 4.8192291259765625, 1.059766173362732, -0.08507920056581497, 0.0, 0.0, 0.0, 0, 0, 0, 0, 0, 0, 4.83140754699707, 1.0624361038208008, -0.08519019186496735
11166, 0.032912611961364746, -0.1984279900789261, 0.008029908873140812, -0.09952064603567123, -0.11229736357927322, 0.09557225555181503, 0.013251115567982197, 0.004056346137076616, 0.9996067881584167, 4.83140754699707, 1.0624361038208008, -0.08519019186496735, 0.0, 0.0, 0.0, 0, 0, 0, 0, 0, 0, 4.843602180480957, 1.065109133720398, -0.08530155569314957
11176, 0.03279726207256317, -0.2004411816596985, 0.007591690868139267, -0.0787380188703537, 0.33183231949806213, -0.20695215463638306, 0.014141585677862167, 0.0022143549285829067, 1.0008004903793335, 4.843602180480957, 1.065109133720398, -0.08530155569314957, 0.0, 0.0, 0.0, 0, 0, 0, 0, 0, 0, 4.855813503265381, 1.0677851438522339, -0.08541279286146164
11186, 0.0332014337182045, -0.20219257473945618, 0.007739419117569923, 0.1127660870552063, 0.23425914347171783, 0.19715936481952667, 0.012977302074432373, 0.0030823885463178158, 1.0001723766326904, 4.855813503265381, 1.0677851438522339, -0.08541279286146164, 0.0, 0.0, 0.0, 0, 0, 0, 0, 0, 0, 4.868041515350342, 1.0704632997512817, -0.0855235680937767
11196, 0.033350784331560135, -0.2025880664587021, 0.007249641697853804, 0.03957322612404823, -0.00946755986660719, 0.056235410273075104, 0.012089152820408344, 0.004438946954905987, 1.000633955001831, 4.868041515350342, 1.0704632997512817, -0.0855235680937767, 0.0, 0.0, 0.0, 0, 0, 0, 0, 0, 0, 4.880285739898682, 1.0731443166732788, -0.08563407510519028
11206, 0.032787539064884186, -0.1996116191148758, 0.005891941487789154, 0.004239045083522797, -0.18831704556941986, -0.11843286454677582, 0.012063726782798767, 0.00514950742945075, 1.0031388998031616, 4.880285739898682, 1.0731443166732788, -0.08563407510519028, 0.0, 0.0, 0.0, 0, 0, 0, 0, 0, 0, 4.892545700073242, 1.0758295059204102, -0.08574318140745163
11216, 0.03236807510256767, -0.19978532195091248, 0.005808770190924406, -0.16315314173698425, 0.1718965470790863, -0.09317002445459366, 0.013757196255028248, 0.004807792138308287, 1.0007646083831787, 4.892545700073242, 1.0758295059204102, -0.08574318140745163, 0.0, 0.0, 0.0, 0, 0, 0, 0, 0, 0, 4.904821395874023, 1.0785189867019653, -0.08585012704133987
11226, 0.03164372593164444, -0.19848521053791046, 0.005164685193449259, -0.014165724627673626, -0.14179790019989014, -0.22069790959358215, 0.015835775062441826, 0.006021554581820965, 1.0002918243408203, 4.904821395874023, 1.0785189867019653, -0.08585012704133987, 0.0, 0.0, 0.0, 0, 0, 0, 0, 0, 0, 4.9171142578125, 1.0812129974365234, -0.08595623821020126
11236, 0.030404815450310707, -0.19858284294605255, 0.005596397444605827, -0.18894395232200623, 0.17044410109519958, 0.11330237239599228, 0.014088278636336327, 0.005491174757480621, 1.0018972158432007, 4.9171142578125, 1.0812129974365234, -0.08595623821020126, 0.0, 0.0, 0.0, 0, 0, 0, 0, 0, 0, 4.929425239562988, 1.0839117765426636, -0.08606147766113281
11246, 0.03136923909187317, -0.20097194612026215, 0.006574340630322695, 0.06004878133535385, 0.1458730250597, 0.28452783823013306, 0.013942648656666279, 0.0024545793421566486, 1.0003695487976074, 4.929425239562988, 1.0839117765426636, -0.08606147766113281, 0.0, 0.0, 0.0, 0, 0, 0, 0, 0, 0, 4.94175386428833, 1.0866143703460693, -0.08616553246974945
11256, 0.03166684880852699, -0.20276759564876556, 0.006997594144195318, -0.08149122446775436, 0.31261903047561646, 0.33210256695747375, 0.012634030543267727, 0.005488989874720573, 1.000466227531433, 4.94175386428833, 1.0866143703460693, -0.08616553246974945, 0.0, 0.0, 0.0, 0, 0, 0, 0, 0, 0, 4.954099178314209, 1.0893205404281616, -0.08626899123191833
11266, 0.0333835631608963, -0.20279362797737122, 0.007027532905340195, 0.1845540553331375, 0.05758229270577431, -0.04469785839319229, 0.012086951173841953, 0.0054584708996117115, 0.9980736970901489, 4.954099178314209, 1.0893205404281616, -0.08626899123191833, 0.0, 0.0, 0.0, 0, 0, 0, 0, 0, 0, 4.966460227966309, 1.0920310020446777, -0.08637306839227676
11276, 0.03417796269059181, -0.20048999786376953, 0.006565805058926344, 0.07152111828327179, -0.3136540651321411, -0.017066292464733124, 0.014293605461716652, 0.004294384270906448, 0.9994274377822876, 4.966460227966309, 1.0920310020446777, -0.08637306839227676, 0.0, 0.0, 0.0, 0, 0, 0, 0, 0, 0, 4.978837490081787, 1.0947458744049072, -0.08647867292165756
11286, 0.034596022218465805, -0.2022668868303299, 0.008275849744677544, 0.028509188443422318, 0.15068334341049194, 0.04949179291725159, 0.014218653552234173, 0.0037982237990945578, 1.0003961324691772, 4.978837490081787, 1.0947458744049072, -0.08647867292165756, 0.0, 0.0, 0.0, 0, 0, 0, 0, 0, 0, 4.991231918334961, 1.0974642038345337, -0.08658470958471298
11296, 0.03378672897815704, -0.20390987396240234, 0.009061697870492935, -0.1419341266155243, 0.13382820785045624, 0.06762629747390747, 0.013508198782801628, 0.0037518723402172327, 1.0007688999176025, 4.991231918334961, 1.0974642038345337, -0.08658470958471298, 0.0, 0.0, 0.0, 0, 0, 0, 0, 0, 0, 5.00364351272583, 1.1001858711242676, -0.0866902619600296
11306, 0.03427305072546005, -0.20401285588741302, 0.010001692920923233, 0.08327284455299377, -0.07884301245212555, 0.08978908509016037, 0.0140554653480649, 0.005353251937776804, 1.0009403228759766, 5.00364351272583, 1.1001858711242676, -0.0866902619600296, 0.0, 0.0, 0.0, 0, 0, 0, 0, 0, 0, 5.016071796417236, 1.102911353111267, -0.08679519593715668
11316, 0.03332604095339775, -0.20363877713680267, 0.008078278042376041, -0.19545753300189972, 0.0017001022351905704, -0.3094850778579712, 0.012275328859686852, 0.003232131013646722, 1.0011504888534546, 5.016071796417236, 1.102911353111267, -0.08679519593715668, 0.0, 0.0, 0.0, 0, 0, 0, 0, 0, 0, 5.02851676940918, 1.1056405305862427, -0.08689937740564346
11326, 0.033189769834280014, -0.2035735696554184, 0.007881121709942818, 0.06745479255914688, -0.00456742150709033, -0.008148888126015663, 0.012810886837542057, 0.0047906250692903996, 0.9983463883399963, 5.02851676940918, 1.1056405305862427, -0.08689937740564346, 0.0, 0.0, 0.0, 0, 0, 0, 0, 0, 0, 5.040977954864502, 1.1083731651306152, -0.08700335770845413
11336, 0.03283141180872917, -0.20427997410297394, 0.0070867077447474, -0.17658916115760803, 0.14133405685424805, -0.2105642557144165, 0.01349876169115305, 0.006927799433469772, 0.9971466660499573, 5.040977954864502, 1.1083731651306152, -0.08700335770845413, 0.0, 0.0, 0.0, 0, 0, 0, 0, 0, 0, 5.053455352783203, 1.1111104488372803, -0.08710895478725433
11346, 0.033090196549892426, -0.2061966508626938, 0.007242694962769747, 0.0014017962384968996, 0.18781615793704987, 0.16451871395111084, 0.011677924543619156, 0.007155771367251873, 0.9988591074943542, 5.053455352783203, 1.1111104488372803, -0.08710895478725433, 0.0, 0.0, 0.0, 0, 0, 0, 0, 0, 0, 5.065948963165283, 1.1138538122177124, -0.08721653372049332
11356, 0.03257941082119942, -0.20625193417072296, 0.007090901490300894, 0.013117712922394276, -0.13251571357250214, 0.005123810842633247, 0.013552848249673843, 0.004705470521003008, 0.9979010820388794, 5.065948963165283, 1.1138538122177124, -0.08721653372049332, 0.0, 0.0, 0.0, 0, 0, 0, 0, 0, 0, 5.078458309173584, 1.116602897644043, -0.0873255804181099
11366, 0.03349902480840683, -0.20815154910087585, 0.009575075469911098, 0.17136798799037933, 0.22714641690254211, 0.36205124855041504, 0.017286552116274834, 0.004504460375756025, 1.0015228986740112, 5.078458309173584, 1.116602897644043, -0.0873255804181099, 0.0, 0.0, 0.0, 0, 0, 0, 0, 0, 0, 5.090985298156738, 1.1193561553955078, -0.08743534982204437
11376, 0.03280135989189148, -0.2085137963294983, 0.009890716522932053, -0.08308085054159164, 0.0968497097492218, 0.0670333132147789, 0.014672748744487762, 0.002501570386812091, 1.0001598596572876, 5.090985298156738, 1.1193561553955078, -0.08743534982204437, 0.0, 0.0, 0.0, 0, 0, 0, 0, 0, 0, 5.103531360626221, 1.12211275100708, -0.08754458278417587
11386, 0.03327678516507149, -0.20823632180690765, 0.010068989358842373, -0.05638004094362259, 0.08968367427587509, 0.09115438908338547, 0.013408592902123928, 0.0029305173084139824, 0.9990730881690979, 5.103531360626221, 1.12211275100708, -0.08754458278417587, 0.0, 0.0, 0.0, 0, 0, 0, 0, 0, 0, 5.116095066070557, 1.1248719692230225, -0.08765389770269394
11396, 0.03386254236102104, -0.20739145576953888, 0.00978709477931261, 0.07132965326309204, 0.025140443816781044, -0.030988125130534172, 0.014957666397094727, 0.005656389053910971, 1.0009697675704956, 5.116095066070557, 1.1248719692230225, -0.08765389770269394, 0.0, 0.0, 0.0, 0, 0, 0, 0, 0, 0, 5.128675937652588, 1.1276341676712036, -0.08776327222585678
11406, 0.03321103751659393, -0.2067338228225708, 0.01077469065785408, -0.010833708569407463, -0.10451335459947586, 0.11298050731420517, 0.013646038249135017, 0.0031048960518091917, 0.9989539980888367, 5.128675937652588, 1.1276341676712036, -0.08776327222585678, 0.0, 0.0, 0.0, 0, 0, 0, 0, 0, 0, 5.141274452209473, 1.1304000616073608, -0.0878724530339241
11416, 0.03270824998617172, -0.20874722301959991, 0.011015736497938633, -0.11732673645019531, 0.39765214920043945, 0.011983874253928661, 0.012517974711954594, 0.002876873593777418, 0.9983888864517212, 5.141274452209473, 1.1304000616073608, -0.0878724530339241, 0.0, 0.0, 0.0, 0, 0, 0, 0, 0, 0, 5.1538896560668945, 1.1331686973571777, -0.08798256516456604
11426, 0.03285324200987816, -0.20636118948459625, 0.010982323437929153, -0.06359647959470749, -0.22477740049362183, -0.10744776576757431, 0.013330609537661076, 0.004627761896699667, 0.9992084503173828, 5.1538896560668945, 1.1331686973571777, -0.08798256516456604, 0.0, 0.0, 0.0, 0, 0, 0, 0, 0, 0, 5.1665215492248535, 1.1359403133392334, -0.0880938395857811
11436, 0.034078553318977356, -0.20505480468273163, 0.010486273095011711, 0.2916436493396759, -0.09436891227960587, -0.02194911427795887, 0.014116582460701466, 0.003855565097182989, 0.999412477016449, 5.1665215492248535, 1.1359403133392334, -0.0880938395857811, 0.0, 0.0, 0.0, 0, 0, 0, 0, 0, 0, 5.17917013168335, 1.138715386390686, -0.08820577710866928
11446, 0.03300369903445244, -0.20359909534454346, 0.010684216395020485, -0.056474849581718445, -0.2272464781999588, 0.031306393444538116, 0.013890240341424942, 0.0040298993699252605, 0.9976204633712769, 5.17917013168335, 1.138715386390686, -0.08820577710866928, 0.0, 0.0, 0.0, 0, 0, 0, 0, 0, 0, 5.191836357116699, 1.141493797302246, -0.08831913769245148
11456, 0.03327091410756111, -0.20541438460350037, 0.011489562690258026, 0.06883180141448975, 0.2600974142551422, 0.09115730226039886, 0.012414930388331413, 0.005315937101840973, 0.998029351234436, 5.191836357116699, 1.141493797302246, -0.08831913769245148, 0.0, 0.0, 0.0, 0, 0, 0, 0, 0, 0, 5.204518795013428, 1.1442762613296509, -0.088434599339962
11466, 0.03324773535132408, -0.20561206340789795, 0.012763524428009987, -0.12634927034378052, -0.03515922650694847, 0.1389547735452652, 0.013144232332706451, 0.004350993316620588, 0.9998130798339844, 5.204518795013428, 1.1442762613296509, -0.088434599339962, 0.0, 0.0, 0.0, 0, 0, 0, 0, 0, 0, 5.217217445373535, 1.14706289768219, -0.08855126798152924
11476, 0.03339614346623421, -0.20596109330654144, 0.01214313693344593, 0.0005200355662964284, 0.055689193308353424, -0.14505380392074585, 0.013442585244774818, 0.0051050204783678055, 1.0003856420516968, 5.217217445373535, 1.14706289768219, -0.08855126798152924, 0.0, 0.0, 0.0, 0, 0, 0, 0, 0, 0, 5.22993278503418, 1.1498537063598633, -0.08866815268993378
11486, 0.03432903438806534, -0.2047489583492279, 0.01175954844802618, 0.09048663079738617, -0.28212466835975647, -0.13798892498016357, 0.012194245122373104, 0.004396866075694561, 1.0000174045562744, 5.22993278503418, 1.1498537063598633, -0.08866815268993378, 0.0, 0.0, 0.0, 0, 0, 0, 0, 0, 0, 5.242664337158203, 1.15264892578125, -0.08878491818904877
11496, 0.034179363399744034, -0.20428180694580078, 0.01187850534915924, 0.11485449224710464, -0.18184490501880646, -0.0019038483733311296, 0.012277036905288696, 0.0048593757674098015, 1.0011533498764038, 5.242664337158203, 1.15264892578125, -0.08878491818904877, 0.0, 0.0, 0.0, 0, 0, 0, 0, 0, 0, 5.255411624908447, 1.155448317527771, -0.08890129625797272
11506, 0.033863604068756104, -0.20522472262382507, 0.011148348450660706, 0.02363763004541397, 0.26379841566085815, -0.09732405841350555, 0.013607506640255451, 0.0021149911917746067, 1.0005104541778564, 5.255411624908447, 1.155448317527771, -0.08890129625797272, 0.0, 0.0, 0.0, 0, 0, 0, 0, 0, 0, 5.26817512512207, 1.1582509279251099, -0.08901669085025787
11516, 0.03362438082695007, -0.2055548131465912, 0.011237887665629387, -0.16904082894325256, 0.0965418592095375, 0.020325466990470886, 0.013228563591837883, 0.0023595434613525867, 1.0005106925964355, 5.26817512512207, 1.1582509279251099, -0.08901669085025787, 0.0, 0.0, 0.0, 0, 0, 0, 0, 0, 0, 5.280954837799072, 1.161055326461792, -0.08913122117519379
11526, 0.03367717191576958, -0.2044684737920761, 0.01007707230746746, 0.14148728549480438, -0.2968830466270447, -0.08177032321691513, 0.01480307150632143, 0.002974817529320717, 0.9997075796127319, 5.280954837799072, 1.161055326461792, -0.08913122117519379, 0.0, 0.0, 0.0, 0, 0, 0, 0, 0, 0, 5.2937517166137695, 1.1638615131378174, -0.08924544602632523
11536, 0.03282513841986656, -0.20551903545856476, 0.009289355017244816, -0.08468545973300934, -0.019862312823534012, 0.035551704466342926, 0.014097001403570175, 0.004553938750177622, 1.0011839866638184, 5.2937517166137695, 1.1638615131378174, -0.08924544602632523, 0.0, 0.0, 0.0, 0, 0, 0, 0, 0, 0, 5.30656623840332, 1.166670322418213, -0.08935937285423279
11546, 0.03140610456466675, -0.20741862058639526, 0.00936114601790905, -0.21202629804611206, 0.22974878549575806, 0.11130259931087494, 0.013595296069979668, 0.0066616530530154705, 1.0037416219711304, 5.30656623840332, 1.166670322418213, -0.08935937285423279, 0.0, 0.0, 0.0, 0, 0, 0, 0, 0, 0, 5.319397926330566, 1.1694835424423218, -0.08947151154279709
11556, 0.031158316880464554, -0.20887665450572968, 0.00975675880908966, -0.025669896975159645, 0.08441033959388733, 0.07591929286718369, 0.012597514316439629, 0.004666130058467388, 1.0008325576782227, 5.319397926330566, 1.1694835424423218, -0.08947151154279709, 0.0, 0.0, 0.0, 0, 0, 0, 0, 0, 0, 5.33224630355835, 1.1723018884658813, -0.08958115428686142
11566, 0.031747784465551376, -0.20738975703716278, 0.009759343229234219, 0.16220881044864655, -0.327292799949646, -0.007412021514028311, 0.011465857736766338, 0.0045330217108130455, 0.9966639280319214, 5.33224630355835, 1.1723018884658813, -0.08958115428686142, 0.0, 0.0, 0.0, 0, 0, 0, 0, 0, 0, 5.3451104164123535, 1.1751244068145752, -0.08969128131866455
11576, 0.03235948085784912, -0.20518727600574493, 0.008275729604065418, 0.0210452601313591, -0.13092003762722015, -0.1589658111333847, 0.012499538250267506, 0.003963429946452379, 1.0004874467849731, 5.3451104164123535, 1.1751244068145752, -0.08969128131866455, 0.0, 0.0, 0.0, 0, 0, 0, 0, 0, 0, 5.35798978805542, 1.1779505014419556, -0.0898030549287796
11586, 0.03313899785280228, -0.20754721760749817, 0.007196252699941397, 0.06273366510868073, 0.39771926403045654, -0.19491450488567352, 0.01194958109408617, 0.00409306026995182, 1.0014238357543945, 5.35798978805542, 1.1779505014419556, -0.0898030549287796, 0.0, 0.0, 0.0, 0, 0, 0, 0, 0, 0, 5.370884418487549, 1.180780053138733, -0.0899142175912857
11596, 0.033227454870939255, -0.20655709505081177, 0.00658441474661231, -0.012288917787373066, -0.20863410830497742, -0.06637508422136307, 0.013868048787117004, 0.00318543310277164, 1.000770926475525, 5.370884418487549, 1.180780053138733, -0.0899142175912857, 0.0, 0.0, 0.0, 0, 0, 0, 0, 0, 0, 5.383794784545898, 1.1836127042770386, -0.09002401679754257
11606, 0.03390151262283325, -0.20974785089492798, 0.007031717803329229, 0.056610751897096634, 0.257394403219223, -0.0171523354947567, 0.012969977222383022, 0.0027539327275007963, 0.9992710947990417, 5.383794784545898, 1.1836127042770386, -0.09002401679754257, 0.0, 0.0, 0.0, 0, 0, 0, 0, 0, 0, 5.396721839904785, 1.1864477396011353, -0.09013347327709198
11616, 0.03483003377914429, -0.21151255071163177, 0.007621095050126314, 0.07905346155166626, 0.20502246916294098, 0.16152092814445496, 0.013851121068000793, 0.0040763732977211475, 0.9988830089569092, 5.396721839904785, 1.1864477396011353, -0.09013347327709198, 0.0, 0.0, 0.0, 0, 0, 0, 0, 0, 0, 5.409665584564209, 1.1892856359481812, -0.0902436152100563
11626, 0.035301145166158676, -0.2129153311252594, 0.008495001122355461, 0.16900984942913055, 0.2554906904697418, 0.04688607528805733, 0.013971948064863682, 0.002871173433959484, 0.9974524974822998, 5.409665584564209, 1.1892856359481812, -0.0902436152100563, 0.0, 0.0, 0.0, 0, 0, 0, 0, 0, 0, 5.42262601852417, 1.1921263933181763, -0.09035514295101166
11636, 0.034639835357666016, -0.2122141420841217, 0.009360349737107754, -0.27608445286750793, 0.010640237480401993, -0.25145646929740906, 0.010946039110422134, 0.004093043506145477, 0.9967457056045532, 5.42262601852417, 1.1921263933181763, -0.09035514295101166, 0.0, 0.0, 0.0, 0, 0, 0, 0, 0, 0, 5.43560266494751, 1.194969892501831, -0.0904691144824028
11646, 0.033833060413599014, -0.21411336958408356, 0.009349300526082516, -0.04631517827510834, 0.08561603724956512, 0.19495004415512085, 0.010860198177397251, 0.0040632449090480804, 0.9995384216308594, 5.43560266494751, 1.194969892501831, -0.0904691144824028, 0.0, 0.0, 0.0, 0, 0, 0, 0, 0, 0, 5.448594093322754, 1.1978166103363037, -0.09058550745248795
11656, 0.034155476838350296, -0.21584877371788025, 0.007286603096872568, 0.04634939134120941, 0.21177123486995697, -0.282163143157959, 0.010372546501457691, 0.003568297950550914, 0.9997420310974121, 5.448594093322754, 1.1978166103363037, -0.09058550745248795, 0.0, 0.0, 0.0, 0, 0, 0, 0, 0, 0, 5.461599826812744, 1.2006665468215942, -0.0907026082277298
11666, 0.03379872441291809, -0.21457605063915253, 0.006447719410061836, -0.14563678205013275, -0.19894656538963318, 0.05562017858028412, 0.012620062567293644, 0.003346117679029703, 0.9989376664161682, 5.461599826812744, 1.2006665468215942, -0.0907026082277298, 0.0, 0.0, 0.0, 0, 0, 0, 0, 0, 0, 5.4746198654174805, 1.2035191059112549, -0.09081999212503433
11676, 0.03268597647547722, -0.21507684886455536, 0.00742710055783391, -0.039036016911268234, -0.07097454369068146, 0.1917082518339157, 0.013184729963541031, 0.005640622694045305, 0.9987686276435852, 5.4746198654174805, 1.2035191059112549, -0.09081999212503433, 0.0, 0.0, 0.0, 0, 0, 0, 0, 0, 0, 5.4876556396484375, 1.2063748836517334, -0.09093819558620453
11686, 0.032373227179050446, -0.21503163874149323, 0.005724320188164711, -0.17025913298130035, -0.052952446043491364, -0.27054423093795776, 0.013485702686011791, 0.006407369859516621, 1.0004616975784302, 5.4876556396484375, 1.2063748836517334, -0.09093819558620453, 0.0, 0.0, 0.0, 0, 0, 0, 0, 0, 0, 5.500708103179932, 1.209235429763794, -0.0910569503903389
11696, 0.03256124258041382, -0.21499566733837128, 0.005715665407478809, -0.02028494141995907, 0.24728085100650787, 0.11497028917074203, 0.013241508044302464, 0.006056651007384062, 1.0005297660827637, 5.500708103179932, 1.209235429763794, -0.0910569503903389, 0.0, 0.0, 0.0, 0, 0, 0, 0, 0, 0, 5.513777732849121, 1.2121015787124634, -0.09117548167705536
11706, 0.03143632039427757, -0.2140413373708725, 0.006054252851754427, -0.20753102004528046, 0.01981024630367756, 0.2212069183588028, 0.012726936489343643, 0.0050697471015155315, 0.9998874068260193, 5.513777732849121, 1.2121015787124634, -0.09117548167705536, 0.0, 0.0, 0.0, 0, 0, 0, 0, 0, 0, 5.5268635749816895, 1.214972972869873, -0.0912938341498375
11716, 0.032372694462537766, -0.21694345772266388, 0.007190582808107138, 0.055607397109270096, 0.36547020077705383, 0.1930975615978241, 0.010278970934450626, 0.003414524719119072, 0.999713659286499, 5.5268635749816895, 1.214972972869873, -0.0912938341498375, 0.0, 0.0, 0.0, 0, 0, 0, 0, 0, 0, 5.541275978088379, 1.2181364297866821, -0.09142432361841202
11726, 0.032005589455366135, -0.21754203736782074, 0.007557926699519157, -0.06604059785604477, 0.06527961790561676, 0.04231083765625954, 0.01335191261023283, 0.002099966397508979, 0.9985643029212952, 5.541275978088379, 1.2181364297866821, -0.09142432361841202, 0.0, 0.0, 0.0, 0, 0, 0, 0, 0, 0, 5.554394245147705, 1.2210149765014648, -0.09154342859983444
11736, 0.031367331743240356, -0.21830317378044128, 0.0067893145605921745, -0.06068361923098564, 0.23910561203956604, -0.1899181455373764, 0.012703434564173222, 0.0030750432051718235, 0.9991939067840576, 5.554394245147705, 1.2210149765014648, -0.09154342859983444, 0.0, 0.0, 0.0, 0, 0, 0, 0, 0, 0, 5.567529201507568, 1.22389554977417, -0.09166353940963745
11746, 0.03135199472308159, -0.21857966482639313, 0.007755726110190153, -0.07111521065235138, 0.04942277818918228, 0.016971005126833916, 0.01347909402102232, 0.004634280223399401, 1.002809762954712, 5.567529201507568, 1.22389554977417, -0.09166353940963745, 0.0, 0.0, 0.0, 0, 0, 0, 0, 0, 0, 5.580680847167969, 1.2267789840698242, -0.09178335219621658
11756, 0.03077569603919983, -0.21915782988071442, 0.007148991338908672, -0.012908436357975006, 0.1381508708000183, 0.14000700414180756, 0.013265189714729786, 0.005044258665293455, 1.000580072402954, 5.580680847167969, 1.2267789840698242, -0.09178335219621658, 0.0, 0.0, 0.0, 0, 0, 0, 0, 0, 0, 5.593849182128906, 1.2296663522720337, -0.09190158545970917
11766, 0.03003545105457306, -0.219717875123024, 0.006055117584764957, -0.045833978801965714, 0.18065916001796722, -0.08871743828058243, 0.012095375917851925, 0.004243936855345964, 0.999088704586029, 5.593849182128906, 1.2296663522720337, -0.09190158545970917, 0.0, 0.0, 0.0, 0, 0, 0, 0, 0, 0, 5.593849182128906, 1.2296663522720337, -0.09190158545970917
11776, 0.029680514708161354, -0.21870222687721252, 0.005989115685224533, 0.010370914824306965, -0.11669068783521652, 0.05086638405919075, 0.010292204096913338, 0.0062581924721598625, 0.9992585182189941, 5.607034206390381, 1.2325576543807983, -0.09201932698488235, 0.0, 0.0, 0.0, 0, 0, 0, 0, 0, 0, 5.620234489440918, 1.2354533672332764, -0.09213759005069733
11786, 0.02867552638053894, -0.2211507260799408, 0.006513915024697781, -0.02171851135790348, 0.19706083834171295, 0.20285826921463013, 0.011149322614073753, 0.005928785540163517, 1.0000073909759521, 5.620234489440918, 1.2354533672332764, -0.09213759005069733, 0.0, 0.0, 0.0, 0, 0, 0, 0, 0, 0, 5.620234489440918, 1.2354533672332764, -0.09213759005069733
11796, 0.027245135977864265, -0.2231748253107071, 0.005462436471134424, -0.13595005869865417, 0.331694632768631, -0.19180704653263092, 0.014850703999400139, 0.0032669941429048777, 1.0011671781539917, 5.633449077606201, 1.2383544445037842, -0.09225615859031677, 0.0, 0.0, 0.0, 0, 0, 0, 0, 0, 0, 5.633449077606201, 1.2383544445037842, -0.09225615859031677
11806, 0.027284864336252213, -0.22319099307060242, 0.004843532107770443, 0.047619130462408066, -0.04568029195070267, -0.07399971783161163, 0.013034476898610592, 0.004463363438844681, 1.0018702745437622, 5.648003578186035, 1.2415504455566406, -0.09238594025373459, 0.0, 0.0, 0.0, 0, 0, 0, 0, 0, 0, 5.648003578186035, 1.2415504455566406, -0.09238594025373459
11816, 0.026622481644153595, -0.22405876219272614, 0.005449701566249132, -0.048801060765981674, 0.19111819565296173, 0.11877897381782532, 0.014869761653244495, 0.0037862693425267935, 1.001656174659729, 5.661253452301025, 1.2444595098495483, -0.09250246733427048, 0.0, 0.0, 0.0, 0, 0, 0, 0, 0, 0, 5.661253452301025, 1.2444595098495483, -0.09250246733427048
11826, 0.026830609887838364, -0.22382918000221252, 0.00386197492480278, 0.044284772127866745, -0.09824054688215256, -0.22198450565338135, 0.01204395666718483, 0.004698583390563726, 1.0011940002441406, 5.674520969390869, 1.247372031211853, -0.09261733293533325, 0.0, 0.0, 0.0, 0, 0, 0, 0, 0, 0, 5.674520969390869, 1.247372031211853, -0.09261733293533325
11836, 0.027086835354566574, -0.22674910724163055, 0.005532620009034872, 0.07858851552009583, 0.44536054134368896, 0.28680485486984253, 0.012985192239284515, 0.00331478170119226, 1.0009442567825317, 5.687805652618408, 1.2502881288528442, -0.09273085743188858, 0.0, 0.0, 0.0, 0, 0, 0, 0, 0, 0, 5.687805652618408, 1.2502881288528442, -0.09273085743188858
11846, 0.02642066404223442, -0.22609631717205048, 0.004078385420143604, -0.06383442878723145, -0.15827222168445587, -0.09514995664358139, 0.013231816701591015, 0.0025156275369226933, 0.9999852776527405, 5.701106548309326, 1.2532075643539429, -0.09284348040819168, 0.0, 0.0, 0.0, 0, 0, 0, 0, 0, 0, 5.701106548309326, 1.2532075643539429, -0.09284348040819168
11856, 0.025579538196325302, -0.22705411911010742, 0.0036175025161355734, -0.08825819939374924, 0.21774399280548096, -0.009342203848063946, 0.013884929940104485, 0.004343807697296143, 1.0009914636611938, 5.714424133300781, 1.2561297416687012, -0.09295563399791718, 0.0, 0.0, 0.0, 0, 0, 0, 0, 0, 0, 5.714424133300781, 1.2561297416687012, -0.09295563399791718
11866, 0.025128642097115517, -0.229119211435318, 0.004848899785429239, -0.09192731976509094, 0.32507097721099854, -0.07143646478652954, 0.011733976192772388, 0.00389071274548769, 1.001186490058899, 5.727758884429932, 1.2590548992156982, -0.09306720644235611, 0.0, 0.0, 0.0, 0, 0, 0, 0, 0, 0, 5.727758884429932, 1.2590548992156982, -0.09306720644235611
11876, 0.02537624165415764, -0.22783569991588593, 0.005566908046603203, 0.07326263934373856, -0.20432396233081818, -0.015248915180563927, 0.01230611652135849, 0.0053031835705041885, 0.9986960887908936, 5.741110324859619, 1.2619837522506714, -0.09317784011363983, 0.0, 0.0, 0.0, 0, 0, 0, 0, 0, 0, 5.741110324859619, 1.2619837522506714, -0.09317784011363983
11886, 0.02528785541653633, -0.228143110871315, 0.005940264090895653, -0.040528472512960434, 0.06110825762152672, -0.06984720379114151, 0.012612998485565186, 0.0046737054362893105, 0.9998537302017212, 5.754477500915527, 1.2649166584014893, -0.09328843653202057, 0.0, 0.0, 0.0, 0, 0, 0, 0, 0, 0, 5.754477500915527, 1.2649166584014893, -0.09328843653202057
11896, 0.02472561039030552, -0.2278798520565033, 0.005826921202242374, -0.019495952874422073, -0.06264001131057739, -0.00010175416537094861, 0.012300851754844189, 0.0034354275558143854, 1.0000568628311157, 5.767860412597656, 1.26785409450531, -0.09339956194162369, 0.0, 0.0, 0.0, 0, 0, 0, 0, 0, 0, 5.767860412597656, 1.26785409450531, -0.09339956194162369
11906, 0.02563435025513172, -0.22838439047336578, 0.005890707019716501, 0.13190588355064392, 0.1795148104429245, 0.027439914643764496, 0.01230891514569521, 0.0020965333096683025, 0.9998293519020081, 5.781259536743164, 1.2707951068878174, -0.0935106948018074, 0.0, 0.0, 0.0, 0, 0, 0, 0, 0, 0, 5.781259536743164, 1.2707951068878174, -0.0935106948018074
11916, 0.025759318843483925, -0.22880423069000244, 0.00811153743416071, -0.04243796691298485, 0.05604934319853783, 0.34451353549957275, 0.011881749145686626, 0.002062237588688731, 1.001125693321228, 5.794674396514893, 1.2737385034561157, -0.09362177550792694, 0.0, 0.0, 0.0, 0, 0, 0, 0, 0, 0, 5.794674396514893, 1.2737385034561157, -0.09362177550792694
11926, 0.025637956336140633, -0.23028849065303802, 0.01033245399594307, 0.019978052005171776, 0.05611221119761467, 0.30360373854637146, 0.011471809819340706, 0.0010964159155264497, 0.9992713928222656, 5.80810546875, 1.2766833305358887, -0.09373246133327484, 0.0, 0.0, 0.0, 0, 0, 0, 0, 0, 0, 5.80810546875, 1.2766833305358887, -0.09373246133327484
11936, 0.026495182886719704, -0.2308536022901535, 0.011575387790799141, 0.15578307211399078, 0.09411444514989853, 0.09464515745639801, 0.010426715947687626, 0.0024565812200307846, 0.9991332292556763, 5.82155179977417, 1.2796292304992676, -0.09384297579526901, 0.0, 0.0, 0.0, 0, 0, 0, 0, 0, 0, 5.82155179977417, 1.2796292304992676, -0.09384297579526901
11946, 0.02717036008834839, -0.23080725967884064, 0.010071508586406708, 0.12640519440174103, 0.030548011884093285, -0.28445807099342346, 0.01426818035542965, 0.003682888811454177, 1.0008058547973633, 5.835012912750244, 1.2825764417648315, -0.09395425021648407, 0.0, 0.0, 0.0, 0, 0, 0, 0, 0, 0, 5.835012912750244, 1.2825764417648315, -0.09395425021648407
11956, 0.02699912339448929, -0.23078525066375732, 0.009913715533912182, 0.048347193747758865, 0.05340883135795593, -0.15689536929130554, 0.013540077023208141, 0.002976296003907919, 0.9997547268867493, 5.848490238189697, 1.2855263948440552, -0.09406571090221405, 0.0, 0.0, 0.0, 0, 0, 0, 0, 0, 0, 5.848490238189697, 1.2855263948440552, -0.09406571090221405
11966, 0.02752719633281231, -0.22920720279216766, 0.010200987569987774, 0.1507156938314438, -0.3466169834136963, -0.01871088147163391, 0.012833652086555958, 0.00565433781594038, 0.998378574848175, 5.861985206604004, 1.2884793281555176, -0.09417697787284851, 0.0, 0.0, 0.0, 0, 0, 0, 0, 0, 0, 5.861985206604004, 1.2884793281555176, -0.09417697787284851
11976, 0.02791511081159115, -0.22969311475753784, 0.010056770406663418, 0.12592527270317078, 0.15229381620883942, -0.015360877849161625, 0.011025802232325077, 0.004349687602370977, 0.9990093111991882, 5.875496864318848, 1.291435956954956, -0.09428912401199341, 0.0, 0.0, 0.0, 0, 0, 0, 0, 0, 0, 5.875496864318848, 1.291435956954956, -0.09428912401199341
11986, 0.026942068710923195, -0.22924399375915527, 0.011147771961987019, -0.05099203810095787, -0.06932417303323746, 0.15417981147766113, 0.01277327723801136, 0.002926289103925228, 1.0017505884170532, 5.88902473449707, 1.2943968772888184, -0.09440247714519501, 0.0, 0.0, 0.0, 0, 0, 0, 0, 0, 0, 5.88902473449707, 1.2943968772888184, -0.09440247714519501
11996, 0.027669649571180344, -0.22957734763622284, 0.011035109870135784, 0.1294812560081482, -0.09721840918064117, -0.053493864834308624, 0.013506647199392319, 0.004502677358686924, 1.000735878944397, 5.902568340301514, 1.2973610162734985, -0.09451565891504288, 0.0, 0.0, 0.0, 0, 0, 0, 0, 0, 0, 5.902568340301514, 1.2973610162734985, -0.09451565891504288
12006, 0.02860007807612419, -0.22957147657871246, 0.011449717916548252, 0.03271026536822319, 0.06499925255775452, -0.019584087654948235, 0.01176310796290636, 0.0032084628473967314, 0.9983428120613098, 5.916128158569336, 1.3003281354904175, -0.09462800621986389, 0.0, 0.0, 0.0, 0, 0, 0, 0, 0, 0, 5.916128158569336, 1.3003281354904175, -0.09462800621986389
12016, 0.029282130300998688, -0.23081974685192108, 0.009826128371059895, 0.04910033568739891, 0.18090832233428955, -0.21535678207874298, 0.013282384723424911, 0.004075247794389725, 0.9992799758911133, 5.929704666137695, 1.3032983541488647, -0.0947408601641655, 0.0, 0.0, 0.0, 0, 0, 0, 0, 0, 0, 5.929704666137695, 1.3032983541488647, -0.0947408601641655
12026, 0.029386717826128006, -0.23013317584991455, 0.011354239657521248, -0.002219980815425515, -0.05576849356293678, 0.14547497034072876, 0.013299921527504921, 0.004592725541442633, 0.9981489777565002, 5.943297386169434, 1.3062715530395508, -0.09485487639904022, 0.0, 0.0, 0.0, 0, 0, 0, 0, 0, 0, 5.943297386169434, 1.3062715530395508, -0.09485487639904022
12036, 0.02839924767613411, -0.23055657744407654, 0.011586872860789299, -0.24096882343292236, -0.06778267025947571, -0.060018643736839294, 0.013633204624056816, 0.004137233830988407, 1.0005066394805908, 5.956907272338867, 1.3092483282089233, -0.09497008472681046, 0.0, 0.0, 0.0, 0, 0, 0, 0, 0, 0, 5.956907272338867, 1.3092483282089233, -0.09497008472681046
12046, 0.028763508424162865, -0.23264895379543304, 0.01268350426107645, 0.05839937552809715, 0.3097681999206543, 0.061845868825912476, 0.014420024119317532, 0.004611480515450239, 1.0028986930847168, 5.970534324645996, 1.312228798866272, -0.0950857400894165, 0.0, 0.0, 0.0, 0, 0, 0, 0, 0, 0, 5.970534324645996, 1.312228798866272, -0.0950857400894165
12056, 0.029262186959385872, -0.23385237157344818, 0.012709825299680233, 0.1431480199098587, 0.055110931396484375, 0.07930219918489456, 0.013907910324633121, 0.005233882460743189, 1.0011006593704224, 5.9841790199279785, 1.3152129650115967, -0.09519971907138824, 0.0, 0.0, 0.0, 0, 0, 0, 0, 0, 0, 5.9841790199279785, 1.3152129650115967, -0.09519971907138824
12066, 0.029178129509091377, -0.23216350376605988, 0.011496694758534431, -0.10788033902645111, -0.11855851858854294, -0.10811235755681992, 0.014389678835868835, 0.00509609142318368, 0.9995787143707275, 5.9978413581848145, 1.3182013034820557, -0.09531156718730927, 0.0, 0.0, 0.0, 0, 0, 0, 0, 0, 0, 5.9978413581848145, 1.3182013034820557, -0.09531156718730927
12076, 0.02980247512459755, -0.2316008359193802, 0.012437832541763783, 0.08457369357347488, -0.10531545430421829, 0.23018500208854675, 0.012817311100661755, 0.0044267731718719006, 0.9989702701568604, 6.011521816253662, 1.321194052696228, -0.09542285650968552, 0.0, 0.0, 0.0, 0, 0, 0, 0, 0, 0, 6.011521816253662, 1.321194052696228, -0.09542285650968552
12086, 0.030555222183465958, -0.23291005194187164, 0.012589888647198677, 0.1518266648054123, 0.1923852264881134, 0.09696801006793976, 0.012646719813346863, 0.004144845064729452, 0.9984924793243408, 6.025219440460205, 1.3241908550262451, -0.09553483873605728, 0.0, 0.0, 0.0, 0, 0, 0, 0, 0, 0, 6.025219440460205, 1.3241908550262451, -0.09553483873605728
12096, 0.030213406309485435, -0.2332262396812439, 0.013632857240736485, -0.14106832444667816, 0.041084177792072296, 0.14998383820056915, 0.013413578271865845, 0.004957688041031361, 0.9999125003814697, 6.038933753967285, 1.3271914720535278, -0.09564809501171112, 0.0, 0.0, 0.0, 0, 0, 0, 0, 0, 0, 6.038933753967285, 1.3271914720535278, -0.09564809501171112
12106, 0.029414111748337746, -0.22956067323684692, 0.013426534831523895, -0.0988885760307312, -0.43280309438705444, -0.002812500111758709, 0.014331412501633167, 0.0029873521998524666, 1.0014322996139526, 6.052664756774902, 1.3301960229873657, -0.0957622155547142, 0.0, 0.0, 0.0, 0, 0, 0, 0, 0, 0, 6.052664756774902, 1.3301960229873657, -0.0957622155547142
12116, 0.029561391100287437, -0.22892242670059204, 0.01422685943543911, 0.12107747048139572, -0.012590860016644001, 0.12609995901584625, 0.013604748994112015, 0.005569515284150839, 0.9996874332427979, 6.066413402557373, 1.333203911781311, -0.0958758145570755, 0.0, 0.0, 0.0, 0, 0, 0, 0, 0, 0, 6.066413402557373, 1.333203911781311, -0.0958758145570755
12126, 0.02897275798022747, -0.2284490019083023, 0.014761233702301979, -0.056061141192913055, -0.07720964401960373, -0.021396052092313766, 0.011624998413026333, 0.003142300061881542, 0.9989690780639648, 6.080179691314697, 1.3362152576446533, -0.09598887711763382, 0.0, 0.0, 0.0, 0, 0, 0, 0, 0, 0, 6.080179691314697, 1.3362152576446533, -0.09598887711763382
12136, 0.02988913282752037, -0.22889505326747894, 0.015720626339316368, -0.004443825222551823, 0.11568379402160645, 0.14670728147029877, 0.010647966526448727, 0.0031150998547673225, 1.0004478693008423, 6.0939621925354, 1.3392302989959717, -0.09610256552696228, 0.0, 0.0, 0.0, 0, 0, 0, 0, 0, 0, 6.0939621925354, 1.3392302989959717, -0.09610256552696228
12146, 0.02885558269917965, -0.22898723185062408, 0.01621425524353981, -0.2048768401145935, 0.06728625297546387, -0.05634061619639397, 0.012132109142839909, 0.004102665930986404, 1.0009769201278687, 6.107759952545166, 1.3422480821609497, -0.09621655941009521, 0.0, 0.0, 0.0, 0, 0, 0, 0, 0, 0, 6.107759952545166, 1.3422480821609497, -0.09621655941009521
12156, 0.028491562232375145, -0.22879038751125336, 0.016863033175468445, -0.05076386407017708, 0.05226503312587738, -0.11081600934267044, 0.013494177721440792, 0.0060691824182868, 0.9990369081497192, 6.121572494506836, 1.345268726348877, -0.09632991999387741, 0.0, 0.0, 0.0, 0, 0, 0, 0, 0, 0, 6.121572494506836, 1.345268726348877, -0.09632991999387741
12166, 0.027544714510440826, -0.23047874867916107, 0.016218392178416252, -0.06806368380784988, 0.3236103355884552, 0.025318646803498268, 0.011857643723487854, 0.0049077607691287994, 0.999870240688324, 6.135401725769043, 1.3482937812805176, -0.09644322097301483, 0.0, 0.0, 0.0, 0, 0, 0, 0, 0, 0, 6.135401725769043, 1.3482937812805176, -0.09644322097301483
12176, 0.02741141803562641, -0.23033004999160767, 0.016703879460692406, 0.06888236105442047, -0.09430718421936035, 0.016838539391756058, 0.01260621752589941, 0.0061097173020243645, 1.0001293420791626, 6.149247169494629, 1.3513236045837402, -0.09655703604221344, 0.0, 0.0, 0.0, 0, 0, 0, 0, 0, 0, 6.149247169494629, 1.3513236045837402, -0.09655703604221344
12186, 0.027974525466561317, -0.23001760244369507, 0.018007583916187286, 0.15068422257900238, -0.03559384122490883, 0.20852655172348022, 0.012054180726408958, 0.005544265266507864, 1.0008163452148438, 6.1631083488464355, 1.3543583154678345, -0.09667087346315384, 0.0, 0.0, 0.0, 0, 0, 0, 0, 0, 0, 6.1631083488464355, 1.3543583154678345, -0.09667087346315384
12196, 0.02780674397945404, -0.2310132086277008, 0.017626270651817322, -0.15200476348400116, 0.06803090870380402, -0.05078762397170067, 0.012962534092366695, 0.005131654441356659, 1.00023353099823, 6.176985740661621, 1.3573980331420898, -0.0967843309044838, 0.0, 0.0, 0.0, 0, 0, 0, 0, 0, 0, 6.176985740661621, 1.3573980331420898, -0.0967843309044838
12206, 0.027489665895700455, -0.23330436646938324, 0.018388686701655388, -0.05062316358089447, 0.23504965007305145, 0.21208535134792328, 0.012449109926819801, 0.0040643601678311825, 1.0009275674819946, 6.1908793449401855, 1.3604426383972168, -0.09689728915691376, 0.0, 0.0, 0.0, 0, 0, 0, 0, 0, 0, 6.1908793449401855, 1.3604426383972168, -0.09689728915691376
12216, 0.026900162920355797, -0.23372258245944977, 0.01947394572198391, -0.06601100414991379, 0.16510199010372162, 0.04982718825340271, 0.01228663045912981, 0.0031119270715862513, 0.9996735453605652, 6.204789161682129, 1.3634912967681885, -0.09700957685709, 0.0, 0.0, 0.0, 0, 0, 0, 0, 0, 0, 6.204789161682129, 1.3634912967681885, -0.09700957685709
12226, 0.027390485629439354, -0.23474431037902832, 0.019777990877628326, 0.07103490829467773, 0.09088434278964996, 0.1412339210510254, 0.012845643796026707, 0.004925807937979698, 1.0000998973846436, 6.218715190887451, 1.3665430545806885, -0.09712142497301102, 0.0, 0.0, 0.0, 0, 0, 0, 0, 0, 0, 6.218715190887451, 1.3665430545806885, -0.09712142497301102
12236, 0.026996370404958725, -0.23667100071907043, 0.019495218992233276, -0.1481868326663971, 0.33623620867729187, 0.07738881558179855, 0.01527408231049776, 0.002812914550304413, 1.0017311573028564, 6.232657432556152, 1.3695982694625854, -0.09723313897848129, 0.0, 0.0, 0.0, 0, 0, 0, 0, 0, 0, 6.232657432556152, 1.3695982694625854, -0.09723313897848129
12246, 0.02771516516804695, -0.23461543023586273, 0.01852731965482235, 0.07274556905031204, -0.28671976923942566, -0.18400456011295319, 0.013742090202867985, 0.0029201367869973183, 0.9998165369033813, 6.246617317199707, 1.3726565837860107, -0.09734392911195755, 0.0, 0.0, 0.0, 0, 0, 0, 0, 0, 0, 6.246617317199707, 1.3726565837860107, -0.09734392911195755
12256, 0.028317192569375038, -0.23267577588558197, 0.018611997365951538, 0.0025249423924833536, -0.1642451137304306, -0.02790386974811554, 0.013033393770456314, 0.004565994255244732, 0.999156653881073, 6.260595798492432, 1.3757174015045166, -0.09745386987924576, 0.0, 0.0, 0.0, 0, 0, 0, 0, 0, 0, 6.260595798492432, 1.3757174015045166, -0.09745386987924576
12266, 0.02899843640625477, -0.23231537640094757, 0.018704717978835106, 0.05457913130521774, 0.06777112931013107, -0.0596163235604763, 0.011514993384480476, 0.003297150833532214, 1.0007563829421997, 6.274591445922852, 1.3787814378738403, -0.09756401926279068, 0.0, 0.0, 0.0, 0, 0, 0, 0, 0, 0, 6.274591445922852, 1.3787814378738403, -0.09756401926279068
12276, 0.03017616458237171, -0.23212626576423645, 0.018007643520832062, 0.1739310324192047, -0.02609471045434475, -0.07550422102212906, 0.010348483920097351, 0.003897896036505699, 0.999527096748352, 6.288602828979492, 1.3818488121032715, -0.09767409414052963, 0.0, 0.0, 0.0, 0, 0, 0, 0, 0, 0, 6.288602828979492, 1.3818488121032715, -0.09767409414052963
12286, 0.030457383021712303, -0.23213410377502441, 0.019369561225175858, 0.12731251120567322, -0.22046935558319092, 0.18430393934249878, 0.010980612598359585, 0.005156421102583408, 0.9990434646606445, 6.302628993988037, 1.384919285774231, -0.09778403490781784, 0.0, 0.0, 0.0, 0, 0, 0, 0, 0, 0, 6.302628993988037, 1.384919285774231, -0.09778403490781784
12296, 0.030818508937954903, -0.232549250125885, 0.01870403252542019, 0.10484322160482407, -0.14753764867782593, -0.12588156759738922, 0.013207152485847473, 0.003953083883970976, 0.9992452263832092, 6.316669940948486, 1.387993574142456, -0.0978945940732956, 0.0, 0.0, 0.0, 0, 0, 0, 0, 0, 0, 6.316669940948486, 1.387993574142456, -0.0978945940732956
12306, 0.0317472405731678, -0.2323576807975769, 0.02080003172159195, 0.16379782557487488, -0.0017284909263253212, 0.2918201684951782, 0.014030094258487225, 0.002609431277960539, 1.0006452798843384, 6.330726623535156, 1.3910716772079468, -0.0980059877038002, 0.0, 0.0, 0.0, 0, 0, 0, 0, 0, 0, 6.330726623535156, 1.3910716772079468, -0.0980059877038002
12316, 0.03182020038366318, -0.2317933440208435, 0.020877128466963768, 0.00010604297858662903, -0.09109997749328613, 0.021945692598819733, 0.012306117452681065, 0.002717616269364953, 0.9977893233299255, 6.3448004722595215, 1.3941526412963867, -0.09811750799417496, 0.0, 0.0, 0.0, 0, 0, 0, 0, 0, 0, 6.3448004722595215, 1.3941526412963867, -0.09811750799417496
12326, 0.03161080181598663, -0.23354202508926392, 0.0223875492811203, -0.09373156726360321, 0.33164817094802856, 0.34135541319847107, 0.013084102421998978, 0.0032146130688488483, 0.9990759491920471, 6.358891487121582, 1.3972357511520386, -0.09822945296764374, 0.0, 0.0, 0.0, 0, 0, 0, 0, 0, 0, 6.358891487121582, 1.3972357511520386, -0.09822945296764374
12336, 0.030720405280590057, -0.23285725712776184, 0.02059904858469963, -0.19081780314445496, -0.06030697003006935, -0.24762867391109467, 0.012800260446965694, 0.004027428105473518, 0.9994320273399353, 6.3729987144470215, 1.4003214836120605, -0.09834267944097519, 0.0, 0.0, 0.0, 0, 0, 0, 0, 0, 0, 6.3729987144470215, 1.4003214836120605, -0.09834267944097519
12346, 0.030910713598132133, -0.23175260424613953, 0.022245153784751892, -0.04925203323364258, -0.06589768081903458, 0.17707088589668274, 0.014422746375203133, 0.004039187915623188, 1.0002859830856323, 6.387122631072998, 1.4034101963043213, -0.09845674782991409, 0.0, 0.0, 0.0, 0, 0, 0, 0, 0, 0, 6.387122631072998, 1.4034101963043213, -0.09845674782991409
12356, 0.031610969454050064, -0.23069411516189575, 0.02275886945426464, 0.045899081975221634, 0.08221856504678726, 0.09034698456525803, 0.013930349610745907, 0.0034375623799860477, 1.001844048500061, 6.40126371383667, 1.406502366065979, -0.09857089072465897, 0.0, 0.0, 0.0, 0, 0, 0, 0, 0, 0, 6.40126371383667, 1.406502366065979, -0.09857089072465897
12366, 0.03218798339366913, -0.22870463132858276, 0.02138182520866394, 0.06410200893878937, -0.0416293703019619, -0.28395453095436096, 0.013717505149543285, 0.004225039388984442, 1.0023378133773804, 6.4154229164123535, 1.4095977544784546, -0.09868399053812027, 0.0, 0.0, 0.0, 0, 0, 0, 0, 0, 0, 6.4154229164123535, 1.4095977544784546, -0.09868399053812027
12376, 0.03167909383773804, -0.22965829074382782, 0.02040633000433445, -0.05350491777062416, 0.1553976833820343, -0.15322691202163696, 0.013817238621413708, 0.005428565200418234, 0.99949049949646, 6.429599761962891, 1.4126962423324585, -0.09879512339830399, 0.0, 0.0, 0.0, 0, 0, 0, 0, 0, 0, 6.429599761962891, 1.4126962423324585, -0.09879512339830399
12386, 0.031908806413412094, -0.23110626637935638, 0.021575547754764557, 0.07091542333364487, 0.2790153920650482, 0.1462315171957016, 0.014119908213615417, 0.005654572509229183, 1.0000132322311401, 6.443794250488281, 1.4157986640930176, -0.09890525043010712, 0.0, 0.0, 0.0, 0, 0, 0, 0, 0, 0, 6.443794250488281, 1.4157986640930176, -0.09890525043010712
12396, 0.03207521513104439, -0.23158466815948486, 0.022554166615009308, -0.025326965376734734, 0.1264902949333191, 0.18368634581565857, 0.014734159223735332, 0.0027207783423364162, 1.0017342567443848, 6.458005905151367, 1.4189058542251587, -0.09901545196771622, 0.0, 0.0, 0.0, 0, 0, 0, 0, 0, 0, 6.458005905151367, 1.4189058542251587, -0.09901545196771622
12406, 0.03242482617497444, -0.231744647026062, 0.021694928407669067, 0.027298500761389732, 0.02475694753229618, 0.005863250698894262, 0.013766640797257423, 0.004247525241225958, 1.0000563859939575, 6.472235679626465, 1.4220167398452759, -0.09912485629320145, 0.0, 0.0, 0.0, 0, 0, 0, 0, 0, 0, 6.472235679626465, 1.4220167398452759, -0.09912485629320145
12416, 0.03244464099407196, -0.23201268911361694, 0.02305302955210209, -0.07902898639440536, -0.01593625359237194, 0.10331027209758759, 0.013131408952176571, 0.005715399514883757, 0.996697187423706, 6.486483573913574, 1.4251307249069214, -0.09923352301120758, 0.0, 0.0, 0.0, 0, 0, 0, 0, 0, 0, 6.486483573913574, 1.4251307249069214, -0.09923352301120758
12426, 0.03172186762094498, -0.23059715330600739, 0.023625096306204796, 0.0416678823530674, -0.13184301555156708, -0.006169652566313744, 0.016112638637423515, 0.002969437977299094, 1.0005766153335571, 6.500748634338379, 1.4282488822937012, -0.0993436649441719, 0.0, 0.0, 0.0, 0, 0, 0, 0, 0, 0, 6.500748634338379, 1.4282488822937012, -0.0993436649441719
12436, 0.031686682254076004, -0.23183223605155945, 0.02382684126496315, 0.1175898090004921, 0.27280133962631226, 0.19317182898521423, 0.013364128768444061, 0.0025910099502652884, 1.0012887716293335, 6.515031814575195, 1.4313706159591675, -0.09945526719093323, 0.0, 0.0, 0.0, 0, 0, 0, 0, 0, 0, 6.515031814575195, 1.4313706159591675, -0.09945526719093323
12446, 0.03138918802142143, -0.23060934245586395, 0.022301508113741875, 0.03223351016640663, -0.13786707818508148, -0.178050234913826, 0.011121192947030067, 0.002541967201977968, 1.0001899003982544, 6.529333591461182, 1.4344944953918457, -0.09956634044647217, 0.0, 0.0, 0.0, 0, 0, 0, 0, 0, 0, 6.529333591461182, 1.4344944953918457, -0.09956634044647217
12456, 0.031143076717853546, -0.23112155497074127, 0.02236746996641159, -0.03284402936697006, -0.08140997588634491, 0.04824264720082283, 0.013617709279060364, 0.002006042515859008, 1.000020146369934, 6.543652057647705, 1.4376204013824463, -0.09967666119337082, 0.0, 0.0, 0.0, 0, 0, 0, 0, 0, 0, 6.543652057647705, 1.4376204013824463, -0.09967666119337082
12466, 0.03136960789561272, -0.2326776683330536, 0.02315925993025303, -0.005250085145235062, 0.07524695992469788, 0.0846196711063385, 0.013512697070837021, 0.004412379581481218, 1.0000094175338745, 6.557986259460449, 1.4407482147216797, -0.09978680312633514, 0.0, 0.0, 0.0, 0, 0, 0, 0, 0, 0, 6.557986259460449, 1.4407482147216797, -0.09978680312633514
12476, 0.03166695684194565, -0.2334108203649521, 0.022438183426856995, 0.04505426064133644, 0.022822782397270203, -0.014373339712619781, 0.01384719554334879, 0.005330645013600588, 1.0011677742004395, 6.572337627410889, 1.4438787698745728, -0.09989702701568604, 0.0, 0.0, 0.0, 0, 0, 0, 0, 0, 0, 6.572337627410889, 1.4438787698745728, -0.09989702701568604
12486, 0.03284279257059097, -0.23428700864315033, 0.02191077172756195, 0.05617520213127136, 0.18983310461044312, -0.010672236792743206, 0.013692338019609451, 0.003252557246014476, 1.0010297298431396, 6.586706638336182, 1.447013020515442, -0.10000666230916977, 0.0, 0.0, 0.0, 0, 0, 0, 0, 0, 0, 6.586706638336182, 1.447013020515442, -0.10000666230916977
12496, 0.03255004063248634, -0.23421317338943481, 0.02256309799849987, 0.008945113979279995, 0.02961888536810875, 0.13522040843963623, 0.01367922406643629, 0.00294220051728189, 0.9993239045143127, 6.60109281539917, 1.450150966644287, -0.10011511296033859, 0.0, 0.0, 0.0, 0, 0, 0, 0, 0, 0, 6.60109281539917, 1.450150966644287, -0.10011511296033859
12506, 0.033307239413261414, -0.2336501181125641, 0.022927194833755493, 0.24583746492862701, -0.09436377137899399, 0.044590312987565994, 0.013014610856771469, 0.005080428905785084, 0.9992503523826599, 6.615496635437012, 1.4532915353775024, -0.10022316128015518, 0.0, 0.0, 0.0, 0, 0, 0, 0, 0, 0, 6.615496635437012, 1.4532915353775024, -0.10022316128015518
12516, 0.032951969653367996, -0.23337215185165405, 0.023728150874376297, 0.001248636981472373, -0.0629868358373642, 0.08709673583507538, 0.012108257971704006, 0.0025352404918521643, 0.9984893798828125, 6.629917621612549, 1.4564353227615356, -0.10033173859119415, 0.0, 0.0, 0.0, 0, 0, 0, 0, 0, 0, 6.629917621612549, 1.4564353227615356, -0.10033173859119415
12526, 0.03368520736694336, -0.23434510827064514, 0.024238336831331253, 0.051805529743433, 0.24156306684017181, 0.035339146852493286, 0.014145874418318272, 0.003121580695733428, 0.9979501366615295, 6.644354820251465, 1.4595823287963867, -0.10044140368700027, 0.0, 0.0, 0.0, 0, 0, 0, 0, 0, 0, 6.644354820251465, 1.4595823287963867, -0.10044140368700027
12536, 0.034278832376003265, -0.2352609634399414, 0.024841109290719032, 0.04530644789338112, 0.013612293638288975, 0.043263740837574005, 0.012196606956422329, 0.00607003690674901, 0.9998921155929565, 6.658809185028076, 1.4627317190170288, -0.10055263340473175, 0.0, 0.0, 0.0, 0, 0, 0, 0, 0, 0, 6.658809185028076, 1.4627317190170288, -0.10055263340473175
12546, 0.03435053676366806, -0.23767898976802826, 0.024877749383449554, -0.019131552428007126, 0.3530621826648712, -0.019022569060325623, 0.014632371254265308, 0.003879820229485631, 0.9996053576469421, 6.673280239105225, 1.4658846855163574, -0.10066495090723038, 0.0, 0.0, 0.0, 0, 0, 0, 0, 0, 0, 6.673280239105225, 1.4658846855163574, -0.10066495090723038
12556, 0.0338694229722023, -0.2379543036222458, 0.025043413043022156, -0.0784342810511589, 0.03336740657687187, 0.025522815063595772, 0.01388493087142706, 0.004330225754529238, 1.0013391971588135, 6.687768459320068, 1.4690420627593994, -0.10077765583992004, 0.0, 0.0, 0.0, 0, 0, 0, 0, 0, 0, 6.687768459320068, 1.4690420627593994, -0.10077765583992004
12566, 0.03457404673099518, -0.23774993419647217, 0.02505936287343502, 0.1382620930671692, -0.07488829642534256, 0.04388761147856712, 0.013254641555249691, 0.0054757739417254925, 1.0012034177780151, 6.702274322509766, 1.472203254699707, -0.10089005529880524, 0.0, 0.0, 0.0, 0, 0, 0, 0, 0, 0, 6.702274322509766, 1.472203254699707, -0.10089005529880524
12576, 0.034627027809619904, -0.2389131486415863, 0.02464679814875126, 0.03527170792222023, -0.06963372230529785, 0.004661942832171917, 0.012022684328258038, 0.003318269271403551, 1.00023353099823, 6.716797828674316, 1.4753684997558594, -0.1010012999176979, 0.0, 0.0, 0.0, 0, 0, 0, 0, 0, 0, 6.716797828674316, 1.4753684997558594, -0.1010012999176979
12586, 0.03529157117009163, -0.23923882842063904, 0.025372041389346123, 0.06787177920341492, -0.13010533154010773, 0.1357353925704956, 0.012665542773902416, 0.0030944524332880974, 0.9996926784515381, 6.731337547302246, 1.4785375595092773, -0.10111179202795029, 0.0, 0.0, 0.0, 0, 0, 0, 0, 0, 0, 6.731337547302246, 1.4785375595092773, -0.10111179202795029
12596, 0.03503543511033058, -0.2393697053194046, 0.025927362963557243, -0.11170315742492676, 0.06184270605444908, 0.06802080571651459, 0.011750494129955769, 0.0038600866682827473, 1.000558853149414, 6.745893955230713, 1.481709361076355, -0.10122237354516983, 0.0, 0.0, 0.0, 0, 0, 0, 0, 0, 0, 6.745893955230713, 1.481709361076355, -0.10122237354516983
12606, 0.03395426645874977, -0.2402917742729187, 0.02510514296591282, -0.20510157942771912, 0.26913484930992126, 0.0037230339366942644, 0.01177268661558628, 0.003858299693092704, 0.9993606805801392, 6.7604660987854, 1.4848839044570923, -0.10133302211761475, 0.0, 0.0, 0.0, 0, 0, 0, 0, 0, 0, 6.7604660987854, 1.4848839044570923, -0.10133302211761475
12616, 0.0341709665954113, -0.24016694724559784, 0.0237975362688303, 0.002070282818749547, -0.06745763123035431, -0.09027591347694397, 0.01237363088876009, 0.004953698720782995, 0.9975103735923767, 6.775053977966309, 1.4880616664886475, -0.1014438271522522, 0.0, 0.0, 0.0, 0, 0, 0, 0, 0, 0, 6.775053977966309, 1.4880616664886475, -0.1014438271522522
12626, 0.035102371126413345, -0.24049049615859985, 0.022955749183893204, 0.14892078936100006, -0.14089232683181763, -0.02840142697095871, 0.011881696991622448, 0.0033447067253291607, 0.996131956577301, 6.789658069610596, 1.4912432432174683, -0.10155613720417023, 0.0, 0.0, 0.0, 0, 0, 0, 0, 0, 0, 6.789658069610596, 1.4912432432174683, -0.10155613720417023
12636, 0.03490903973579407, -0.2401914894580841, 0.02484893426299095, -0.034938350319862366, -0.07751880586147308, 0.24440623819828033, 0.013541321270167828, 0.002848587231710553, 1.0003321170806885, 6.804278373718262, 1.4944283962249756, -0.10167152434587479, 0.0, 0.0, 0.0, 0, 0, 0, 0, 0, 0, 6.804278373718262, 1.4944283962249756, -0.10167152434587479
12646, 0.03486175835132599, -0.24005240201950073, 0.024471789598464966, 0.007255152333527803, 0.01917402260005474, -0.0760585367679596, 0.013901714235544205, 0.0037494399584829807, 1.000449776649475, 6.818915367126465, 1.497616171836853, -0.10178888589143753, 0.0, 0.0, 0.0, 0, 0, 0, 0, 0, 0, 6.818915367126465, 1.497616171836853, -0.10178888589143753
12656, 0.03540727496147156, -0.23837319016456604, 0.02471512369811535, 0.09122904390096664, -0.20384162664413452, -0.009427324868738651, 0.014436054043471813, 0.0026556793600320816, 0.9989041090011597, 6.8335700035095215, 1.5008066892623901, -0.1019061729311943, 0.0, 0.0, 0.0, 0, 0, 0, 0, 0, 0, 6.8335700035095215, 1.5008066892623901, -0.1019061729311943
12666, 0.0340685211122036, -0.23813419044017792, 0.026202097535133362, -0.2598230242729187, 0.20699428021907806, 0.07020626962184906, 0.013178917579352856, 0.0055487086065113544, 1.0019663572311401, 6.84824275970459, 1.503999948501587, -0.10202348232269287, 0.0, 0.0, 0.0, 0, 0, 0, 0, 0, 0, 6.84824275970459, 1.503999948501587, -0.10202348232269287
12676, 0.03338569402694702, -0.23659498989582062, 0.024329816922545433, -0.1547292172908783, -0.1606975644826889, -0.23733572661876678, 0.012611476704478264, 0.0042180949822068214, 0.9995034337043762, 6.862933158874512, 1.5071964263916016, -0.10214027762413025, 0.0, 0.0, 0.0, 0, 0, 0, 0, 0, 0, 6.862933158874512, 1.5071964263916016, -0.10214027762413025
12686, 0.03397102281451225, -0.23523901402950287, 0.024385979399085045, 0.08515551686286926, -0.05124124139547348, 0.023091934621334076, 0.012048213742673397, 0.0036138962022960186, 1.0005701780319214, 6.877640247344971, 1.5103965997695923, -0.1022564172744751, 0.0, 0.0, 0.0, 0, 0, 0, 0, 0, 0, 6.877640247344971, 1.5103965997695923, -0.1022564172744751
12696, 0.034048594534397125, -0.2347135692834854, 0.024032946676015854, -0.0993453711271286, -0.10630272328853607, -0.0848027840256691, 0.013816063292324543, 0.005636742804199457, 1.0026494264602661, 6.892363548278809, 1.5135999917984009, -0.1023724153637886, 0.0, 0.0, 0.0, 0, 0, 0, 0, 0, 0, 6.892363548278809, 1.5135999917984009, -0.1023724153637886
12706, 0.03487986698746681, -0.23344549536705017, 0.025624962523579597, -0.015856703743338585, -0.12174656987190247, 0.23005281388759613, 0.0126131447032094, 0.005448559299111366, 0.9993739724159241, 6.907103538513184, 1.5168074369430542, -0.10248707979917526, 0.0, 0.0, 0.0, 0, 0, 0, 0, 0, 0, 6.907103538513184, 1.5168074369430542, -0.10248707979917526
12716, 0.0349794439971447, -0.23343276977539062, 0.024877768009901047, 0.06833568960428238, 0.30805230140686035, -0.20259679853916168, 0.013762361370027065, 0.0046512954868376255, 0.998058021068573, 6.921860694885254, 1.5200198888778687, -0.10260085016489029, 0.0, 0.0, 0.0, 0, 0, 0, 0, 0, 0, 6.921860694885254, 1.5200198888778687, -0.10260085016489029
12726, 0.035514429211616516, -0.23454028367996216, 0.026878923177719116, 0.09265682101249695, 0.09696559607982635, 0.3033938705921173, 0.012944045476615429, 0.003534528426826, 0.9997072815895081, 6.936634540557861, 1.5232369899749756, -0.10271570086479187, 0.0, 0.0, 0.0, 0, 0, 0, 0, 0, 0, 6.936634540557861, 1.5232369899749756, -0.10271570086479187
12736, 0.03546450659632683, -0.23422713577747345, 0.026323281228542328, 0.0273119006305933, -0.029667755588889122, -0.022831400856375694, 0.011668073944747448, 0.0029288562946021557, 1.001979947090149, 6.951425552368164, 1.526457667350769, -0.10283161699771881, 0.0, 0.0, 0.0, 0, 0, 0, 0, 0, 0, 6.951425552368164, 1.526457667350769, -0.10283161699771881
12746, 0.03499703109264374, -0.23339250683784485, 0.027206026017665863, -0.0429101437330246, -0.0338045172393322, 0.1941690295934677, 0.009981955401599407, 0.004098019562661648, 1.0008689165115356, 6.966232776641846, 1.5296809673309326, -0.10294675081968307, 0.0, 0.0, 0.0, 0, 0, 0, 0, 0, 0, 6.966232776641846, 1.5296809673309326, -0.10294675081968307
12756, 0.0350978709757328, -0.23290030658245087, 0.02712670899927616, -0.007104956544935703, -0.135968416929245, 0.0423455610871315, 0.01181373093277216, 0.0025015161372721195, 0.9999220967292786, 6.981054782867432, 1.5329070091247559, -0.10306040942668915, 0.0, 0.0, 0.0, 0, 0, 0, 0, 0, 0, 6.981054782867432, 1.5329070091247559, -0.10306040942668915
12766, 0.035211823880672455, -0.23185858130455017, 0.02611796371638775, -0.06360656023025513, -0.20983347296714783, -0.04954225942492485, 0.013254701159894466, 0.0032482792157679796, 0.9985590577125549, 6.995891571044922, 1.5361356735229492, -0.10317358374595642, 0.0, 0.0, 0.0, 0, 0, 0, 0, 0, 0, 6.995891571044922, 1.5361356735229492, -0.10317358374595642
12776, 0.036048226058483124, -0.23047037422657013, 0.026559939607977867, -0.01692638173699379, -0.05935448780655861, 0.1051928699016571, 0.011155092157423496, 0.004773974884301424, 0.999484121799469, 7.010744094848633, 1.5393667221069336, -0.1032874658703804, 0.0, 0.0, 0.0, 0, 0, 0, 0, 0, 0, 7.010744094848633, 1.5393667221069336, -0.1032874658703804
12786, 0.034916333854198456, -0.2290124148130417, 0.025980763137340546, -0.2285851389169693, -0.21379277110099792, -0.16815577447414398, 0.012410173192620277, 0.003968528937548399, 1.0010290145874023, 7.025612831115723, 1.5426008701324463, -0.10340236872434616, 0.0, 0.0, 0.0, 0, 0, 0, 0, 0, 0, 7.025612831115723, 1.5426008701324463, -0.10340236872434616
12796, 0.03551478683948517, -0.23009060323238373, 0.025643641129136086, -0.06659023463726044, 0.232434943318367, -0.08396544307470322, 0.009216063655912876, 0.005799767095595598, 1.0009814500808716, 7.040496826171875, 1.545838713645935, -0.10351720452308655, 0.0, 0.0, 0.0, 0, 0, 0, 0, 0, 0, 7.040496826171875, 1.545838713645935, -0.10351720452308655
12806, 0.03463682904839516, -0.2287912368774414, 0.025241337716579437, -0.23239265382289886, -0.0938652753829956, -0.01882908307015896, 0.012233746238052845, 0.005389770958572626, 0.9993576407432556, 7.055395603179932, 1.549080729484558, -0.1036311462521553, 0.0, 0.0, 0.0, 0, 0, 0, 0, 0, 0, 7.055395603179932, 1.549080729484558, -0.1036311462521553
12816, 0.03518413379788399, -0.22792841494083405, 0.024837428703904152, 0.13543541729450226, -0.01618596725165844, -0.15918806195259094, 0.015196960419416428, 0.0036988931242376566, 0.9996386170387268, 7.070309162139893, 1.5523275136947632, -0.10374490916728973, 0.0, 0.0, 0.0, 0, 0, 0, 0, 0, 0, 7.070309162139893, 1.5523275136947632, -0.10374490916728973
12826, 0.035172779113054276, -0.22891980409622192, 0.0254506915807724, 0.08203388750553131, 0.21196985244750977, 0.018013769760727882, 0.013420430943369865, 0.003162594512104988, 1.0000073909759521, 7.085239887237549, 1.5555781126022339, -0.10385911911725998, 0.0, 0.0, 0.0, 0, 0, 0, 0, 0, 0, 7.085239887237549, 1.5555781126022339, -0.10385911911725998
12836, 0.03615688532590866, -0.22604118287563324, 0.02515697292983532, 0.2917613387107849, -0.5042781829833984, 0.032931871712207794, 0.01449533924460411, 0.002024589106440544, 0.9987122416496277, 7.100188255310059, 1.5588314533233643, -0.10397345572710037, 0.0, 0.0, 0.0, 0, 0, 0, 0, 0, 0, 7.100188255310059, 1.5588314533233643, -0.10397345572710037
12846, 0.03530367091298103, -0.22732611000537872, 0.023797471076250076, -0.02893034741282463, 0.2802521288394928, 0.00789699051529169, 0.014438885264098644, 0.002321648644283414, 1.0004597902297974, 7.115154266357422, 1.5620867013931274, -0.10408832877874374, 0.0, 0.0, 0.0, 0, 0, 0, 0, 0, 0, 7.115154266357422, 1.5620867013931274, -0.10408832877874374
12856, 0.035704344511032104, -0.22750502824783325, 0.02413756772875786, 0.050317052751779556, -0.03689227253198624, 0.20829781889915466, 0.013344199396669865, 0.0032331536058336496, 1.00172758102417, 7.130138397216797, 1.5653434991836548, -0.10420364141464233, 0.0, 0.0, 0.0, 0, 0, 0, 0, 0, 0, 7.130138397216797, 1.5653434991836548, -0.10420364141464233
12866, 0.03593007102608681, -0.22922278940677643, 0.023248882964253426, -0.006464452017098665, 0.18859648704528809, 0.041114918887615204, 0.011573662050068378, 0.0035376863088458776, 0.9990121722221375, 7.145139694213867, 1.568602442741394, -0.10431811213493347, 0.0, 0.0, 0.0, 0, 0, 0, 0, 0, 0, 7.145139694213867, 1.568602442741394, -0.10431811213493347
12876, 0.036055922508239746, -0.23020391166210175, 0.02364138886332512, 0.019394559785723686, -0.16406594216823578, 0.18120622634887695, 0.01166889350861311, 0.0032367289531975985, 0.9991668462753296, 7.160157203674316, 1.571864128112793, -0.10443209111690521, 0.0, 0.0, 0.0, 0, 0, 0, 0, 0, 0, 7.160157203674316, 1.571864128112793, -0.10443209111690521
12886, 0.03674986585974693, -0.23017552495002747, 0.024957599118351936, -0.006667949724942446, -0.025968827307224274, 0.14757312834262848, 0.014203530736267567, 0.004163559526205063, 0.9977167248725891, 7.175189971923828, 1.5751286745071411, -0.1045466810464859, 0.0, 0.0, 0.0, 0, 0, 0, 0, 0, 0, 7.175189971923828, 1.5751286745071411, -0.1045466810464859
12896, 0.03684433922171593, -0.23182976245880127, 0.026167776435613632, -0.07927987724542618, 0.10185562074184418, 0.07373329252004623, 0.014662648551166058, 0.0040308283641934395, 1.0002524852752686, 7.190239429473877, 1.578396201133728, -0.10466260462999344, 0.0, 0.0, 0.0, 0, 0, 0, 0, 0, 0, 7.190239429473877, 1.578396201133728, -0.10466260462999344
12906, 0.03628544881939888, -0.23447011411190033, 0.027048058807849884, -0.06563588976860046, 0.2958415746688843, 0.2205115258693695, 0.012573608197271824, 0.002514447784051299, 1.0013576745986938, 7.2053070068359375, 1.581667184829712, -0.1047794371843338, 0.0, 0.0, 0.0, 0, 0, 0, 0, 0, 0, 7.2053070068359375, 1.581667184829712, -0.1047794371843338
12916, 0.03536931052803993, -0.23606562614440918, 0.025882752612233162, -0.09277333319187164, 0.19995515048503876, -0.2429405003786087, 0.012719362042844296, 0.005139846820384264, 1.000605583190918, 7.220391750335693, 1.5849409103393555, -0.10489555448293686, 0.0, 0.0, 0.0, 0, 0, 0, 0, 0, 0, 7.220391750335693, 1.5849409103393555, -0.10489555448293686
12926, 0.034826505929231644, -0.2343861162662506, 0.02585546113550663, -0.050336968153715134, -0.17500586807727814, -0.03273341804742813, 0.013390687294304371, 0.0050608497112989426, 0.9995010495185852, 7.235493183135986, 1.5882177352905273, -0.10501087456941605, 0.0, 0.0, 0.0, 0, 0, 0, 0, 0, 0, 7.235493183135986, 1.5882177352905273, -0.10501087456941605
12936, 0.0344090461730957, -0.23438672721385956, 0.025746740400791168, -0.10506081581115723, 0.033291611820459366, -0.051207490265369415, 0.013129773549735546, 0.003361844690516591, 0.9993751645088196, 7.250611305236816, 1.591498851776123, -0.10512620210647583, 0.0, 0.0, 0.0, 0, 0, 0, 0, 0, 0, 7.250611305236816, 1.591498851776123, -0.10512620210647583
12946, 0.03464261442422867, -0.23375998437404633, 0.0259330365806818, 0.06645792722702026, -0.06659117341041565, -0.028230471536517143, 0.011729670688509941, 0.004780575167387724, 0.9979808926582336, 7.265746593475342, 1.5947837829589844, -0.10524193942546844, 0.0, 0.0, 0.0, 0, 0, 0, 0, 0, 0, 7.265746593475342, 1.5947837829589844, -0.10524193942546844
12956, 0.035095758736133575, -0.23307986557483673, 0.02505318820476532, 0.15878713130950928, -0.05915874242782593, -0.021033285185694695, 0.013379990123212337, 0.0032186300959438086, 0.9991547465324402, 7.280898094177246, 1.5980722904205322, -0.10535883903503418, 0.0, 0.0, 0.0, 0, 0, 0, 0, 0, 0, 7.280898094177246, 1.5980722904205322, -0.10535883903503418
12966, 0.034589897841215134, -0.23272627592086792, 0.02419024333357811, -0.10405152291059494, 0.01847226917743683, -0.027194758877158165, 0.012674998492002487, 0.005106599070131779, 0.9984248876571655, 7.2960662841796875, 1.6013641357421875, -0.10547711700201035, 0.0, 0.0, 0.0, 0, 0, 0, 0, 0, 0, 7.2960662841796875, 1.6013641357421875, -0.10547711700201035
12976, 0.034232787787914276, -0.23251937329769135, 0.023962192237377167, -0.0721261277794838, 0.06219688430428505, 0.047941550612449646, 0.012719912454485893, 0.005317977163940668, 1.0007251501083374, 7.311251163482666, 1.6046597957611084, -0.10559654235839844, 0.0, 0.0, 0.0, 0, 0, 0, 0, 0, 0, 7.311251163482666, 1.6046597957611084, -0.10559654235839844
12986, 0.034555383026599884, -0.23206990957260132, 0.025026462972164154, 0.052677229046821594, -0.17304256558418274, 0.25032714009284973, 0.01240378525108099, 0.001849799300543964, 0.9991827011108398, 7.326452732086182, 1.6079598665237427, -0.10571646690368652, 0.0, 0.0, 0.0, 0, 0, 0, 0, 0, 0, 7.326452732086182, 1.6079598665237427, -0.10571646690368652
12996, 0.034200605005025864, -0.23323437571525574, 0.02553512342274189, -0.0709344893693924, 0.16735489666461945, 0.04180179163813591, 0.012881049886345863, 0.0016640996327623725, 0.9980130791664124, 7.341670513153076, 1.6112629175186157, -0.10583654046058655, 0.0, 0.0, 0.0, 0, 0, 0, 0, 0, 0, 7.341670513153076, 1.6112629175186157, -0.10583654046058655
13006, 0.03446371480822563, -0.2352685183286667, 0.027352485805749893, -0.02412232756614685, 0.39951086044311523, 0.4479530155658722, 0.013913804665207863, 0.0030981271993368864, 1.0008519887924194, 7.35690450668335, 1.6145672798156738, -0.10595784336328506, 0.0, 0.0, 0.0, 0, 0, 0, 0, 0, 0, 7.35690450668335, 1.6145672798156738, -0.10595784336328506
13016, 0.033480510115623474, -0.23453961312770844, 0.026585416868329048, -0.19330035150051117, -0.12658904492855072, -0.040985386818647385, 0.012819532305002213, 0.0017805108800530434, 1.0005087852478027, 7.372155666351318, 1.617873191833496, -0.10607978701591492, 0.0, 0.0, 0.0, 0, 0, 0, 0, 0, 0, 7.372155666351318, 1.617873191833496, -0.10607978701591492
13026, 0.034109119325876236, -0.2339727133512497, 0.025310492143034935, 0.13560642302036285, -0.16083915531635284, -0.06881704181432724, 0.012322504073381424, 0.0029157516546547413, 0.9993019700050354, 7.387423515319824, 1.6211808919906616, -0.1062011867761612, 0.0, 0.0, 0.0, 0, 0, 0, 0, 0, 0, 7.387423515319824, 1.6211808919906616, -0.1062011867761612
13036, 0.03432660549879074, -0.23211686313152313, 0.024840399622917175, 0.11649808287620544, -0.15037116408348083, 0.007640023250132799, 0.013386850245296955, 0.0017670518718659878, 0.9996600151062012, 7.402708053588867, 1.6244902610778809, -0.10632264614105225, 0.0, 0.0, 0.0, 0, 0, 0, 0, 0, 0, 7.402708053588867, 1.6244902610778809, -0.10632264614105225
13046, 0.03460555151104927, -0.23099714517593384, 0.0244755819439888, 0.09917069226503372, -0.05219573527574539, -0.00705578550696373, 0.013409414328634739, 0.003596000373363495, 0.9995602369308472, 7.418009281158447, 1.6278012990951538, -0.10644455999135971, 0.0, 0.0, 0.0, 0, 0, 0, 0, 0, 0, 7.418009281158447, 1.6278012990951538, -0.10644455999135971
13056, 0.03455514833331108, -0.23239436745643616, 0.024595435708761215, -0.09398314356803894, 0.161768838763237, -0.013277856633067131, 0.014230594038963318, 0.005447135306894779, 1.0001927614212036, 7.433327674865723, 1.6311144828796387, -0.10656674951314926, 0.0, 0.0, 0.0, 0, 0, 0, 0, 0, 0, 7.433327674865723, 1.6311144828796387, -0.10656674951314926
13066, 0.03472542017698288, -0.23348335921764374, 0.024257266893982887, -0.04878411442041397, 0.10963685065507889, -0.0005790011491626501, 0.013273981399834156, 0.0035699058789759874, 0.9996837973594666, 7.448663234710693, 1.6344313621520996, -0.10668908059597015, 0.0, 0.0, 0.0, 0, 0, 0, 0, 0, 0, 7.448663234710693, 1.6344313621520996, -0.10668908059597015
13076, 0.03409751504659653, -0.23254823684692383, 0.022954164072871208, -0.034352466464042664, -0.2168576866388321, -0.06611356139183044, 0.01580488122999668, 0.004148565232753754, 0.9999425411224365, 7.464016437530518, 1.6377520561218262, -0.10681139677762985, 0.0, 0.0, 0.0, 0, 0, 0, 0, 0, 0, 7.464016437530518, 1.6377520561218262, -0.10681139677762985
13086, 0.03349139168858528, -0.2321997433900833, 0.021512560546398163, -0.009865532629191875, -0.18153969943523407, -0.13881124556064606, 0.014082042500376701, 0.004029660020023584, 1.0005239248275757, 7.479387283325195, 1.6410762071609497, -0.10693361610174179, 0.0, 0.0, 0.0, 0, 0, 0, 0, 0, 0, 7.479387283325195, 1.6410762071609497, -0.10693361610174179
13096, 0.03342587500810623, -0.2333051860332489, 0.02207357995212078, -0.01864529214799404, 0.034121815115213394, 0.08739984780550003, 0.01273208949714899, 0.0025754603557288647, 1.0029027462005615, 7.494776725769043, 1.6444039344787598, -0.10705533623695374, 0.0, 0.0, 0.0, 0, 0, 0, 0, 0, 0, 7.494776725769043, 1.6444039344787598, -0.10705533623695374
13106, 0.03249852731823921, -0.23336385190486908, 0.02244141697883606, -0.14640207588672638, -0.16990920901298523, -0.04413340240716934, 0.013607440516352654, 0.005384266376495361, 1.0005013942718506, 7.510183811187744, 1.647734522819519, -0.10717539489269257, 0.0, 0.0, 0.0, 0, 0, 0, 0, 0, 0, 7.510183811187744, 1.647734522819519, -0.10717539489269257
13116, 0.03277529403567314, -0.23427550494670868, 0.023300277069211006, 0.08242889493703842, 0.1418871283531189, 0.027174266055226326, 0.014272915199398994, 0.006614965386688709, 1.0012181997299194, 7.525608062744141, 1.6510686874389648, -0.10729382932186127, 0.0, 0.0, 0.0, 0, 0, 0, 0, 0, 0, 7.525608062744141, 1.6510686874389648, -0.10729382932186127
13126, 0.03267817199230194, -0.23359733819961548, 0.02317533828318119, -0.09297934174537659, -0.15395843982696533, -0.24401028454303741, 0.013152728788554668, 0.004451504442840815, 1.0012348890304565, 7.541049957275391, 1.6544082164764404, -0.10741134732961655, 0.0, 0.0, 0.0, 0, 0, 0, 0, 0, 0, 7.541049957275391, 1.6544082164764404, -0.10741134732961655
13136, 0.0323990173637867, -0.23214831948280334, 0.02321504056453705, -0.07164651900529861, -0.24602380394935608, 0.008623700588941574, 0.012975895777344704, 0.0029266749043017626, 0.99941486120224, 7.556509017944336, 1.6577528715133667, -0.10752765089273453, 0.0, 0.0, 0.0, 0, 0, 0, 0, 0, 0, 7.556509017944336, 1.6577528715133667, -0.10752765089273453
13146, 0.03125476464629173, -0.23254144191741943, 0.023773472756147385, -0.17119094729423523, 0.06116912141442299, 0.13695275783538818, 0.012707730755209923, 0.0030617513693869114, 1.000572681427002, 7.571984767913818, 1.6611008644104004, -0.1076435074210167, 0.0, 0.0, 0.0, 0, 0, 0, 0, 0, 0, 7.571984767913818, 1.6611008644104004, -0.1076435074210167
13156, 0.030955346301198006, -0.2319583147764206, 0.023989152163267136, 0.007474238984286785, 0.037232499569654465, 0.09015151113271713, 0.014979908242821693, 0.0031298084650188684, 1.000255823135376, 7.587477207183838, 1.664451241493225, -0.10775932669639587, 0.0, 0.0, 0.0, 0, 0, 0, 0, 0, 0, 7.587477207183838, 1.664451241493225, -0.10775932669639587
13166, 0.03157835453748703, -0.23270724713802338, 0.023293964564800262, 0.08968652039766312, 0.15656612813472748, -0.12304221838712692, 0.013651404529809952, 0.0034983414225280285, 1.0003474950790405, 7.602987289428711, 1.6678040027618408, -0.10787486284971237, 0.0, 0.0, 0.0, 0, 0, 0, 0, 0, 0, 7.602987289428711, 1.6678040027618408, -0.10787486284971237
13176, 0.03218129649758339, -0.23234552145004272, 0.023745136335492134, 0.1395941525697708, -0.12477646768093109, 0.19179058074951172, 0.012292355298995972, 0.0019327852642163634, 0.9998179078102112, 7.6185150146484375, 1.671159267425537, -0.10799026489257812, 0.0, 0.0, 0.0, 0, 0, 0, 0, 0, 0, 7.6185150146484375, 1.671159267425537, -0.10799026489257812
13186, 0.03273146599531174, -0.23205073177814484, 0.023246068507432938, 0.06653568148612976, -0.10391892492771149, -0.05234988033771515, 0.012663991190493107, 0.0024384642019867897, 1.000208854675293, 7.634059906005859, 1.6745166778564453, -0.10810566693544388, 0.0, 0.0, 0.0, 0, 0, 0, 0, 0, 0, 7.634059906005859, 1.6745166778564453, -0.10810566693544388
13196, 0.03224227949976921, -0.23149721324443817, 0.022352486848831177, -0.0995960533618927, -0.17817941308021545, -0.08061401546001434, 0.013706428930163383, 0.0031373444944620132, 1.0015859603881836, 7.64962100982666, 1.6778755187988281, -0.10822118818759918, 0.0, 0.0, 0.0, 0, 0, 0, 0, 0, 0, 7.64962100982666, 1.6778755187988281, -0.10822118818759918
13206, 0.03170417249202728, -0.23286350071430206, 0.022282592952251434, -0.06124380975961685, 0.30253398418426514, 0.0030789088923484087, 0.01418265700340271, 0.0044753532856702805, 1.000984787940979, 7.665198802947998, 1.6812363862991333, -0.10833605378866196, 0.0, 0.0, 0.0, 0, 0, 0, 0, 0, 0, 7.665198802947998, 1.6812363862991333, -0.10833605378866196
13216, 0.0316719152033329, -0.2330377697944641, 0.02202574536204338, 0.11918807774782181, 0.03545675799250603, 0.06219697371125221, 0.01177766639739275, 0.0048670037649571896, 0.9994993209838867, 7.6807942390441895, 1.6846003532409668, -0.1084497720003128, 0.0, 0.0, 0.0, 0, 0, 0, 0, 0, 0, 7.6807942390441895, 1.6846003532409668, -0.1084497720003128
13226, 0.03196394443511963, -0.2325926125049591, 0.023445552214980125, 0.121489018201828, -0.09300269931554794, 0.2059415876865387, 0.013110156171023846, 0.0034120287746191025, 0.9980220198631287, 7.696406364440918, 1.6879682540893555, -0.10856333374977112, 0.0, 0.0, 0.0, 0, 0, 0, 0, 0, 0, 7.696406364440918, 1.6879682540893555, -0.10856333374977112
13236, 0.03256332501769066, -0.23572956025600433, 0.02572287805378437, 0.08733810484409332, 0.2953086197376251, 0.31014689803123474, 0.013285000808537006, 0.002961522899568081, 1.0020792484283447, 7.712035179138184, 1.6913398504257202, -0.10867806524038315, 0.0, 0.0, 0.0, 0, 0, 0, 0, 0, 0, 7.712035179138184, 1.6913398504257202, -0.10867806524038315
13246, 0.031491443514823914, -0.237298846244812, 0.02442328631877899, -0.23027530312538147, -0.013584754429757595, -0.07976901531219482, 0.013845641165971756, 0.004857748746871948, 1.0005697011947632, 7.7276811599731445, 1.694714069366455, -0.10879310965538025, 0.0, 0.0, 0.0, 0, 0, 0, 0, 0, 0, 7.7276811599731445, 1.694714069366455, -0.10879310965538025
13256, 0.03104923479259014, -0.23773764073848724, 0.024323085322976112, -0.0386912003159523, -0.053328488022089005, 0.10044483840465546, 0.01238013245165348, 0.004853913094848394, 0.9986923336982727, 7.743344306945801, 1.6980913877487183, -0.10890726000070572, 0.0, 0.0, 0.0, 0, 0, 0, 0, 0, 0, 7.743344306945801, 1.6980913877487183, -0.10890726000070572
13266, 0.03000101074576378, -0.23783694207668304, 0.025166314095258713, -0.07734832167625427, 0.016535576432943344, 0.06577032804489136, 0.010864363051950932, 0.005658763460814953, 0.9998821020126343, 7.759024620056152, 1.7014728784561157, -0.10902153700590134, 0.0, 0.0, 0.0, 0, 0, 0, 0, 0, 0, 7.759024620056152, 1.7014728784561157, -0.10902153700590134
13276, 0.029713958501815796, -0.234798863530159, 0.025267401710152626, 0.03661298006772995, -0.3672424256801605, -0.08204595744609833, 0.012933541089296341, 0.005459785461425781, 1.00153386592865, 7.774720191955566, 1.7048590183258057, -0.1091364249587059, 0.0, 0.0, 0.0, 0, 0, 0, 0, 0, 0, 7.774720191955566, 1.7048590183258057, -0.1091364249587059
13286, 0.030070960521697998, -0.23547376692295074, 0.02478126622736454, 0.047241635620594025, 0.04973801597952843, -0.04777327924966812, 0.013066926971077919, 0.004944123327732086, 1.001942753791809, 7.790431499481201, 1.7082499265670776, -0.10925087332725525, 0.0, 0.0, 0.0, 0, 0, 0, 0, 0, 0, 7.790431499481201, 1.7082499265670776, -0.10925087332725525
13296, 0.02995396964251995, -0.2352670580148697, 0.02525811456143856, -0.03185579925775528, -0.047553326934576035, 0.1772238165140152, 0.013575737364590168, 0.004473031032830477, 1.0013853311538696, 7.806159496307373, 1.7116453647613525, -0.10936378687620163, 0.0, 0.0, 0.0, 0, 0, 0, 0, 0, 0, 7.806159496307373, 1.7116453647613525, -0.10936378687620163
13306, 0.03062879852950573, -0.23798805475234985, 0.02501608617603779, 0.0687277764081955, 0.34708142280578613, -0.18130157887935638, 0.013036597520112991, 0.003575077746063471, 0.9989728927612305, 7.82190465927124, 1.7150448560714722, -0.1094750165939331, 0.0, 0.0, 0.0, 0, 0, 0, 0, 0, 0, 7.82190465927124, 1.7150448560714722, -0.1094750165939331
13316, 0.030232463032007217, -0.23535197973251343, 0.025222431868314743, -0.05348309502005577, -0.47165194153785706, -0.062477052211761475, 0.012936134822666645, 0.003873297479003668, 0.9984949231147766, 7.8376665115356445, 1.7184476852416992, -0.10958585143089294, 0.0, 0.0, 0.0, 0, 0, 0, 0, 0, 0, 7.8376665115356445, 1.7184476852416992, -0.10958585143089294
13326, 0.02959394082427025, -0.23521462082862854, 0.025170786306262016, -0.057705387473106384, 0.0666922852396965, -0.07246367633342743, 0.01284436509013176, 0.005125448573380709, 1.0014567375183105, 7.853445529937744, 1.721853494644165, -0.10969778150320053, 0.0, 0.0, 0.0, 0, 0, 0, 0, 0, 0, 7.853445529937744, 1.721853494644165, -0.10969778150320053
13336, 0.02960037812590599, -0.23464009165763855, 0.0257762111723423, -0.05538265407085419, -0.05404307693243027, -0.06447800993919373, 0.012574851512908936, 0.0024654576554894447, 1.001908779144287, 7.869241237640381, 1.7252628803253174, -0.10980991274118423, 0.0, 0.0, 0.0, 0, 0, 0, 0, 0, 0, 7.869241237640381, 1.7252628803253174, -0.10980991274118423
13346, 0.0288836769759655, -0.23644466698169708, 0.026687024161219597, -0.1614105999469757, 0.3856782615184784, 0.16548235714435577, 0.011732127517461777, 0.0029679792933166027, 1.0005162954330444, 7.8850531578063965, 1.7286754846572876, -0.10992052406072617, 0.0, 0.0, 0.0, 0, 0, 0, 0, 0, 0, 7.8850531578063965, 1.7286754846572876, -0.10992052406072617
13356, 0.02975941263139248, -0.23755714297294617, 0.026939574629068375, 0.12069857865571976, 0.24520175158977509, 0.15195679664611816, 0.013530328869819641, 0.004342804662883282, 1.0004061460494995, 7.900881290435791, 1.7320905923843384, -0.11002971976995468, 0.0, 0.0, 0.0, 0, 0, 0, 0, 0, 0, 7.900881290435791, 1.7320905923843384, -0.11002971976995468
13366, 0.0298825204372406, -0.23716646432876587, 0.02685176022350788, -0.13948245346546173, -0.05305061861872673, 0.03115040250122547, 0.011374603025615215, 0.0049231573939323425, 0.9994431138038635, 7.9167256355285645, 1.7355087995529175, -0.11013814806938171, 0.0, 0.0, 0.0, 0, 0, 0, 0, 0, 0, 7.9167256355285645, 1.7355087995529175, -0.11013814806938171
13376, 0.03169155865907669, -0.23650582134723663, 0.027823269367218018, 0.1685773879289627, 0.2487957626581192, 0.1840747892856598, 0.014183439314365387, 0.004146986175328493, 1.000370740890503, 7.932586193084717, 1.7389308214187622, -0.11024659126996994, 0.0, 0.0, 0.0, 0, 0, 0, 0, 0, 0, 7.932586193084717, 1.7389308214187622, -0.11024659126996994
13386, 0.031207475811243057, -0.23570680618286133, 0.027615617960691452, -0.1579933762550354, -0.08091793954372406, 0.05167375132441521, 0.013296794146299362, 0.0033978840801864862, 1.0002704858779907, 7.950052261352539, 1.7426995038986206, -0.11036622524261475, 0.0, 0.0, 0.0, 0, 0, 0, 0, 0, 0, 7.950052261352539, 1.7426995038986206, -0.11036622524261475
13396, 0.032305292785167694, -0.23416095972061157, 0.02657981775701046, 0.16161403059959412, -0.16846024990081787, -0.2450469583272934, 0.014601683244109154, 0.003231091657653451, 1.0020875930786133, 7.965948581695557, 1.746129035949707, -0.11047476530075073, 0.0, 0.0, 0.0, 0, 0, 0, 0, 0, 0, 7.965948581695557, 1.746129035949707, -0.11047476530075073
13406, 0.03230787068605423, -0.2336486130952835, 0.02725391834974289, 0.03721532225608826, -0.04390605166554451, 0.08871547132730484, 0.013749917037785053, 0.0022525887470692396, 1.0015393495559692, 7.981862545013428, 1.7495613098144531, -0.11058226227760315, 0.0, 0.0, 0.0, 0, 0, 0, 0, 0, 0, 7.981862545013428, 1.7495613098144531, -0.11058226227760315
13416, 0.03144439682364464, -0.23308613896369934, 0.026594849303364754, -0.07003333419561386, -0.12081796675920486, -0.09153138846158981, 0.013087198138237, 0.004652529489248991, 1.000421404838562, 7.997794151306152, 1.7529957294464111, -0.11068835109472275, 0.0, 0.0, 0.0, 0, 0, 0, 0, 0, 0, 7.997794151306152, 1.7529957294464111, -0.11068835109472275
13426, 0.03160473331809044, -0.23236331343650818, 0.025321481749415398, 0.12227460741996765, 0.09286314994096756, -0.2122810035943985, 0.011902764439582825, 0.002992045134305954, 1.000421404838562, 8.01374340057373, 1.7564327716827393, -0.11079373210668564, 0.0, 0.0, 0.0, 0, 0, 0, 0, 0, 0, 8.01374340057373, 1.7564327716827393, -0.11079373210668564
13436, 0.031033949926495552, -0.23279482126235962, 0.024952389299869537, -0.16534961760044098, 0.05167260020971298, 0.011207226663827896, 0.010792524553835392, 0.003743874141946435, 0.9994397759437561, 8.029708862304688, 1.7598729133605957, -0.11089873313903809, 0.0, 0.0, 0.0, 0, 0, 0, 0, 0, 0, 8.029708862304688, 1.7598729133605957, -0.11089873313903809
13446, 0.031185351312160492, -0.2327050417661667, 0.024390317499637604, 0.07214375585317612, 0.1684027910232544, 0.11772392690181732, 0.011272862553596497, 0.002867506816983223, 0.9995568990707397, 8.045689582824707, 1.7633156776428223, -0.11100362986326218, 0.0, 0.0, 0.0, 0, 0, 0, 0, 0, 0, 8.045689582824707, 1.7633156776428223, -0.11100362986326218
13456, 0.03127271682024002, -0.23238737881183624, 0.02473723702132702, -0.0023411607835441828, -0.11410374939441681, 0.11371511220932007, 0.012849986553192139, 0.003957361914217472, 1.0007867813110352, 8.061684608459473, 1.7667611837387085, -0.11110883206129074, 0.0, 0.0, 0.0, 0, 0, 0, 0, 0, 0, 8.061684608459473, 1.7667611837387085, -0.11110883206129074
13466, 0.030883919447660446, -0.23452584445476532, 0.02263018861413002, 0.020740894600749016, 0.24211692810058594, -0.25223860144615173, 0.011460517533123493, 0.0031650401651859283, 1.0013985633850098, 8.077695846557617, 1.770209550857544, -0.11121382564306259, 0.0, 0.0, 0.0, 0, 0, 0, 0, 0, 0, 8.077695846557617, 1.770209550857544, -0.11121382564306259
13476, 0.03051227703690529, -0.2350461184978485, 0.023384861648082733, 0.10980189591646194, -0.08987900614738464, 0.22451907396316528, 0.011397916823625565, 0.0028409152291715145, 1.0007206201553345, 8.093722343444824, 1.7736607789993286, -0.11131785064935684, 0.0, 0.0, 0.0, 0, 0, 0, 0, 0, 0, 8.093722343444824, 1.7736607789993286, -0.11131785064935684
13486, 0.031183570623397827, -0.23382127285003662, 0.023536857217550278, 0.13575904071331024, 0.11777862161397934, 0.2072584182024002, 0.013807617127895355, 0.004730988759547472, 1.0006014108657837, 8.109764099121094, 1.7771145105361938, -0.11142085492610931, 0.0, 0.0, 0.0, 0, 0, 0, 0, 0, 0, 8.109764099121094, 1.7771145105361938, -0.11142085492610931
13496, 0.03127436339855194, -0.2333083599805832, 0.02297712117433548, 0.05787094682455063, -0.08921556174755096, -0.0025189504958689213, 0.013073434121906757, 0.005014374386519194, 0.9978250861167908, 8.125822067260742, 1.7805713415145874, -0.11152341216802597, 0.0, 0.0, 0.0, 0, 0, 0, 0, 0, 0, 8.125822067260742, 1.7805713415145874, -0.11152341216802597
13506, 0.031317103654146194, -0.2336340844631195, 0.02179591916501522, 0.02903643064200878, -0.004045151174068451, -0.05389125645160675, 0.011150263249874115, 0.007047128863632679, 0.9996773600578308, 8.141897201538086, 1.7840321063995361, -0.11162679642438889, 0.0, 0.0, 0.0, 0, 0, 0, 0, 0, 0, 8.141897201538086, 1.7840321063995361, -0.11162679642438889
13516, 0.03171481192111969, -0.23284707963466644, 0.02168995700776577, -0.018060198053717613, -0.12715360522270203, -0.04213733971118927, 0.01294699776917696, 0.005172847304493189, 1.0018051862716675, 8.157988548278809, 1.7874979972839355, -0.11173097044229507, 0.0, 0.0, 0.0, 0, 0, 0, 0, 0, 0, 8.157988548278809, 1.7874979972839355, -0.11173097044229507
13526, 0.031607937067747116, -0.23266299068927765, 0.021323781460523605, -0.12846678495407104, -0.00819659885019064, -0.03627509996294975, 0.014622948132455349, 0.0023885820992290974, 0.9974719285964966, 8.174095153808594, 1.7909691333770752, -0.11183441430330276, 0.0, 0.0, 0.0, 0, 0, 0, 0, 0, 0, 8.174095153808594, 1.7909691333770752, -0.11183441430330276
13536, 0.031135933473706245, -0.23331722617149353, 0.02251458540558815, -0.0717131718993187, 0.16475042700767517, -0.017831221222877502, 0.013862059451639652, 0.0027610687538981438, 0.9991004467010498, 8.190218925476074, 1.7944433689117432, -0.11193815618753433, 0.0, 0.0, 0.0, 0, 0, 0, 0, 0, 0, 8.190218925476074, 1.7944433689117432, -0.11193815618753433
13546, 0.031056158244609833, -0.23433372378349304, 0.02207391895353794, 0.05670951306819916, 0.15525855123996735, 0.022621333599090576, 0.014171179383993149, 0.005001148674637079, 1.0002080202102661, 8.206360816955566, 1.797919750213623, -0.11204326897859573, 0.0, 0.0, 0.0, 0, 0, 0, 0, 0, 0, 8.206360816955566, 1.797919750213623, -0.11204326897859573
13556, 0.03061485104262829, -0.23459307849407196, 0.023458179086446762, -0.10106390714645386, -0.0036467858590185642, 0.08461520075798035, 0.012825582176446915, 0.005426603369414806, 0.9991485476493835, 8.22252082824707, 1.8013995885849, -0.1121486946940422, 0.0, 0.0, 0.0, 0, 0, 0, 0, 0, 0, 8.22252082824707, 1.8013995885849, -0.1121486946940422
13566, 0.030612152069807053, -0.23651668429374695, 0.02330382727086544, 0.0365668460726738, 0.32304826378822327, -0.12686891853809357, 0.014209289103746414, 0.00408067787066102, 0.9976568818092346, 8.23869800567627, 1.8048840761184692, -0.11225450783967972, 0.0, 0.0, 0.0, 0, 0, 0, 0, 0, 0, 8.23869800567627, 1.8048840761184692, -0.11225450783967972
13576, 0.031400166451931, -0.2355566918849945, 0.025297796353697777, 0.1312609612941742, -0.07616204023361206, 0.3982015550136566, 0.013877682387828827, 0.003985607996582985, 1.0010019540786743, 8.254892349243164, 1.8083726167678833, -0.11236168444156647, 0.0, 0.0, 0.0, 0, 0, 0, 0, 0, 0, 8.254892349243164, 1.8083726167678833, -0.11236168444156647
13586, 0.03042207844555378, -0.23489785194396973, 0.02502249926328659, -0.11664396524429321, 0.14039617776870728, -0.04833362624049187, 0.012156477198004723, 0.0021414547227323055, 1.0019960403442383, 8.27110481262207, 1.8118643760681152, -0.11246927082538605, 0.0, 0.0, 0.0, 0, 0, 0, 0, 0, 0, 8.27110481262207, 1.8118643760681152, -0.11246927082538605
13596, 0.0307335052639246, -0.23568646609783173, 0.025838037952780724, -0.037282414734363556, -0.0606774166226387, -0.041238248348236084, 0.008019019849598408, 0.004542315378785133, 1.0017157793045044, 8.287333488464355, 1.8153586387634277, -0.11257540434598923, 0.0, 0.0, 0.0, 0, 0, 0, 0, 0, 0, 8.287333488464355, 1.8153586387634277, -0.11257540434598923
13606, 0.029972312971949577, -0.23555541038513184, 0.025858841836452484, -0.15720385313034058, -0.029434513300657272, 0.0133310342207551, 0.009724187664687634, 0.00442052586004138, 0.9998392462730408, 8.303576469421387, 1.8188560009002686, -0.11267997324466705, 0.0, 0.0, 0.0, 0, 0, 0, 0, 0, 0, 8.303576469421387, 1.8188560009002686, -0.11267997324466705
13616, 0.029643215239048004, -0.234075665473938, 0.02472534403204918, 0.02012774534523487, -0.06784067302942276, -0.15187564492225647, 0.011949646286666393, 0.0035109526943415403, 0.9982857704162598, 8.319831848144531, 1.822357177734375, -0.11278417706489563, 0.0, 0.0, 0.0, 0, 0, 0, 0, 0, 0, 8.319831848144531, 1.822357177734375, -0.11278417706489563
13626, 0.028290271759033203, -0.2338724136352539, 0.02571408450603485, -0.15887399017810822, -0.143254354596138, 0.21849632263183594, 0.011496784165501595, 0.00398290203884244, 0.9986799359321594, 8.336102485656738, 1.8258618116378784, -0.11288940161466599, 0.0, 0.0, 0.0, 0, 0, 0, 0, 0, 0, 8.336102485656738, 1.8258618116378784, -0.11288940161466599
13636, 0.028369348496198654, -0.23240427672863007, 0.024341370910406113, -0.03130212053656578, -0.0010474568698555231, -0.04984467849135399, 0.012210816144943237, 0.006778564769774675, 0.9997413158416748, 8.352388381958008, 1.8293699026107788, -0.11299598962068558, 0.0, 0.0, 0.0, 0, 0, 0, 0, 0, 0, 8.352388381958008, 1.8293699026107788, -0.11299598962068558
13646, 0.028603000566363335, -0.23116643726825714, 0.02406158111989498, 0.028469132259488106, -0.08889977633953094, -0.13762108981609344, 0.01140186283737421, 0.003538666293025017, 0.9989593625068665, 8.36868953704834, 1.8328827619552612, -0.11310333758592606, 0.0, 0.0, 0.0, 0, 0, 0, 0, 0, 0, 8.36868953704834, 1.8328827619552612, -0.11310333758592606
13656, 0.026320258155465126, -0.23119807243347168, 0.020551452413201332, -0.309945672750473, 0.12231877446174622, -0.38382619619369507, 0.01402562391012907, 0.002267020521685481, 0.9987756013870239, 8.385005950927734, 1.8363999128341675, -0.11321135610342026, 0.0, 0.0, 0.0, 0, 0, 0, 0, 0, 0, 8.385005950927734, 1.8363999128341675, -0.11321135610342026
13666, 0.025761744007468224, -0.22932025790214539, 0.02032076194882393, 0.017387524247169495, -0.1796092540025711, 0.008317406289279461, 0.013754241168498993, 0.002564922673627734, 1.0012967586517334, 8.401339530944824, 1.8399193286895752, -0.11332029104232788, 0.0, 0.0, 0.0, 0, 0, 0, 0, 0, 0, 8.401339530944824, 1.8399193286895752, -0.11332029104232788
13676, 0.02580738626420498, -0.22758343815803528, 0.021047178655862808, 0.10870517790317535, -0.06620904803276062, 0.19976618885993958, 0.013125238940119743, 0.0036748917773365974, 1.0000065565109253, 8.41769027709961, 1.8434406518936157, -0.11342909932136536, 0.0, 0.0, 0.0, 0, 0, 0, 0, 0, 0, 8.41769027709961, 1.8434406518936157, -0.11342909932136536
13686, 0.025937896221876144, -0.22524289786815643, 0.0207982175052166, 0.14103828370571136, -0.30481064319610596, 0.1912822276353836, 0.011950962245464325, 0.0022885159123688936, 0.9987846612930298, 8.43405818939209, 1.8469644784927368, -0.11353734880685806, 0.0, 0.0, 0.0, 0, 0, 0, 0, 0, 0, 8.43405818939209, 1.8469644784927368, -0.11353734880685806
13696, 0.025890162214636803, -0.22656923532485962, 0.020469192415475845, 0.16225405037403107, 0.20080327987670898, 0.10001853108406067, 0.014366733841598034, 0.002805386669933796, 1.0002580881118774, 8.45044231414795, 1.8504908084869385, -0.11364611238241196, 0.0, 0.0, 0.0, 0, 0, 0, 0, 0, 0, 8.45044231414795, 1.8504908084869385, -0.11364611238241196
13706, 0.026161855086684227, -0.2250392735004425, 0.019946513697504997, 0.1428048461675644, -0.15404757857322693, 0.1038535088300705, 0.014037921093404293, 0.001363904681056738, 1.001197338104248, 8.466843605041504, 1.854019284248352, -0.11375518888235092, 0.0, 0.0, 0.0, 0, 0, 0, 0, 0, 0, 8.466843605041504, 1.854019284248352, -0.11375518888235092
13716, 0.02582251839339733, -0.2272864580154419, 0.018768608570098877, -0.03726780787110329, 0.21062111854553223, -0.11867063492536545, 0.013459219597280025, 0.0024668248370289803, 1.00045907497406, 8.483262062072754, 1.8575495481491089, -0.11386357992887497, 0.0, 0.0, 0.0, 0, 0, 0, 0, 0, 0, 8.483262062072754, 1.8575495481491089, -0.11386357992887497
13726, 0.026011347770690918, -0.22596676647663116, 0.018220610916614532, 0.10111308842897415, -0.3151620626449585, 0.09108733385801315, 0.012601609341800213, 0.004127132706344128, 0.999552309513092, 8.499698638916016, 1.861081600189209, -0.11397132277488708, 0.0, 0.0, 0.0, 0, 0, 0, 0, 0, 0, 8.499698638916016, 1.861081600189209, -0.11397132277488708
13736, 0.025976868346333504, -0.22919797897338867, 0.018059011548757553, 0.04380501061677933, 0.44603514671325684, 0.11277412623167038, 0.013364984653890133, 0.004185197409242392, 0.9988880157470703, 8.516151428222656, 1.8646166324615479, -0.11407917737960815, 0.0, 0.0, 0.0, 0, 0, 0, 0, 0, 0, 8.516151428222656, 1.8646166324615479, -0.11407917737960815
13746, 0.0269455686211586, -0.22751718759536743, 0.01888399012386799, 0.034188129007816315, -0.034612271934747696, 0.15275472402572632, 0.013147078454494476, 0.0040699271485209465, 0.9980296492576599, 8.532620429992676, 1.8681551218032837, -0.11418791115283966, 0.0, 0.0, 0.0, 0, 0, 0, 0, 0, 0, 8.532620429992676, 1.8681551218032837, -0.11418791115283966
13756, 0.0258382186293602, -0.22685666382312775, 0.018973149359226227, -0.21266423165798187, -0.12290766090154648, 0.036394909024238586, 0.012351046316325665, 0.004318359307944775, 0.9990800023078918, 8.54910659790039, 1.871697187423706, -0.11429814249277115, 0.0, 0.0, 0.0, 0, 0, 0, 0, 0, 0, 8.54910659790039, 1.871697187423706, -0.11429814249277115
13766, 0.02526450902223587, -0.2275974452495575, 0.019218960776925087, -0.07461630553007126, 0.122391477227211, -0.12200342863798141, 0.0124732106924057, 0.004900551866739988, 0.9984238743782043, 8.565608978271484, 1.8752429485321045, -0.11440980434417725, 0.0, 0.0, 0.0, 0, 0, 0, 0, 0, 0, 8.565608978271484, 1.8752429485321045, -0.11440980434417725
13776, 0.024727383628487587, -0.22788773477077484, 0.019251275807619095, -0.1052619069814682, -0.02599421888589859, -0.07454273849725723, 0.01117982342839241, 0.002891732845455408, 0.9989806413650513, 8.58212661743164, 1.8787927627563477, -0.11452268809080124, 0.0, 0.0, 0.0, 0, 0, 0, 0, 0, 0, 8.58212661743164, 1.8787927627563477, -0.11452268809080124
13786, 0.0245814248919487, -0.22685940563678741, 0.019127624109387398, -0.08951810747385025, -0.12790217995643616, -0.04592370614409447, 0.012104458175599575, 0.0026561697013676167, 1.0009164810180664, 8.598660469055176, 1.8823459148406982, -0.11463673412799835, 0.0, 0.0, 0.0, 0, 0, 0, 0, 0, 0, 8.598660469055176, 1.8823459148406982, -0.11463673412799835
13796, 0.02367934212088585, -0.22570283710956573, 0.019728465005755424, -0.03324401006102562, -0.1483495831489563, 0.1765628159046173, 0.012601902708411217, 0.004792168736457825, 1.003077507019043, 8.615209579467773, 1.8859018087387085, -0.1147506833076477, 0.0, 0.0, 0.0, 0, 0, 0, 0, 0, 0, 8.615209579467773, 1.8859018087387085, -0.1147506833076477
13806, 0.023274675011634827, -0.22593778371810913, 0.019288627430796623, 0.0034592710435390472, 0.09414125978946686, -0.09381137043237686, 0.012393086217343807, 0.004915133584290743, 0.9997894167900085, 8.63177490234375, 1.8894612789154053, -0.11486268788576126, 0.0, 0.0, 0.0, 0, 0, 0, 0, 0, 0, 8.63177490234375, 1.8894612789154053, -0.11486268788576126
13816, 0.023848198354244232, -0.22443772852420807, 0.02051897905766964, 0.13343776762485504, -0.14048655331134796, 0.08470740169286728, 0.012918095104396343, 0.005968932993710041, 0.9977930784225464, 8.648356437683105, 1.8930251598358154, -0.11497347056865692, 0.0, 0.0, 0.0, 0, 0, 0, 0, 0, 0, 8.648356437683105, 1.8930251598358154, -0.11497347056865692
13826, 0.023576941341161728, -0.22693800926208496, 0.02007294073700905, -0.020250238478183746, 0.21859394013881683, 0.008950082585215569, 0.011547614820301533, 0.005888591520488262, 0.9999514222145081, 8.66495418548584, 1.8965940475463867, -0.11508557200431824, 0.0, 0.0, 0.0, 0, 0, 0, 0, 0, 0, 8.66495418548584, 1.8965940475463867, -0.11508557200431824
13836, 0.023541508242487907, -0.2272205650806427, 0.01938776485621929, 0.058559492230415344, 0.0014117773389443755, -0.007821510545909405, 0.012924152426421642, 0.004765842575579882, 1.0016311407089233, 8.681567192077637, 1.9001682996749878, -0.11519883573055267, 0.0, 0.0, 0.0, 0, 0, 0, 0, 0, 0, 8.681567192077637, 1.9001682996749878, -0.11519883573055267
13846, 0.02404000237584114, -0.22703787684440613, 0.018911195918917656, 0.05964915081858635, 0.03750687837600708, -0.15265655517578125, 0.015486016869544983, 0.001781422644853592, 0.9987624287605286, 8.698196411132812, 1.9037470817565918, -0.11531133204698563, 0.0, 0.0, 0.0, 0, 0, 0, 0, 0, 0, 8.698196411132812, 1.9037470817565918, -0.11531133204698563
13856, 0.024311738088726997, -0.22730626165866852, 0.0196456890553236, 0.07335739582777023, 0.15407568216323853, 0.1196458712220192, 0.011633293703198433, 0.003224053420126438, 0.999552309513092, 8.71484375, 1.9073286056518555, -0.11542360484600067, 0.0, 0.0, 0.0, 0, 0, 0, 0, 0, 0, 8.71484375, 1.9073286056518555, -0.11542360484600067
13866, 0.02347470447421074, -0.22674322128295898, 0.020066838711500168, -0.015079840086400509, 0.07832778245210648, 0.10694320499897003, 0.013708190992474556, 0.0033672647550702095, 1.0019490718841553, 8.731508255004883, 1.910912275314331, -0.11553645133972168, 0.0, 0.0, 0.0, 0, 0, 0, 0, 0, 0, 8.731508255004883, 1.910912275314331, -0.11553645133972168
13876, 0.023060165345668793, -0.22679252922534943, 0.020164309069514275, 0.15625958144664764, -0.1592932790517807, 0.0028871498070657253, 0.01570703461766243, 0.00429447740316391, 1.0004091262817383, 8.748188972473145, 1.9144985675811768, -0.11564847826957703, 0.0, 0.0, 0.0, 0, 0, 0, 0, 0, 0, 8.748188972473145, 1.9144985675811768, -0.11564847826957703
13886, 0.022757260128855705, -0.226906880736351, 0.020596494898200035, 0.008041039109230042, 0.10503688454627991, 0.057648610323667526, 0.013692031614482403, 0.005159292835742235, 1.0007022619247437, 8.764887809753418, 1.9180880784988403, -0.11575938016176224, 0.0, 0.0, 0.0, 0, 0, 0, 0, 0, 0, 8.764887809753418, 1.9180880784988403, -0.11575938016176224
13896, 0.02338026650249958, -0.2255067080259323, 0.021921830251812935, 0.1630599945783615, -0.21841835975646973, 0.10747925937175751, 0.011939122341573238, 0.0035337074659764767, 0.99871826171875, 8.781604766845703, 1.9216817617416382, -0.1158696860074997, 0.0, 0.0, 0.0, 0, 0, 0, 0, 0, 0, 8.781604766845703, 1.9216817617416382, -0.1158696860074997
13906, 0.0230100154876709, -0.2251935601234436, 0.023353110998868942, 0.020868510007858276, -0.009657834656536579, 0.13094116747379303, 0.012091142125427723, 0.003585144644603133, 0.9996534585952759, 8.798338890075684, 1.9252792596817017, -0.11598014831542969, 0.0, 0.0, 0.0, 0, 0, 0, 0, 0, 0, 8.798338890075684, 1.9252792596817017, -0.11598014831542969
13916, 0.022704724222421646, -0.22570104897022247, 0.023845769464969635, 0.03917281702160835, 0.06557640433311462, 0.06800463050603867, 0.011852439492940903, 0.005229278467595577, 1.0001826286315918, 8.815088272094727, 1.9288800954818726, -0.11609135568141937, 0.0, 0.0, 0.0, 0, 0, 0, 0, 0, 0, 8.815088272094727, 1.9288800954818726, -0.11609135568141937
13926, 0.021691471338272095, -0.22560927271842957, 0.022327352315187454, -0.07244912534952164, -0.016398262232542038, -0.19350828230381012, 0.011342653073370457, 0.00296534295193851, 0.999232828617096, 8.831853866577148, 1.9324848651885986, -0.116202712059021, 0.0, 0.0, 0.0, 0, 0, 0, 0, 0, 0, 8.831853866577148, 1.9324848651885986, -0.116202712059021
13936, 0.02170317806303501, -0.22502800822257996, 0.022385550662875175, -0.11972272396087646, 0.04677039757370949, -0.1255776584148407, 0.014399758540093899, 0.00386412744410336, 1.0001569986343384, 8.848634719848633, 1.9360932111740112, -0.11631421744823456, 0.0, 0.0, 0.0, 0, 0, 0, 0, 0, 0, 8.848634719848633, 1.9360932111740112, -0.11631421744823456
13946, 0.022213835269212723, -0.2230093777179718, 0.022080836817622185, 0.0626983791589737, -0.12485967576503754, -0.028914032503962517, 0.013576703146100044, 0.003985600546002388, 1.0010712146759033, 8.865431785583496, 1.9397045373916626, -0.11642593890428543, 0.0, 0.0, 0.0, 0, 0, 0, 0, 0, 0, 8.865431785583496, 1.9397045373916626, -0.11642593890428543
13956, 0.022425463423132896, -0.22063086926937103, 0.020969944074749947, 0.01672646775841713, -0.23531216382980347, -0.04404187202453613, 0.011703172698616982, 0.003972811158746481, 0.9995343685150146, 8.882246017456055, 1.9433192014694214, -0.11653724312782288, 0.0, 0.0, 0.0, 0, 0, 0, 0, 0, 0, 8.882246017456055, 1.9433192014694214, -0.11653724312782288
13966, 0.022942382842302322, -0.2197597175836563, 0.019087184220552444, 0.03817097097635269, -0.029696740210056305, -0.328898549079895, 0.010665083304047585, 0.004003888461738825, 0.9994550347328186, 8.899076461791992, 1.9469372034072876, -0.11664847284555435, 0.0, 0.0, 0.0, 0, 0, 0, 0, 0, 0, 8.899076461791992, 1.9469372034072876, -0.11664847284555435
13976, 0.02269897796213627, -0.22041961550712585, 0.017378617078065872, -0.054977551102638245, 0.2520354092121124, -0.26417607069015503, 0.010764474049210548, 0.0021189688704907894, 0.9995985627174377, 8.915921211242676, 1.9505585432052612, -0.1167602464556694, 0.0, 0.0, 0.0, 0, 0, 0, 0, 0, 0, 8.915921211242676, 1.9505585432052612, -0.1167602464556694
13986, 0.022837817668914795, -0.22167463600635529, 0.018648942932486534, -0.04371124505996704, 0.19236411154270172, 0.16273023188114166, 0.010758665390312672, 0.003313562599942088, 0.9986774921417236, 8.932780265808105, 1.954182505607605, -0.11687267571687698, 0.0, 0.0, 0.0, 0, 0, 0, 0, 0, 0, 8.932780265808105, 1.954182505607605, -0.11687267571687698
13996, 0.024232691153883934, -0.22236491739749908, 0.017297349870204926, 0.21932922303676605, 0.12620273232460022, -0.12695924937725067, 0.01299209427088499, 0.00437643239274621, 1.000030517578125, 8.949653625488281, 1.9578090906143188, -0.11698607355356216, 0.0, 0.0, 0.0, 0, 0, 0, 0, 0, 0, 8.949653625488281, 1.9578090906143188, -0.11698607355356216
14006, 0.022740399464964867, -0.22130699455738068, 0.01686779409646988, -0.24209389090538025, -0.0025293128564953804, -0.09761800616979599, 0.013216236606240273, 0.001384134404361248, 0.9998668432235718, 8.96654224395752, 1.9614390134811401, -0.1171000525355339, 0.0, 0.0, 0.0, 0, 0, 0, 0, 0, 0, 8.96654224395752, 1.9614390134811401, -0.1171000525355339
14016, 0.021621542051434517, -0.22300587594509125, 0.01717660017311573, -0.009891364723443985, 0.1959531307220459, 0.06245286762714386, 0.012629448436200619, 0.0028902264311909676, 1.0005379915237427, 8.983448028564453, 1.9650713205337524, -0.11721392720937729, 0.0, 0.0, 0.0, 0, 0, 0, 0, 0, 0, 8.983448028564453, 1.9650713205337524, -0.11721392720937729
14026, 0.020694542676210403, -0.2232624590396881, 0.01703781448304653, -0.17337976396083832, -0.024255210533738136, 0.013831613585352898, 0.012240518815815449, 0.00414191884920001, 1.0015836954116821, 9.000370025634766, 1.968705415725708, -0.11732747405767441, 0.0, 0.0, 0.0, 0, 0, 0, 0, 0, 0, 9.000370025634766, 1.968705415725708, -0.11732747405767441
14036, 0.020340748131275177, -0.22180990874767303, 0.01783570647239685, 0.06786034256219864, -0.23742957413196564, 0.14962171018123627, 0.012321025133132935, 0.003208910347893834, 0.9988777041435242, 9.017308235168457, 1.972342610359192, -0.1174401342868805, 0.0, 0.0, 0.0, 0, 0, 0, 0, 0, 0, 9.017308235168457, 1.972342610359192, -0.1174401342868805
14046, 0.019945206120610237, -0.22054670751094818, 0.017771514132618904, 0.04079766944050789, -0.0413818359375, 0.20957589149475098, 0.012103429064154625, 0.003762617940083146, 0.9982185363769531, 9.034261703491211, 1.9759831428527832, -0.11755269765853882, 0.0, 0.0, 0.0, 0, 0, 0, 0, 0, 0, 9.034261703491211, 1.9759831428527832, -0.11755269765853882
14056, 0.020141271874308586, -0.21820691227912903, 0.0168018639087677, 0.0706011950969696, -0.2556639313697815, -0.11436695605516434, 0.013221565634012222, 0.005137393716722727, 1.0010404586791992, 9.051231384277344, 1.9796267747879028, -0.1176665723323822, 0.0, 0.0, 0.0, 0, 0, 0, 0, 0, 0, 9.051231384277344, 1.9796267747879028, -0.1176665723323822
14066, 0.020677443593740463, -0.21929720044136047, 0.015919173136353493, 0.024783750995993614, 0.027048299089074135, -0.06941308081150055, 0.012371120043098927, 0.004366379696875811, 1.0001035928726196, 9.068217277526855, 1.9832743406295776, -0.11778069287538528, 0.0, 0.0, 0.0, 0, 0, 0, 0, 0, 0, 9.068217277526855, 1.9832743406295776, -0.11778069287538528
14076, 0.020827775821089745, -0.21748094260692596, 0.014794745482504368, -0.09526923298835754, -0.21907439827919006, -0.07795919477939606, 0.01134450826793909, 0.005840676371008158, 0.998712956905365, 9.085219383239746, 1.9869261980056763, -0.117894247174263, 0.0, 0.0, 0.0, 0, 0, 0, 0, 0, 0, 9.085219383239746, 1.9869261980056763, -0.117894247174263
14086, 0.021622177213430405, -0.21724459528923035, 0.015157499350607395, 0.12293253093957901, 0.08302129805088043, 0.2848494350910187, 0.01300400123000145, 0.002746003679931164, 1.0005474090576172, 9.1022367477417, 1.9905825853347778, -0.11800813674926758, 0.0, 0.0, 0.0, 0, 0, 0, 0, 0, 0, 9.1022367477417, 1.9905825853347778, -0.11800813674926758
14096, 0.021378954872488976, -0.21813040971755981, 0.01505782175809145, -0.04093252122402191, 0.143540620803833, 0.1651059091091156, 0.014507231302559376, 0.002603159286081791, 0.9991170763969421, 9.119270324707031, 1.9942426681518555, -0.11812223494052887, 0.0, 0.0, 0.0, 0, 0, 0, 0, 0, 0, 9.119270324707031, 1.9942426681518555, -0.11812223494052887
14106, 0.022118866443634033, -0.21570594608783722, 0.014431348070502281, 0.1422213762998581, -0.15048517286777496, -0.0008687156951054931, 0.01414051465690136, 0.0043106647208333015, 1.0006895065307617, 9.136321067810059, 1.9979052543640137, -0.11823645234107971, 0.0, 0.0, 0.0, 0, 0, 0, 0, 0, 0, 9.136321067810059, 1.9979052543640137, -0.11823645234107971
14116, 0.02200433425605297, -0.2177511304616928, 0.012504617683589458, -0.05747920647263527, 0.2497507780790329, -0.1653161346912384, 0.012863079085946083, 0.0034358324483036995, 1.002794861793518, 9.153389930725098, 2.0015709400177, -0.11835068464279175, 0.0, 0.0, 0.0, 0, 0, 0, 0, 0, 0, 9.153389930725098, 2.0015709400177, -0.11835068464279175
14126, 0.02178814262151718, -0.21647612750530243, 0.012024928815662861, 0.03439490869641304, -0.17966042459011078, -0.009747696109116077, 0.013200030662119389, 0.002046930370852351, 1.0012354850769043, 9.170475006103516, 2.005239963531494, -0.1184634417295456, 0.0, 0.0, 0.0, 0, 0, 0, 0, 0, 0, 9.170475006103516, 2.005239963531494, -0.1184634417295456
14136, 0.02166261337697506, -0.21855376660823822, 0.011760971508920193, 0.026582084596157074, 0.17520961165428162, -0.12559834122657776, 0.013467303477227688, 0.005093563813716173, 1.0001583099365234, 9.187577247619629, 2.008911371231079, -0.1185743659734726, 0.0, 0.0, 0.0, 0, 0, 0, 0, 0, 0, 9.187577247619629, 2.008911371231079, -0.1185743659734726
14146, 0.020655224099755287, -0.22195260226726532, 0.011556658893823624, -0.12564241886138916, 0.308370977640152, -0.09142263233661652, 0.013049693778157234, 0.00376136158592999, 1.001227855682373, 9.204695701599121, 2.0125861167907715, -0.11868447810411453, 0.0, 0.0, 0.0, 0, 0, 0, 0, 0, 0, 9.204695701599121, 2.0125861167907715, -0.11868447810411453
14156, 0.019893703982234, -0.22209279239177704, 0.011694329790771008, -0.05024115741252899, -0.047464434057474136, 0.14499302208423615, 0.013269469141960144, 0.0030570351518690586, 1.0014393329620361, 9.221831321716309, 2.0162646770477295, -0.11879384517669678, 0.0, 0.0, 0.0, 0, 0, 0, 0, 0, 0, 9.221831321716309, 2.0162646770477295, -0.11879384517669678
14166, 0.020244082435965538, -0.22257551550865173, 0.012723719701170921, 0.17420391738414764, 0.06293068826198578, 0.1464643031358719, 0.01390047837048769, 0.003573455847799778, 0.9996355175971985, 9.238983154296875, 2.0199460983276367, -0.11890187114477158, 0.0, 0.0, 0.0, 0, 0, 0, 0, 0, 0, 9.238983154296875, 2.0199460983276367, -0.11890187114477158
14176, 0.02007114700973034, -0.22281695902347565, 0.011206257157027721, 0.06893040984869003, -0.031018797308206558, -0.22741028666496277, 0.01471477746963501, 0.003508246736600995, 0.9998306632041931, 9.256152153015137, 2.0236306190490723, -0.1190091073513031, 0.0, 0.0, 0.0, 0, 0, 0, 0, 0, 0, 9.256152153015137, 2.0236306190490723, -0.1190091073513031
14186, 0.020005112513899803, -0.2241087108850479, 0.011463421396911144, -0.02188372239470482, 0.23143310844898224, 0.047947607934474945, 0.013978306204080582, 0.00455047469586134, 0.9988812804222107, 9.27333927154541, 2.0273184776306152, -0.11911633610725403, 0.0, 0.0, 0.0, 0, 0, 0, 0, 0, 0, 9.27333927154541, 2.0273184776306152, -0.11911633610725403
14196, 0.01953599415719509, -0.22668172419071198, 0.012000961229205132, -0.08842667192220688, 0.46553972363471985, 0.014370142482221127, 0.013096196576952934, 0.004267487209290266, 1.0015989542007446, 9.290543556213379, 2.031010150909424, -0.11922411620616913, 0.0, 0.0, 0.0, 0, 0, 0, 0, 0, 0, 9.290543556213379, 2.031010150909424, -0.11922411620616913
14206, 0.019432920962572098, -0.22614744305610657, 0.012571866624057293, -0.03607294708490372, -0.020446227863430977, -0.04958563670516014, 0.01283898763358593, 0.002203612122684717, 0.9995144605636597, 9.307765007019043, 2.034705877304077, -0.11933184415102005, 0.0, 0.0, 0.0, 0, 0, 0, 0, 0, 0, 9.307765007019043, 2.034705877304077, -0.11933184415102005
14216, 0.019249506294727325, -0.22571231424808502, 0.012075030244886875, -0.03056921251118183, -0.12057589739561081, -0.15437857806682587, 0.012653613463044167, 0.002878813538700342, 0.998648464679718, 9.325003623962402, 2.038404703140259, -0.11943911015987396, 0.0, 0.0, 0.0, 0, 0, 0, 0, 0, 0, 9.325003623962402, 2.038404703140259, -0.11943911015987396
14226, 0.01899147592484951, -0.22503767907619476, 0.011685377918183804, -0.10821042209863663, 0.07116873562335968, -0.2477525770664215, 0.010578136891126633, 0.002794981934130192, 0.9975944757461548, 9.34225845336914, 2.0421056747436523, -0.11954721808433533, 0.0, 0.0, 0.0, 0, 0, 0, 0, 0, 0, 9.34225845336914, 2.0421056747436523, -0.11954721808433533
14236, 0.019315002486109734, -0.22392867505550385, 0.010903294198215008, -0.0024035810492932796, 0.06757285445928574, -0.15742021799087524, 0.012170582078397274, 0.0055642020888626575, 1.0001435279846191, 9.359528541564941, 2.045809268951416, -0.1196572333574295, 0.0, 0.0, 0.0, 0, 0, 0, 0, 0, 0, 9.359528541564941, 2.045809268951416, -0.1196572333574295
14246, 0.019286546856164932, -0.22347703576087952, 0.010784834623336792, 0.0493985153734684, 0.07956326752901077, -0.09177491068840027, 0.014646459370851517, 0.004227104131132364, 1.0006799697875977, 9.376813888549805, 2.049516439437866, -0.11976838111877441, 0.0, 0.0, 0.0, 0, 0, 0, 0, 0, 0, 9.376813888549805, 2.049516439437866, -0.11976838111877441
14256, 0.019764306023716927, -0.22299140691757202, 0.011566582135856152, -0.017149027436971664, -0.09763938188552856, 0.048083074390888214, 0.014494380913674831, 0.0025808829814195633, 1.0000202655792236, 9.394115447998047, 2.0532281398773193, -0.11987905949354172, 0.0, 0.0, 0.0, 0, 0, 0, 0, 0, 0, 9.394115447998047, 2.0532281398773193, -0.11987905949354172
14266, 0.020257454365491867, -0.22303670644760132, 0.011331703513860703, 0.04423738643527031, 0.023224640637636185, -0.02531459741294384, 0.013678095303475857, 0.0043596141040325165, 0.9996699690818787, 9.4114351272583, 2.056942939758301, -0.11998917907476425, 0.0, 0.0, 0.0, 0, 0, 0, 0, 0, 0, 9.4114351272583, 2.056942939758301, -0.11998917907476425
14276, 0.021505465731024742, -0.22436735033988953, 0.012356791645288467, 0.23953022062778473, 0.044855665415525436, 0.03353775665163994, 0.0128573477268219, 0.0035311211831867695, 1.0002702474594116, 9.42877197265625, 2.0606608390808105, -0.1200992614030838, 0.0, 0.0, 0.0, 0, 0, 0, 0, 0, 0, 9.42877197265625, 2.0606608390808105, -0.1200992614030838
14286, 0.02099195122718811, -0.224699467420578, 0.013446363620460033, -0.059323750436306, -0.045535244047641754, -0.050747890025377274, 0.011443100869655609, 0.0038986688014119864, 1.0010348558425903, 9.446125984191895, 2.0643820762634277, -0.12020938843488693, 0.0, 0.0, 0.0, 0, 0, 0, 0, 0, 0, 9.446125984191895, 2.0643820762634277, -0.12020938843488693
14296, 0.020762043073773384, -0.22482505440711975, 0.013108625076711178, 0.0048699649050831795, 0.040438201278448105, -0.0896410197019577, 0.010790509171783924, 0.004364426713436842, 1.0017145872116089, 9.463495254516602, 2.0681066513061523, -0.12031902372837067, 0.0, 0.0, 0.0, 0, 0, 0, 0, 0, 0, 9.463495254516602, 2.0681066513061523, -0.12031902372837067
14306, 0.019136017188429832, -0.22683557868003845, 0.01462757308036089, -0.22426152229309082, 0.32056379318237305, 0.16059978306293488, 0.012057207524776459, 0.005942739080637693, 0.9984925985336304, 9.480879783630371, 2.0718348026275635, -0.12042763084173203, 0.0, 0.0, 0.0, 0, 0, 0, 0, 0, 0, 9.480879783630371, 2.0718348026275635, -0.12042763084173203
14316, 0.018957238644361496, -0.22575362026691437, 0.013815239071846008, -0.07060888409614563, -0.17611828446388245, -0.09468856453895569, 0.010731430724263191, 0.006072662305086851, 0.9983463883399963, 9.498279571533203, 2.0755677223205566, -0.1205364391207695, 0.0, 0.0, 0.0, 0, 0, 0, 0, 0, 0, 9.498279571533203, 2.0755677223205566, -0.1205364391207695
14326, 0.01892504096031189, -0.22468242049217224, 0.014346890151500702, -0.071519635617733, -0.17402619123458862, 0.04939037188887596, 0.011325468309223652, 0.004368995316326618, 0.9990107417106628, 9.515693664550781, 2.079306125640869, -0.12064677476882935, 0.0, 0.0, 0.0, 0, 0, 0, 0, 0, 0, 9.515693664550781, 2.079306125640869, -0.12064677476882935
14336, 0.019138595089316368, -0.22411634027957916, 0.013928408734500408, 0.05074329674243927, -0.08222763240337372, -0.0431806743144989, 0.012400775216519833, 0.003439938882365823, 0.9992056488990784, 9.533123016357422, 2.0830490589141846, -0.12075833976268768, 0.0, 0.0, 0.0, 0, 0, 0, 0, 0, 0, 9.533123016357422, 2.0830490589141846, -0.12075833976268768
14346, 0.019444962963461876, -0.2243693768978119, 0.01319937314838171, 0.022692780941724777, 0.07781387120485306, -0.1320682018995285, 0.01500942837446928, 0.004439996555447578, 0.9998943209648132, 9.550567626953125, 2.0867953300476074, -0.12087077647447586, 0.0, 0.0, 0.0, 0, 0, 0, 0, 0, 0, 9.550567626953125, 2.0867953300476074, -0.12087077647447586
14356, 0.020384902134537697, -0.22273574769496918, 0.012464551255106926, 0.12993669509887695, -0.09435085952281952, 0.08456990122795105, 0.014590585604310036, 0.004136699251830578, 0.9999613761901855, 9.568029403686523, 2.090545415878296, -0.1209835484623909, 0.0, 0.0, 0.0, 0, 0, 0, 0, 0, 0, 9.568029403686523, 2.090545415878296, -0.1209835484623909
14366, 0.021053768694400787, -0.2224813550710678, 0.010749674402177334, 0.15538525581359863, -0.15747232735157013, -0.1200200617313385, 0.012317612767219543, 0.002984263002872467, 1.0000373125076294, 9.585509300231934, 2.094299077987671, -0.12109637260437012, 0.0, 0.0, 0.0, 0, 0, 0, 0, 0, 0, 9.585509300231934, 2.094299077987671, -0.12109637260437012
14376, 0.021508969366550446, -0.22410212457180023, 0.011537337675690651, 0.16297951340675354, 0.20307625830173492, -0.012323854491114616, 0.012310890480875969, 0.004442912992089987, 1.0029332637786865, 9.603006362915039, 2.098055601119995, -0.1212090477347374, 0.0, 0.0, 0.0, 0, 0, 0, 0, 0, 0, 9.603006362915039, 2.098055601119995, -0.1212090477347374
14386, 0.02162591926753521, -0.2237919569015503, 0.010414092801511288, -0.007140656933188438, -0.14710605144500732, 0.02959858626127243, 0.012749341316521168, 0.0050141760148108006, 1.0000263452529907, 9.620519638061523, 2.1018154621124268, -0.12132011353969574, 0.0, 0.0, 0.0, 0, 0, 0, 0, 0, 0, 9.620519638061523, 2.1018154621124268, -0.12132011353969574
14396, 0.02211788110435009, -0.22336512804031372, 0.009886021725833416, 0.03584388643503189, -0.05535988137125969, 0.010411006398499012, 0.012778125703334808, 0.004318118095397949, 0.9984928369522095, 9.638049125671387, 2.105579376220703, -0.12142971158027649, 0.0, 0.0, 0.0, 0, 0, 0, 0, 0, 0, 9.638049125671387, 2.105579376220703, -0.12142971158027649
14406, 0.02199351228773594, -0.22509688138961792, 0.010534411296248436, 0.09043808281421661, 0.20125453174114227, 0.10176952928304672, 0.013354500755667686, 0.003243739018216729, 0.9974033236503601, 9.655594825744629, 2.109347343444824, -0.12154004722833633, 0.0, 0.0, 0.0, -0.01082552969455719, 0.02249397337436676, 0.02689420059323311, -2.0753739097408395, 0.2148770449399907, 0.601165155425889, 9.655594825744629, 2.109347343444824, -0.12154004722833633
14416, 0.02297983691096306, -0.22370383143424988, 0.011315915733575821, 0.05325009673833847, -0.19805724918842316, 0.23215477168560028, 0.013376215472817421, 0.002884948393329978, 0.997505247592926, 9.673157691955566, 2.1131184101104736, -0.12165255099534988, 0.0, 0.0, 0.0, -0.010642236098647118, 0.02249225415289402, 0.02666676975786686, -2.0933504937299867, 0.1270129155838525, 0.6864827613068201, 9.673157691955566, 2.1131184101104736, -0.12165255099534988
