timeTick, roll, pitch, yaw, gyroX, gyroY, gyroZ, accX, accY, accZ, stateX, stateY, stateZ, target_x, target_y, target_z, otX, otY, otZ, otRoll, otPitch, otYaw, kalX, kalY, kalZ
15386, 0.07579519599676132, -0.23651574552059174, -0.08992163091897964, 0, 0, 0, 0, 0, 0, 0, 0, 0, 0, 0, 0, 0, 0, 0, 0, 0, 0, 0, 0, 0
15396, 0.0767897218465805, -0.2370663583278656, -0.08964009582996368, 0.1735457330942154, 0.11931732296943665, 0.20689739286899567, -0.0030410028994083405, -0.006098708603531122, 1.0017064809799194, -0.4249914288520813, -4.182801723480225, 0.3118889629840851, 0.0, 0.0, 0.0, 0, 0, 0, 0, 0, 0, -0.4247555136680603, -4.189929008483887, 0.31242161989212036
15406, 0.07729606330394745, -0.23940326273441315, -0.0885583683848381, -0.0008273830753751099, 0.48113492131233215, 0.1089119240641594, -0.002573159756138921, -0.003570775268599391, 1.0009173154830933, -0.4247555136680603, -4.189929008483887, 0.31242161989212036, 0.0, 0.0, 0.0, 0, 0, 0, 0, 0, 0, -0.4245182275772095, -4.1970624923706055, 0.31295591592788696
15416, 0.07701230049133301, -0.23938222229480743, -0.08746515959501266, -0.025266338139772415, -0.10859573632478714, 0.18074756860733032, -0.0015790541656315327, -0.005209876224398613, 1.001305103302002, -0.4245182275772095, -4.1970624923706055, 0.31295591592788696, 0.0, 0.0, 0.0, 0, 0, 0, 0, 0, 0, -0.42427897453308105, -4.204201698303223, 0.31349170207977295
15426, 0.07613075524568558, -0.23952436447143555, -0.08644745498895645, -0.07894586026668549, -0.034626372158527374, 0.20863543450832367, -0.003981045912951231, -0.008796490728855133, 0.9989209771156311, -0.42427897453308105, -4.204201698303223, 0.31349170207977295, 0.0, 0.0, 0.0, 0, 0, 0, 0, 0, 0, -0.42403799295425415, -4.211348056793213, 0.31402796506881714
15436, 0.07546266168355942, -0.23928749561309814, -0.08648405224084854, -0.016366632655262947, 0.10392814129590988, 0.08772154897451401, -0.0037618859205394983, -0.006919735111296177, 1.0017613172531128, -0.42403799295425415, -4.211348056793213, 0.31402796506881714, 0.0, 0.0, 0.0, 0, 0, 0, 0, 0, 0, -0.42379623651504517, -4.218503475189209, 0.31456470489501953
15446, 0.07579360902309418, -0.23876319825649261, -0.0873187780380249, 0.06148657947778702, -0.13279366493225098, -0.05256308615207672, -0.003092132741585374, -0.003611608874052763, 1.0003061294555664, -0.42379623651504517, -4.218503475189209, 0.31456470489501953, 0.0, 0.0, 0.0, 0, 0, 0, 0, 0, 0, -0.42355379462242126, -4.225666046142578, 0.31510230898857117
15456, 0.07619225978851318, -0.23874665796756744, -0.08685630559921265, -0.059457674622535706, 0.15295031666755676, 0.13019655644893646, -0.003872205037623644, -0.0048023066483438015, 1.0004640817642212, -0.42355379462242126, -4.225666046142578, 0.31510230898857117, 0.0, 0.0, 0.0, 0, 0, 0, 0, 0, 0, -0.4233105480670929, -4.2328338623046875, 0.315640389919281
15466, 0.07534606754779816, -0.23954510688781738, -0.08624180406332016, -0.1447283923625946, 0.28214991092681885, -0.11477576196193695, -0.0022192990873008966, -0.005373307038098574, 1.0009161233901978, -0.4233105480670929, -4.2328338623046875, 0.315640389919281, 0.0, 0.0, 0.0, 0, 0, 0, 0, 0, 0, -0.42306622862815857, -4.240007400512695, 0.31617915630340576
15476, 0.07566015422344208, -0.23884209990501404, -0.08489851653575897, 0.09182921797037125, -0.03813602402806282, -0.006123890168964863, -0.0024211390409618616, -0.0050577279180288315, 1.0005650520324707, -0.42306622862815857, -4.240007400512695, 0.31617915630340576, 0.0, 0.0, 0.0, 0, 0, 0, 0, 0, 0, -0.42282044887542725, -4.247187614440918, 0.316718727350235
15486, 0.07447902858257294, -0.2397586554288864, -0.08385684341192245, -0.058771345764398575, 0.016564402729272842, -0.03603098541498184, -0.0008975435048341751, -0.005321017000824213, 1.001046061515808, -0.42282044887542725, -4.247187614440918, 0.316718727350235, 0.0, 0.0, 0.0, 0, 0, 0, 0, 0, 0, -0.422572523355484, -4.2543745040893555, 0.3172591030597687
15496, 0.0739959254860878, -0.24031123518943787, -0.08161397278308868, 0.11874903738498688, 0.02996049076318741, 0.09320414066314697, -0.001477468409575522, -0.0049466523341834545, 0.9997422099113464, -0.422572523355484, -4.2543745040893555, 0.3172591030597687, 0.0, 0.0, 0.0, 0, 0, 0, 0, 0, 0, -0.4222966730594635, -4.262287139892578, 0.31785401701927185
15506, 0.07442034035921097, -0.24170784652233124, -0.08070015162229538, 0.062285564839839935, 0.13848772644996643, 0.048228681087493896, -0.0010933096054941416, -0.005314519163221121, 0.9983341693878174, -0.4222966730594635, -4.262287139892578, 0.31785401701927185, 0.0, 0.0, 0.0, 0, 0, 0, 0, 0, 0, -0.4220430254936218, -4.269487380981445, 0.3183943033218384
15516, 0.0751025527715683, -0.24271810054779053, -0.08026784658432007, 0.065482959151268, -0.03604256361722946, -0.10614939033985138, -0.002369595691561699, -0.005410708021372557, 1.0005784034729004, -0.4220430254936218, -4.269487380981445, 0.3183943033218384, 0.0, 0.0, 0.0, 0, 0, 0, 0, 0, 0, -0.42178693413734436, -4.276694297790527, 0.31893396377563477
15526, 0.07377510517835617, -0.2434387356042862, -0.0811595544219017, -0.11443298310041428, 0.06535333395004272, -0.2139895260334015, -0.001155010424554348, -0.004383629187941551, 1.0018744468688965, -0.42178693413734436, -4.276694297790527, 0.31893396377563477, 0.0, 0.0, 0.0, 0, 0, 0, 0, 0, 0, -0.42178693413734436, -4.276694297790527, 0.31893396377563477
15536, 0.07380113005638123, -0.24503275752067566, -0.08119054138660431, -0.006323991343379021, 0.32050108909606934, 0.11054396629333496, -0.0017556472448632121, -0.005631396546959877, 1.0002849102020264, -0.4215283691883087, -4.283907413482666, 0.31947439908981323, 0.0, 0.0, 0.0, 0, 0, 0, 0, 0, 0, -0.421267032623291, -4.291126728057861, 0.32001590728759766
15546, 0.07310803234577179, -0.24594303965568542, -0.08170127123594284, -0.09554217755794525, 0.09749734401702881, 0.03576379269361496, -0.002112975111231208, -0.005226267967373133, 0.9993301630020142, -0.421267032623291, -4.291126728057861, 0.32001590728759766, 0.0, 0.0, 0.0, 0, 0, 0, 0, 0, 0, -0.421267032623291, -4.291126728057861, 0.32001590728759766
15556, 0.07237429916858673, -0.24818134307861328, -0.08055642992258072, 0.043397534638643265, 0.21290995180606842, 0.11079715192317963, -0.00129033497069031, -0.004889677744358778, 1.0016423463821411, -0.42100340127944946, -4.2983527183532715, 0.320557564496994, 0.0, 0.0, 0.0, 0, 0, 0, 0, 0, 0, -0.42100340127944946, -4.2983527183532715, 0.320557564496994
15566, 0.07222472876310349, -0.24738629162311554, -0.08079544454813004, -0.06694436073303223, -0.1744268387556076, -0.1460634171962738, -0.0028395671397447586, -0.0071299029514193535, 0.9999456405639648, -0.42073747515678406, -4.305584907531738, 0.32109981775283813, 0.0, 0.0, 0.0, 0, 0, 0, 0, 0, 0, -0.42073747515678406, -4.305584907531738, 0.32109981775283813
15576, 0.0729365348815918, -0.2481025755405426, -0.08171053230762482, -0.09859766066074371, 0.2547779679298401, -0.06282416731119156, -0.0023612268269062042, -0.008376345969736576, 0.9978566765785217, -0.42046940326690674, -4.31282377243042, 0.32164284586906433, 0.0, 0.0, 0.0, 0, 0, 0, 0, 0, 0, -0.42046940326690674, -4.31282377243042, 0.32164284586906433
15586, 0.07414589822292328, -0.24783025681972504, -0.08206534385681152, 0.04732147231698036, 0.03288985788822174, 0.06788020581007004, -0.001385558396577835, -0.0051380484364926815, 0.9986708760261536, -0.42019960284233093, -4.320071220397949, 0.32218509912490845, 0.0, 0.0, 0.0, 0, 0, 0, 0, 0, 0, -0.42019960284233093, -4.320071220397949, 0.32218509912490845
15596, 0.07445088028907776, -0.24748940765857697, -0.08235432207584381, 0.022772228345274925, -0.0114362807944417, -0.0881647989153862, -0.004203592427074909, -0.00472668232396245, 1.002334713935852, -0.4199274480342865, -4.327326774597168, 0.32272598147392273, 0.0, 0.0, 0.0, 0, 0, 0, 0, 0, 0, -0.4199274480342865, -4.327326774597168, 0.32272598147392273
15606, 0.07476411014795303, -0.24813835322856903, -0.08129430562257767, -0.05934857204556465, 0.09603852033615112, 0.020480208098888397, -0.0011974443914368749, -0.005320930853486061, 1.0013116598129272, -0.4196535646915436, -4.334589004516602, 0.32326728105545044, 0.0, 0.0, 0.0, 0, 0, 0, 0, 0, 0, -0.4196535646915436, -4.334589004516602, 0.32326728105545044
15616, 0.07465282082557678, -0.24724946916103363, -0.08207549899816513, -0.10799979418516159, -0.15110774338245392, -0.20983076095581055, -0.003152502002194524, -0.00588948791846633, 1.000885248184204, -0.4193781018257141, -4.341857433319092, 0.3238101601600647, 0.0, 0.0, 0.0, 0, 0, 0, 0, 0, 0, -0.4193781018257141, -4.341857433319092, 0.3238101601600647
15626, 0.0744469165802002, -0.245781809091568, -0.08221390843391418, -0.1671253889799118, -0.32311803102493286, -0.0868123322725296, -0.0037330053746700287, -0.006442022044211626, 1.0002449750900269, -0.4191005825996399, -4.349132061004639, 0.3243540823459625, 0.0, 0.0, 0.0, 0, 0, 0, 0, 0, 0, -0.4191005825996399, -4.349132061004639, 0.3243540823459625
15636, 0.07570555061101913, -0.24534772336483002, -0.08076952397823334, 0.177070751786232, -0.24952933192253113, -0.022818341851234436, -0.0028041431214660406, -0.005655725486576557, 0.9996906518936157, -0.4188217520713806, -4.356413841247559, 0.32489868998527527, 0.0, 0.0, 0.0, 0, 0, 0, 0, 0, 0, -0.4188217520713806, -4.356413841247559, 0.32489868998527527
15646, 0.07637973129749298, -0.24580048024654388, -0.08037254214286804, 0.19847744703292847, -0.06480870395898819, 0.026316214352846146, -0.0038885497488081455, -0.00531740952283144, 0.9995294809341431, -0.41854196786880493, -4.363702774047852, 0.32544344663619995, 0.0, 0.0, 0.0, 0, 0, 0, 0, 0, 0, -0.41854196786880493, -4.363702774047852, 0.32544344663619995
15656, 0.07620976865291595, -0.24827560782432556, -0.078194260597229, 0.005602116230875254, 0.31728044152259827, 0.11316078901290894, -0.0052466122433543205, -0.0055551170371472836, 1.0009516477584839, -0.4182615578174591, -4.370998382568359, 0.3259879946708679, 0.0, 0.0, 0.0, 0, 0, 0, 0, 0, 0, -0.4182615578174591, -4.370998382568359, 0.3259879946708679
15666, 0.07629991322755814, -0.248285710811615, -0.07748454064130783, 0.01535435114055872, -0.01972365751862526, 0.01112466212362051, -0.0036104649771004915, -0.004818962886929512, 1.0019254684448242, -0.41798135638237, -4.378300666809082, 0.32653307914733887, 0.0, 0.0, 0.0, 0, 0, 0, 0, 0, 0, -0.41798135638237, -4.378300666809082, 0.32653307914733887
15676, 0.07696651667356491, -0.2507064938545227, -0.0761006772518158, 0.08717071264982224, 0.5299633145332336, 0.18227837979793549, -0.00350646092556417, -0.0038840456400066614, 1.0008140802383423, -0.41770118474960327, -4.3856096267700195, 0.3270795941352844, 0.0, 0.0, 0.0, 0, 0, 0, 0, 0, 0, -0.41770118474960327, -4.3856096267700195, 0.3270795941352844
15686, 0.07718174904584885, -0.2507118582725525, -0.07669982314109802, 0.009691864252090454, 0.09329073876142502, -0.09134574234485626, -0.0045728967525064945, -0.0034150774590671062, 1.0014216899871826, -0.4174201786518097, -4.3929243087768555, 0.3276272416114807, 0.0, 0.0, 0.0, 0, 0, 0, 0, 0, 0, -0.4174201786518097, -4.3929243087768555, 0.3276272416114807
15696, 0.07702420651912689, -0.25112733244895935, -0.07508859038352966, -0.03149893134832382, 0.05042356625199318, 0.1254049390554428, -0.0021513651590794325, -0.005773053504526615, 1.0016801357269287, -0.4171386659145355, -4.400244235992432, 0.32817572355270386, 0.0, 0.0, 0.0, 0, 0, 0, 0, 0, 0, -0.4171386659145355, -4.400244235992432, 0.32817572355270386
15706, 0.07701772451400757, -0.25089558959007263, -0.07466410845518112, -0.056617725640535355, -0.004900405183434486, 0.0714828222990036, -0.00030023776344023645, -0.006890491116791964, 0.9995259046554565, -0.41685619950294495, -4.407569885253906, 0.32872554659843445, 0.0, 0.0, 0.0, 0, 0, 0, 0, 0, 0, -0.41685619950294495, -4.407569885253906, 0.32872554659843445
15716, 0.07693394273519516, -0.251632958650589, -0.0751955434679985, -0.004258506931364536, 0.0882105603814125, -0.13472412526607513, -0.0034954166039824486, -0.006058929488062859, 0.9998654127120972, -0.41657087206840515, -4.414902687072754, 0.3292762041091919, 0.0, 0.0, 0.0, 0, 0, 0, 0, 0, 0, -0.41657087206840515, -4.414902687072754, 0.3292762041091919
15726, 0.0770859569311142, -0.25268107652664185, -0.07512164860963821, 0.11352849751710892, 0.194226935505867, 0.03871913626790047, -0.0046377950347959995, -0.004487511236220598, 1.0027306079864502, -0.41628289222717285, -4.422243118286133, 0.32982686161994934, 0.0, 0.0, 0.0, 0, 0, 0, 0, 0, 0, -0.41628289222717285, -4.422243118286133, 0.32982686161994934
15736, 0.07679661363363266, -0.25417080521583557, -0.07469034194946289, 0.04720499366521835, 0.21753734350204468, 0.17465266585350037, -0.0018851706990972161, -0.005515675991773605, 1.0021345615386963, -0.41599422693252563, -4.429590225219727, 0.3303786516189575, 0.0, 0.0, 0.0, 0, 0, 0, 0, 0, 0, -0.41599422693252563, -4.429590225219727, 0.3303786516189575
15746, 0.07668522000312805, -0.2555229663848877, -0.07524954527616501, -0.07124049216508865, 0.09322801977396011, -0.1120985671877861, -5.633049295283854e-05, -0.005296326242387295, 1.0004494190216064, -0.4157046377658844, -4.436944007873535, 0.3309325873851776, 0.0, 0.0, 0.0, 0, 0, 0, 0, 0, 0, -0.4157046377658844, -4.436944007873535, 0.3309325873851776
15756, 0.07709947973489761, -0.25692105293273926, -0.07448282092809677, -0.08083470165729523, 0.046808212995529175, 0.06357228755950928, -0.0009656864567659795, -0.005694919731467962, 1.0000202655792236, -0.41541197896003723, -4.444304466247559, 0.33148783445358276, 0.0, 0.0, 0.0, 0, 0, 0, 0, 0, 0, -0.41541197896003723, -4.444304466247559, 0.33148783445358276
15766, 0.0768103301525116, -0.25772586464881897, -0.07372348755598068, -0.09783558547496796, 0.10672147572040558, 0.265607625246048, -0.0033045331947505474, -0.006370000075548887, 1.0009931325912476, -0.4151155948638916, -4.451671600341797, 0.3320433497428894, 0.0, 0.0, 0.0, 0, 0, 0, 0, 0, 0, -0.4151155948638916, -4.451671600341797, 0.3320433497428894
15776, 0.07697044312953949, -0.2566905617713928, -0.07384350150823593, 0.022417662665247917, -0.1834825873374939, -0.022322341799736023, -0.0011544445296749473, -0.005071720574051142, 1.002591848373413, -0.41481679677963257, -4.459045886993408, 0.332599401473999, 0.0, 0.0, 0.0, 0, 0, 0, 0, 0, 0, -0.41481679677963257, -4.459045886993408, 0.332599401473999
15786, 0.07575060427188873, -0.2573530077934265, -0.07610330730676651, -0.21440090239048004, 0.18634973466396332, -0.36610493063926697, -0.002193672815337777, -0.00445735827088356, 1.0034325122833252, -0.41451582312583923, -4.466427326202393, 0.33315715193748474, 0.0, 0.0, 0.0, 0, 0, 0, 0, 0, 0, -0.41451582312583923, -4.466427326202393, 0.33315715193748474
15796, 0.0749090239405632, -0.25545474886894226, -0.07597588002681732, -0.10929650813341141, -0.22067177295684814, 0.095441073179245, -0.0025678956881165504, -0.004945660009980202, 1.0033059120178223, -0.41421204805374146, -4.473814964294434, 0.33371758460998535, 0.0, 0.0, 0.0, 0, 0, 0, 0, 0, 0, -0.41421204805374146, -4.473814964294434, 0.33371758460998535
15806, 0.07432598620653152, -0.2552148103713989, -0.07507892698049545, -0.06543977558612823, -0.10991828143596649, 0.09967467933893204, -0.002726376987993717, -0.0037835314869880676, 0.9986660480499268, -0.4139060378074646, -4.481208324432373, 0.3342810869216919, 0.0, 0.0, 0.0, 0, 0, 0, 0, 0, 0, -0.4139060378074646, -4.481208324432373, 0.3342810869216919
15816, 0.0741620883345604, -0.25513070821762085, -0.0759315937757492, -0.04110170155763626, -0.1310320347547531, -0.10662678629159927, -0.0030250558629631996, -0.006222305353730917, 0.9987583756446838, -0.4135983884334564, -4.488607406616211, 0.33484572172164917, 0.0, 0.0, 0.0, 0, 0, 0, 0, 0, 0, -0.4135983884334564, -4.488607406616211, 0.33484572172164917
15826, 0.07412366569042206, -0.25566405057907104, -0.07474997639656067, -0.04540553689002991, -0.01797378994524479, 0.09091232717037201, -0.0020617512054741383, -0.005033104680478573, 0.9983733296394348, -0.41328930854797363, -4.4960126876831055, 0.3354094922542572, 0.0, 0.0, 0.0, 0, 0, 0, 0, 0, 0, -0.41328930854797363, -4.4960126876831055, 0.3354094922542572
15836, 0.07388820499181747, -0.2564418613910675, -0.0752357468008995, 0.019094135612249374, 0.10015837103128433, -0.15066957473754883, -0.0008888902957551181, -0.0037076312582939863, 0.9995393753051758, -0.4129784405231476, -4.503424644470215, 0.3359721004962921, 0.0, 0.0, 0.0, 0, 0, 0, 0, 0, 0, -0.4129784405231476, -4.503424644470215, 0.3359721004962921
15846, 0.07353080809116364, -0.2565120458602905, -0.07551317662000656, 0.006862207781523466, 0.07522747665643692, -0.05984419956803322, -0.0019930864218622446, -0.006154330912977457, 0.9988290071487427, -0.41266483068466187, -4.510842323303223, 0.33653369545936584, 0.0, 0.0, 0.0, 0, 0, 0, 0, 0, 0, -0.41266483068466187, -4.510842323303223, 0.33653369545936584
15856, 0.07413272559642792, -0.2536829113960266, -0.07649374008178711, 0.051582999527454376, -0.25814753770828247, -0.22120638191699982, -0.002665364183485508, -0.005433593410998583, 0.9979790449142456, -0.41234827041625977, -4.518265724182129, 0.3370945155620575, 0.0, 0.0, 0.0, 0, 0, 0, 0, 0, 0, -0.41234827041625977, -4.518265724182129, 0.3370945155620575
15866, 0.07424722611904144, -0.25691816210746765, -0.07668847590684891, 0.04001782462000847, 0.5104860067367554, 0.01516973227262497, -0.0029549968894571066, -0.004188786260783672, 0.9980509281158447, -0.41202956438064575, -4.525696277618408, 0.3376539647579193, 0.0, 0.0, 0.0, 0, 0, 0, 0, 0, 0, -0.41202956438064575, -4.525696277618408, 0.3376539647579193
15876, 0.0729295015335083, -0.25716328620910645, -0.07955928891897202, -0.0694650262594223, -0.018105829134583473, -0.4446979761123657, -0.002435768721625209, -0.006004287861287594, 1.001920461654663, -0.41170939803123474, -4.533132553100586, 0.3382115960121155, 0.0, 0.0, 0.0, 0, 0, 0, 0, 0, 0, -0.41170939803123474, -4.533132553100586, 0.3382115960121155
15886, 0.07171127945184708, -0.25810354948043823, -0.07863323390483856, -0.18970921635627747, 0.07714321464300156, 0.21727949380874634, -0.002099616453051567, -0.005380367394536734, 1.0014615058898926, -0.41138771176338196, -4.5405755043029785, 0.33876901865005493, 0.0, 0.0, 0.0, 0, 0, 0, 0, 0, 0, -0.41138771176338196, -4.5405755043029785, 0.33876901865005493
15896, 0.07171176373958588, -0.25881075859069824, -0.07802088558673859, 0.005900908261537552, 0.05239146947860718, -0.017801932990550995, -0.0026507701259106398, -0.005660684313625097, 0.9989723563194275, -0.41106393933296204, -4.548025131225586, 0.33932778239250183, 0.0, 0.0, 0.0, 0, 0, 0, 0, 0, 0, -0.41106393933296204, -4.548025131225586, 0.33932778239250183
15906, 0.07141006737947464, -0.25901785492897034, -0.07787998020648956, -0.03284039720892906, -0.054191846400499344, -0.15996502339839935, -0.0034591674339026213, -0.005344676785171032, 0.9989235997200012, -0.4107378423213959, -4.555481433868408, 0.339886873960495, 0.0, 0.0, 0.0, 0, 0, 0, 0, 0, 0, -0.4107378423213959, -4.555481433868408, 0.339886873960495
15916, 0.07108981162309647, -0.25837284326553345, -0.07951553910970688, 0.0006295458879321814, -0.08768845349550247, -0.21206575632095337, -0.0026047024875879288, -0.00601261155679822, 1.0004465579986572, -0.41041019558906555, -4.562943935394287, 0.3404451310634613, 0.0, 0.0, 0.0, 0, 0, 0, 0, 0, 0, -0.41041019558906555, -4.562943935394287, 0.3404451310634613
15926, 0.07177353650331497, -0.2584865689277649, -0.07897444814443588, 0.12129081040620804, -0.021736036986112595, -0.03414652496576309, -0.002276080660521984, -0.00596215482801199, 0.9991995692253113, -0.41008126735687256, -4.570413589477539, 0.3410030007362366, 0.0, 0.0, 0.0, 0, 0, 0, 0, 0, 0, -0.41008126735687256, -4.570413589477539, 0.3410030007362366
15936, 0.07190055400133133, -0.2574022114276886, -0.0800694152712822, 0.008712533861398697, -0.14745178818702698, -0.050348248332738876, -0.0029919990338385105, -0.005628457758575678, 1.001676082611084, -0.40975019335746765, -4.577889919281006, 0.3415607511997223, 0.0, 0.0, 0.0, 0, 0, 0, 0, 0, 0, -0.40975019335746765, -4.577889919281006, 0.3415607511997223
15946, 0.07229314744472504, -0.2579330801963806, -0.07948782294988632, -0.03961306810379028, 0.14888252317905426, 0.21965423226356506, -0.0025408363435417414, -0.004241322632879019, 0.999828577041626, -0.40941697359085083, -4.5853729248046875, 0.34211885929107666, 0.0, 0.0, 0.0, 0, 0, 0, 0, 0, 0, -0.40941697359085083, -4.5853729248046875, 0.34211885929107666
15956, 0.0723571628332138, -0.25850117206573486, -0.08071406930685043, -0.03469034284353256, 0.1837630718946457, -0.17425163090229034, -0.0014742964413017035, -0.004300721455365419, 0.9997373819351196, -0.40908193588256836, -4.592862129211426, 0.34267759323120117, 0.0, 0.0, 0.0, 0, 0, 0, 0, 0, 0, -0.40908193588256836, -4.592862129211426, 0.34267759323120117
15966, 0.07335443794727325, -0.25683727860450745, -0.08049184083938599, 0.11455381661653519, -0.31664955615997314, -0.02578039839863777, -0.0007524339598603547, -0.005618249531835318, 1.0005292892456055, -0.40874457359313965, -4.600356578826904, 0.34323635697364807, 0.0, 0.0, 0.0, 0, 0, 0, 0, 0, 0, -0.40874457359313965, -4.600356578826904, 0.34323635697364807
15976, 0.07325781136751175, -0.25703105330467224, -0.08158142119646072, -0.05695474147796631, 0.021529704332351685, -0.05924098938703537, -0.0018588873790577054, -0.0046355207450687885, 1.0016602277755737, -0.40840402245521545, -4.6078572273254395, 0.34379541873931885, 0.0, 0.0, 0.0, 0, 0, 0, 0, 0, 0, -0.40840402245521545, -4.6078572273254395, 0.34379541873931885
15986, 0.07300834357738495, -0.2588743269443512, -0.08140645921230316, -0.02225099876523018, 0.15768395364284515, 0.043656595051288605, -0.0026775819715112448, -0.0038966515567153692, 1.0002856254577637, -0.4080602824687958, -4.615364074707031, 0.3443554937839508, 0.0, 0.0, 0.0, 0, 0, 0, 0, 0, 0, -0.4080602824687958, -4.615364074707031, 0.3443554937839508
15996, 0.0733923390507698, -0.25903886556625366, -0.08098199218511581, -0.037120845168828964, -0.09156500548124313, -0.07521726191043854, -0.0020755359437316656, -0.005379300564527512, 1.0005022287368774, -0.40771403908729553, -4.6228766441345215, 0.34491658210754395, 0.0, 0.0, 0.0, 0, 0, 0, 0, 0, 0, -0.40771403908729553, -4.6228766441345215, 0.34491658210754395
16006, 0.0749087855219841, -0.2608661353588104, -0.08098983764648438, 0.21728381514549255, 0.23911058902740479, 0.039780694991350174, -0.0023392338771373034, -0.005303667392581701, 0.9997918009757996, -0.4073655903339386, -4.630395412445068, 0.3454781472682953, 0.0, 0.0, 0.0, 0, 0, 0, 0, 0, 0, -0.4073655903339386, -4.630395412445068, 0.3454781472682953
16016, 0.07575560361146927, -0.26119744777679443, -0.07960087805986404, 0.12476873397827148, 0.05437657609581947, 0.27584561705589294, -0.001501358114182949, -0.008613343350589275, 1.000328779220581, -0.4070149064064026, -4.637920379638672, 0.3460398018360138, 0.0, 0.0, 0.0, 0, 0, 0, 0, 0, 0, -0.4070149064064026, -4.637920379638672, 0.3460398018360138
16026, 0.07710137218236923, -0.261120468378067, -0.07904491573572159, 0.25416111946105957, -0.04553813114762306, 0.11766691505908966, -0.0029352151323109865, -0.005316488444805145, 0.9992661476135254, -0.4066618084907532, -4.645453453063965, 0.34660136699676514, 0.0, 0.0, 0.0, 0, 0, 0, 0, 0, 0, -0.4066618084907532, -4.645453453063965, 0.34660136699676514
16036, 0.07776188850402832, -0.26282647252082825, -0.07720779627561569, 0.08448750525712967, 0.2222689688205719, 0.2942146062850952, -0.0027149070519953966, -0.005913896020501852, 1.0011708736419678, -0.4063064455986023, -4.652994632720947, 0.347162663936615, 0.0, 0.0, 0.0, 0, 0, 0, 0, 0, 0, -0.4063064455986023, -4.652994632720947, 0.347162663936615
16046, 0.07819570600986481, -0.26385003328323364, -0.07524994760751724, -0.005517775192856789, 0.16081811487674713, 0.29043155908584595, -0.0012984898639842868, -0.0036654635332524776, 1.0005518198013306, -0.4059494137763977, -4.6605424880981445, 0.347724050283432, 0.0, 0.0, 0.0, 0, 0, 0, 0, 0, 0, -0.4059494137763977, -4.6605424880981445, 0.347724050283432
16056, 0.07852201908826828, -0.2622317969799042, -0.07609490305185318, 0.07189546525478363, -0.1898275464773178, -0.011879416182637215, -0.0019536404870450497, -0.004185187164694071, 1.0011037588119507, -0.4055902063846588, -4.668096542358398, 0.3482862412929535, 0.0, 0.0, 0.0, 0, 0, 0, 0, 0, 0, -0.4055902063846588, -4.668096542358398, 0.3482862412929535
16066, 0.07894445955753326, -0.26373493671417236, -0.07574529945850372, 0.04464491084218025, 0.4068557322025299, 0.058211904019117355, -0.0018991818651556969, -0.0036148978397250175, 0.9981648325920105, -0.40522825717926025, -4.675655841827393, 0.34884926676750183, 0.0, 0.0, 0.0, 0, 0, 0, 0, 0, 0, -0.40522825717926025, -4.675655841827393, 0.34884926676750183
16076, 0.07957576960325241, -0.26238834857940674, -0.07698342204093933, 0.1766606867313385, -0.2672894299030304, -0.26408419013023376, -0.003309180960059166, -0.005667795892804861, 1.0003185272216797, -0.40486371517181396, -4.683219909667969, 0.34941205382347107, 0.0, 0.0, 0.0, 0, 0, 0, 0, 0, 0, -0.40486371517181396, -4.683219909667969, 0.34941205382347107
16086, 0.07969086617231369, -0.26411452889442444, -0.07622667402029037, 0.1288241147994995, 0.3048098385334015, 0.09244748204946518, -0.004714886657893658, -0.007415995933115482, 1.0016870498657227, -0.4044972062110901, -4.690790176391602, 0.3499741554260254, 0.0, 0.0, 0.0, 0, 0, 0, 0, 0, 0, -0.4044972062110901, -4.690790176391602, 0.3499741554260254
16096, 0.08038967102766037, -0.26459982991218567, -0.07548902928829193, 0.12079457193613052, 0.07438729703426361, -0.03692982718348503, -0.0016161359380930662, -0.005938829854130745, 1.0004429817199707, -0.4041298031806946, -4.698368072509766, 0.350536972284317, 0.0, 0.0, 0.0, 0, 0, 0, 0, 0, 0, -0.4041298031806946, -4.698368072509766, 0.350536972284317
16106, 0.07979749888181686, -0.26447945833206177, -0.0763566792011261, -0.11946213990449905, -0.04072296619415283, -0.14253506064414978, -0.002051647286862135, -0.00610072398558259, 0.9996470212936401, -0.40376079082489014, -4.705953598022461, 0.3511006534099579, 0.0, 0.0, 0.0, 0, 0, 0, 0, 0, 0, -0.40376079082489014, -4.705953598022461, 0.3511006534099579
16116, 0.07837071269750595, -0.2667447626590729, -0.07580668479204178, -0.18146292865276337, 0.27393612265586853, 0.0469651073217392, -0.002166438614949584, -0.004503720439970493, 1.000491738319397, -0.4033890962600708, -4.7135467529296875, 0.3516644835472107, 0.0, 0.0, 0.0, 0, 0, 0, 0, 0, 0, -0.4033890962600708, -4.7135467529296875, 0.3516644835472107
16126, 0.07738454639911652, -0.26652243733406067, -0.07573030889034271, -0.0669010728597641, -0.060060761868953705, 0.04879685863852501, -0.002231915481388569, -0.003058298258110881, 1.0008400678634644, -0.4030148684978485, -4.721146583557129, 0.352228581905365, 0.0, 0.0, 0.0, 0, 0, 0, 0, 0, 0, -0.4030148684978485, -4.721146583557129, 0.352228581905365
16136, 0.07781500369310379, -0.2649475336074829, -0.07476283609867096, 0.11916476488113403, -0.0798487439751625, 0.11496716737747192, -0.0016251213382929564, -0.004016287159174681, 0.9990519285202026, -0.40263816714286804, -4.7287516593933105, 0.352793425321579, 0.0, 0.0, 0.0, 0, 0, 0, 0, 0, 0, -0.40263816714286804, -4.7287516593933105, 0.352793425321579
16146, 0.07671143859624863, -0.26661136746406555, -0.07497633248567581, -0.20262940227985382, 0.2741755545139313, -0.01158597506582737, -0.0030137551948428154, -0.006227714009582996, 1.0002527236938477, -0.40225881338119507, -4.736361503601074, 0.3533582091331482, 0.0, 0.0, 0.0, 0, 0, 0, 0, 0, 0, -0.40225881338119507, -4.736361503601074, 0.3533582091331482
16156, 0.0753694623708725, -0.2671659588813782, -0.07729950547218323, -0.1576656997203827, -0.016080593690276146, -0.23157590627670288, -0.0032771627884358168, -0.004615213721990585, 1.002142310142517, -0.40187710523605347, -4.7439775466918945, 0.3539227545261383, 0.0, 0.0, 0.0, 0, 0, 0, 0, 0, 0, -0.40187710523605347, -4.7439775466918945, 0.3539227545261383
16166, 0.07497572898864746, -0.2688259184360504, -0.07666649669408798, -0.05557345598936081, 0.10307569056749344, 0.13802042603492737, -0.003623971017077565, -0.00585683761164546, 1.000650405883789, -0.40149372816085815, -4.7515997886657715, 0.3544885516166687, 0.0, 0.0, 0.0, 0, 0, 0, 0, 0, 0, -0.40149372816085815, -4.7515997886657715, 0.3544885516166687
16176, 0.07458057999610901, -0.26935726404190063, -0.07753398269414902, 0.015375248156487942, 0.15502209961414337, -0.04427405819296837, -0.00325063057243824, -0.00662151537835598, 1.00004243850708, -0.40110909938812256, -4.759228706359863, 0.35505568981170654, 0.0, 0.0, 0.0, 0, 0, 0, 0, 0, 0, -0.40110909938812256, -4.759228706359863, 0.35505568981170654
16186, 0.07370327413082123, -0.2680325508117676, -0.07840178161859512, -0.03302590176463127, -0.1907433569431305, -0.2547312378883362, -0.002658282406628132, -0.004069237969815731, 0.999133288860321, -0.40072306990623474, -4.766864776611328, 0.35562315583229065, 0.0, 0.0, 0.0, 0, 0, 0, 0, 0, 0, -0.40072306990623474, -4.766864776611328, 0.35562315583229065
16196, 0.07227156311273575, -0.2694562077522278, -0.07703103870153427, -0.1259094625711441, 0.17730771005153656, 0.10780586302280426, -0.0023752825800329447, -0.004436865448951721, 0.999499499797821, -0.4003351926803589, -4.774507522583008, 0.3561902344226837, 0.0, 0.0, 0.0, 0, 0, 0, 0, 0, 0, -0.4003351926803589, -4.774507522583008, 0.3561902344226837
16206, 0.07267767935991287, -0.26912254095077515, -0.07613418996334076, 0.011041669175028801, -0.08547347784042358, 0.12334475666284561, -0.0003413929371163249, -0.0035957475192844868, 0.9976634979248047, -0.3999451994895935, -4.782155990600586, 0.35675662755966187, 0.0, 0.0, 0.0, 0, 0, 0, 0, 0, 0, -0.3999451994895935, -4.782155990600586, 0.35675662755966187
16216, 0.07302427291870117, -0.2716374695301056, -0.07623528689146042, -0.04826245456933975, 0.42580974102020264, -0.2062980830669403, -0.003863314865157008, -0.004531413782387972, 0.9986362457275391, -0.39955219626426697, -4.789809703826904, 0.3573217988014221, 0.0, 0.0, 0.0, 0, 0, 0, 0, 0, 0, -0.39955219626426697, -4.789809703826904, 0.3573217988014221
16226, 0.07256831973791122, -0.2720852196216583, -0.07583983242511749, -0.09179005771875381, -0.03743482008576393, 0.11938343197107315, -0.0041138725355267525, -0.006033416371792555, 0.999102771282196, -0.3991566598415375, -4.797468662261963, 0.3578852415084839, 0.0, 0.0, 0.0, 0, 0, 0, 0, 0, 0, -0.3991566598415375, -4.797468662261963, 0.3578852415084839
16236, 0.07287247478961945, -0.27207815647125244, -0.0759328305721283, 0.03326931595802307, 0.06235587224364281, -0.003756619291380048, -0.0033699672203511, -0.008731316775083542, 0.9988359808921814, -0.39876022934913635, -4.805134296417236, 0.35844749212265015, 0.0, 0.0, 0.0, 0, 0, 0, 0, 0, 0, -0.3983626663684845, -4.812808513641357, 0.3590088486671448
16246, 0.07330311834812164, -0.2721131145954132, -0.07615531980991364, 0.022884102538228035, 0.15813370048999786, 0.10198915004730225, -7.49842292862013e-05, -0.006244147662073374, 1.0001908540725708, -0.3983626663684845, -4.812808513641357, 0.3590088486671448, 0.0, 0.0, 0.0, 0, 0, 0, 0, 0, 0, -0.3983626663684845, -4.812808513641357, 0.3595696985721588
16256, 0.07369336485862732, -0.2716723084449768, -0.07636040449142456, 0.07974188029766083, 0.026041783392429352, -0.003356239525601268, -0.0010972445597872138, -0.004997716285288334, 1.0025830268859863, -0.39796194434165955, -4.820491313934326, 0.3595696985721588, 0.0, 0.0, 0.0, 0, 0, 0, 0, 0, 0, -0.39755702018737793, -4.828181266784668, 0.3601316809654236
16266, 0.07404513657093048, -0.27222388982772827, -0.0754048302769661, 0.14715510606765747, 0.08281627297401428, 0.16318121552467346, -0.002200906164944172, -0.0053790598176419735, 0.9997478723526001, -0.39755702018737793, -4.828181266784668, 0.3601316809654236, 0.0, 0.0, 0.0, 0, 0, 0, 0, 0, 0, -0.39714881777763367, -4.835877895355225, 0.36069515347480774
16276, 0.07352952659130096, -0.26974016427993774, -0.07599252462387085, -0.07515808939933777, -0.3353220522403717, -0.13921689987182617, -0.001356470282189548, -0.002781682414934039, 1.0021413564682007, -0.39714881777763367, -4.835877895355225, 0.36069515347480774, 0.0, 0.0, 0.0, 0, 0, 0, 0, 0, 0, -0.39673763513565063, -4.84358024597168, 0.3612600564956665
16286, 0.07408757507801056, -0.2696130573749542, -0.07560151070356369, 0.16207833588123322, 0.0022495065350085497, -0.013967588543891907, -0.0021242389921098948, -0.003730521770194173, 1.0035252571105957, -0.39673763513565063, -4.84358024597168, 0.3612600564956665, 0.0, 0.0, 0.0, 0, 0, 0, 0, 0, 0, -0.396323561668396, -4.851286888122559, 0.36182767152786255
16296, 0.0739278793334961, -0.2688229978084564, -0.0766003429889679, 0.07389908283948898, -0.10329287499189377, -0.034019533544778824, -0.0037877249997109175, -0.004483552183955908, 1.000074863433838, -0.396323561668396, -4.851286888122559, 0.36182767152786255, 0.0, 0.0, 0.0, 0, 0, 0, 0, 0, 0, -0.3959074914455414, -4.858998775482178, 0.36239758133888245
16306, 0.07366842031478882, -0.2700346112251282, -0.07690811157226562, 0.044390689581632614, 0.08664469420909882, -0.010360009968280792, -0.005506481975317001, -0.0051542059518396854, 0.9985846877098083, -0.3959074914455414, -4.858998775482178, 0.36239758133888245, 0.0, 0.0, 0.0, 0, 0, 0, 0, 0, 0, -0.3954911530017853, -4.866716384887695, 0.36296766996383667
16316, 0.07432270050048828, -0.2689846158027649, -0.07853371649980545, 0.1026841476559639, -0.3123537003993988, -0.24353453516960144, -0.0027443403378129005, -0.0037162560038268566, 1.000109314918518, -0.3954911530017853, -4.866716384887695, 0.36296766996383667, 0.0, 0.0, 0.0, 0, 0, 0, 0, 0, 0, -0.3950746953487396, -4.8744401931762695, 0.36353716254234314
16326, 0.07393397390842438, -0.26732584834098816, -0.07898252457380295, -0.12976482510566711, -0.14661955833435059, -0.09474926441907883, -0.0023488143924623728, -0.003248333465307951, 1.0002667903900146, -0.3950746953487396, -4.8744401931762695, 0.36353716254234314, 0.0, 0.0, 0.0, 0, 0, 0, 0, 0, 0, -0.39465633034706116, -4.882169246673584, 0.36410677433013916
16336, 0.07476045191287994, -0.2683948278427124, -0.0782056525349617, 0.05847971513867378, 0.3925729990005493, 0.06345205754041672, -0.0041061704978346825, -0.003644489450380206, 1.0005958080291748, -0.39465633034706116, -4.882169246673584, 0.36410677433013916, 0.0, 0.0, 0.0, 0, 0, 0, 0, 0, 0, -0.39423635601997375, -4.8899030685424805, 0.364676833152771
16346, 0.07520116865634918, -0.2675397992134094, -0.0783059298992157, 0.022378988564014435, -0.040836505591869354, 0.02211528830230236, -0.002877006772905588, -0.002630851697176695, 1.000970482826233, -0.39423635601997375, -4.8899030685424805, 0.364676833152771, 0.0, 0.0, 0.0, 0, 0, 0, 0, 0, 0, -0.3938153088092804, -4.897641181945801, 0.36524727940559387
16356, 0.0751151293516159, -0.2687617838382721, -0.07814324647188187, -0.038592707365751266, 0.0856504887342453, 0.003639155998826027, -0.0022897841408848763, -0.0035846498794853687, 1.0009506940841675, -0.3938153088092804, -4.897641181945801, 0.36524727940559387, 0.0, 0.0, 0.0, 0, 0, 0, 0, 0, 0, -0.393392413854599, -4.905383586883545, 0.3658185303211212
16366, 0.07517972588539124, -0.26884081959724426, -0.07828577607870102, -0.01780732348561287, 0.0162325631827116, 0.02069663070142269, -0.002169444225728512, -0.0074157025665044785, 0.999305248260498, -0.393392413854599, -4.905383586883545, 0.3658185303211212, 0.0, 0.0, 0.0, 0, 0, 0, 0, 0, 0, -0.393392413854599, -4.905383586883545, 0.3658185303211212
16376, 0.07599474489688873, -0.2701200544834137, -0.07603482156991959, 0.028351230546832085, 0.2293034791946411, 0.302972674369812, -0.0009786655427888036, -0.008444175124168396, 0.999038815498352, -0.39296719431877136, -4.913132190704346, 0.36639025807380676, 0.0, 0.0, 0.0, 0, 0, 0, 0, 0, 0, -0.39296719431877136, -4.913132190704346, 0.36639025807380676
16386, 0.07555324584245682, -0.2702084183692932, -0.07561995089054108, -0.10299910604953766, -0.029319163411855698, 0.045813802629709244, -0.0034507173113524914, -0.005946797784417868, 1.0004470348358154, -0.3925390839576721, -4.920889854431152, 0.36696144938468933, 0.0, 0.0, 0.0, 0, 0, 0, 0, 0, 0, -0.3925390839576721, -4.920889854431152, 0.36696144938468933
16396, 0.07541158050298691, -0.27152886986732483, -0.07424139976501465, -0.0025127960834652185, 0.2483803629875183, 0.1759735345840454, -0.004900096450001001, -0.005079737398773432, 0.9998486042022705, -0.39210861921310425, -4.928655624389648, 0.3675323724746704, 0.0, 0.0, 0.0, 0, 0, 0, 0, 0, 0, -0.39210861921310425, -4.928655624389648, 0.3675323724746704
16406, 0.0749913677573204, -0.2705818712711334, -0.07429905980825424, -0.05228637903928757, -0.086979441344738, -0.043526969850063324, -0.0033132543321698904, -0.006729654036462307, 1.0004557371139526, -0.3916774094104767, -4.936428546905518, 0.3681034445762634, 0.0, 0.0, 0.0, 0, 0, 0, 0, 0, 0, -0.3916774094104767, -4.936428546905518, 0.3681034445762634
16416, 0.07519399374723434, -0.2695707082748413, -0.0729483887553215, 0.023302607238292694, -0.18077901005744934, 0.31568795442581177, -0.002100464189425111, -0.005419632885605097, 1.0020413398742676, -0.39124536514282227, -4.94420862197876, 0.36867472529411316, 0.0, 0.0, 0.0, 0, 0, 0, 0, 0, 0, -0.39124536514282227, -4.94420862197876, 0.36867472529411316
16426, 0.07386218011379242, -0.27084848284721375, -0.07315129786729813, -0.1321854144334793, 0.145448699593544, -0.010966037400066853, -0.0011708756210282445, -0.00380322290584445, 0.999397873878479, -0.3908112347126007, -4.951995849609375, 0.36924707889556885, 0.0, 0.0, 0.0, 0, 0, 0, 0, 0, 0, -0.3908112347126007, -4.951995849609375, 0.36924707889556885
16436, 0.07532911747694016, -0.2718295156955719, -0.0717395469546318, 0.2677418291568756, 0.1312556266784668, 0.15829847753047943, -0.0032606166787445545, -0.005138580687344074, 0.9997601509094238, -0.39037418365478516, -4.959788799285889, 0.36982017755508423, 0.0, 0.0, 0.0, 0, 0, 0, 0, 0, 0, -0.39037418365478516, -4.959788799285889, 0.36982017755508423
16446, 0.07408522069454193, -0.27114138007164, -0.07359924167394638, -0.20062071084976196, 0.0405275896191597, -0.2632651925086975, -0.0025661394465714693, -0.00447334349155426, 1.0003620386123657, -0.3899347186088562, -4.967587471008301, 0.37039297819137573, 0.0, 0.0, 0.0, 0, 0, 0, 0, 0, 0, -0.3899347186088562, -4.967587471008301, 0.37039297819137573
16456, 0.07413532584905624, -0.27137479186058044, -0.07328077405691147, 0.11510857939720154, 0.07391400635242462, 0.1584831327199936, -0.0022136149927973747, -0.00669475644826889, 1.0008231401443481, -0.3894934356212616, -4.9753923416137695, 0.37096571922302246, 0.0, 0.0, 0.0, 0, 0, 0, 0, 0, 0, -0.3894934356212616, -4.9753923416137695, 0.37096571922302246
16466, 0.07501339912414551, -0.2736698091030121, -0.07317259162664413, 0.2849748134613037, 0.3384287357330322, 0.12183866649866104, -0.004382742568850517, -0.004090809263288975, 1.0000035762786865, -0.38904979825019836, -4.983203411102295, 0.37153905630111694, 0.0, 0.0, 0.0, 0, 0, 0, 0, 0, 0, -0.38904979825019836, -4.983203411102295, 0.37153905630111694
16476, 0.07666318863630295, -0.2740744352340698, -0.07357528805732727, 0.22895467281341553, 0.08760219067335129, 0.03339496999979019, -0.0020188135094940662, -0.005288111045956612, 1.0000280141830444, -0.3886045813560486, -4.991021156311035, 0.3721129596233368, 0.0, 0.0, 0.0, 0, 0, 0, 0, 0, 0, -0.3886045813560486, -4.991021156311035, 0.3721129596233368
16486, 0.0764823704957962, -0.27426978945732117, -0.07312579452991486, -0.08192972093820572, -0.052889611572027206, 0.0700412467122078, -0.0022590586449950933, -0.005523690488189459, 0.9980982542037964, -0.3881579339504242, -4.998844623565674, 0.3726870119571686, 0.0, 0.0, 0.0, 0, 0, 0, 0, 0, 0, -0.3881579339504242, -4.998844623565674, 0.3726870119571686
16496, 0.0773634985089302, -0.27368369698524475, -0.07280329614877701, 0.14251041412353516, -0.11610962450504303, -0.07288100570440292, -0.004485710524022579, -0.003426572773605585, 0.9971792101860046, -0.38770902156829834, -5.006674766540527, 0.3732602596282959, 0.0, 0.0, 0.0, 0, 0, 0, 0, 0, 0, -0.38770902156829834, -5.006674766540527, 0.3732602596282959
16506, 0.07700522243976593, -0.27259039878845215, -0.07337160408496857, -0.08548878133296967, 0.0934983566403389, -0.16917762160301208, -0.001386120798997581, -0.004561814479529858, 0.9999136328697205, -0.38725849986076355, -5.014510631561279, 0.3738313317298889, 0.0, 0.0, 0.0, 0, 0, 0, 0, 0, 0, -0.38725849986076355, -5.014510631561279, 0.3738313317298889
16516, 0.07808475941419601, -0.27190282940864563, -0.07415827363729477, 0.14569897949695587, 0.026492850854992867, 0.08333374559879303, -0.0025468715466558933, -0.004712768830358982, 1.000003695487976, -0.3868059515953064, -5.0223517417907715, 0.37440094351768494, 0.0, 0.0, 0.0, 0, 0, 0, 0, 0, 0, -0.3868059515953064, -5.0223517417907715, 0.37440094351768494
16526, 0.07736442983150482, -0.2723531723022461, -0.07476506382226944, -0.11190221458673477, 0.11926713585853577, -0.1225813552737236, -0.0025636584032326937, -0.004208115395158529, 1.0016028881072998, -0.3863506615161896, -5.030198574066162, 0.3749704957008362, 0.0, 0.0, 0.0, 0, 0, 0, 0, 0, 0, -0.3863506615161896, -5.030198574066162, 0.3749704957008362
16536, 0.07588067650794983, -0.27219653129577637, -0.07529669255018234, -0.21803133189678192, 0.05913901329040527, 0.04169898107647896, -0.0021042542066425085, -0.004899198655039072, 0.9993926286697388, -0.3858930766582489, -5.038051128387451, 0.3755408823490143, 0.0, 0.0, 0.0, 0, 0, 0, 0, 0, 0, -0.3858930766582489, -5.038051128387451, 0.3755408823490143
16546, 0.07550282776355743, -0.2725834250450134, -0.07656144350767136, -0.07686541974544525, 0.017844799906015396, -0.042252473533153534, -0.0029239519499242306, -0.006863687187433243, 0.9987142086029053, -0.3854330778121948, -5.045909881591797, 0.37611183524131775, 0.0, 0.0, 0.0, 0, 0, 0, 0, 0, 0, -0.3854330778121948, -5.045909881591797, 0.37611183524131775
16556, 0.0750332772731781, -0.2727845013141632, -0.07591026276350021, -0.09433023631572723, 0.011002738028764725, 0.09070437401533127, -0.001951758866198361, -0.0076735299080610275, 1.0001351833343506, -0.3849707841873169, -5.053775310516357, 0.3766820430755615, 0.0, 0.0, 0.0, 0, 0, 0, 0, 0, 0, -0.3849707841873169, -5.053775310516357, 0.3766820430755615
16566, 0.07478352636098862, -0.2716696262359619, -0.0740136057138443, -0.11282426863908768, 0.00017307972302660346, 0.2349872887134552, -0.0008082948625087738, -0.005872933194041252, 0.9990501999855042, -0.3845061957836151, -5.061648845672607, 0.3772517442703247, 0.0, 0.0, 0.0, 0, 0, 0, 0, 0, 0, -0.3845061957836151, -5.061648845672607, 0.3772517442703247
16576, 0.0749891996383667, -0.2722218334674835, -0.0725533738732338, -0.009434623643755913, 0.02619253844022751, 0.2339724600315094, -0.0018272462766617537, -0.0052241189405322075, 0.9998734593391418, -0.38403838872909546, -5.069530487060547, 0.3778211772441864, 0.0, 0.0, 0.0, 0, 0, 0, 0, 0, 0, -0.38403838872909546, -5.069530487060547, 0.3778211772441864
16586, 0.07554690539836884, -0.27206310629844666, -0.07226213067770004, -0.010144434869289398, -0.09385433793067932, 0.037567026913166046, -0.003592711640521884, -0.005746771115809679, 1.0018131732940674, -0.3835672438144684, -5.077419281005859, 0.3783903121948242, 0.0, 0.0, 0.0, 0, 0, 0, 0, 0, 0, -0.3835672438144684, -5.077419281005859, 0.3783903121948242
16596, 0.07592816650867462, -0.2708692252635956, -0.07290752232074738, 0.04186299070715904, -0.12560266256332397, -0.2703168988227844, -0.001854259637184441, -0.0075556375086307526, 1.0019049644470215, -0.3830939531326294, -5.085314750671387, 0.3789602220058441, 0.0, 0.0, 0.0, 0, 0, 0, 0, 0, 0, -0.3830939531326294, -5.085314750671387, 0.3789602220058441
16606, 0.07653585076332092, -0.2716340124607086, -0.07260314375162125, -0.01647094264626503, 0.13060441613197327, 0.021897438913583755, -0.002209598198533058, -0.005949081387370825, 1.0008643865585327, -0.38261863589286804, -5.093217372894287, 0.37953171133995056, 0.0, 0.0, 0.0, 0, 0, 0, 0, 0, 0, -0.38261863589286804, -5.093217372894287, 0.37953171133995056
16616, 0.07562670856714249, -0.2712760269641876, -0.07402138411998749, -0.010972915217280388, -0.232527494430542, -0.14257989823818207, -0.0035137024242430925, -0.00428702961653471, 0.9992439150810242, -0.3821408152580261, -5.101128101348877, 0.38010451197624207, 0.0, 0.0, 0.0, 0, 0, 0, 0, 0, 0, -0.3821408152580261, -5.101128101348877, 0.38010451197624207
16626, 0.0753537118434906, -0.26977357268333435, -0.07521044462919235, 0.09223250299692154, -0.2239786684513092, -0.11651318520307541, -0.003521156730130315, -0.0014911137986928225, 0.9995903968811035, -0.38166114687919617, -5.109045505523682, 0.38067761063575745, 0.0, 0.0, 0.0, 0, 0, 0, 0, 0, 0, -0.38166114687919617, -5.109045505523682, 0.38067761063575745
16636, 0.07552239298820496, -0.2691323161125183, -0.07647570222616196, 0.12619003653526306, 0.03887172415852547, -0.12189952284097672, -0.003106337273493409, -0.00387572031468153, 1.0010219812393188, -0.38118016719818115, -5.11696720123291, 0.38125038146972656, 0.0, 0.0, 0.0, 0, 0, 0, 0, 0, 0, -0.38118016719818115, -5.11696720123291, 0.38125038146972656
16646, 0.0762568786740303, -0.2681116759777069, -0.07603110373020172, 0.056554168462753296, -0.1728729009628296, 0.0646623969078064, -0.002375883748754859, -0.008144669234752655, 1.0017786026000977, -0.38069766759872437, -5.1248931884765625, 0.3818233907222748, 0.0, 0.0, 0.0, 0, 0, 0, 0, 0, 0, -0.38069766759872437, -5.1248931884765625, 0.3818233907222748
16656, 0.07649584114551544, -0.2663814127445221, -0.077138252556324, -0.04142754152417183, -0.16830959916114807, -0.17536120116710663, -0.0048339758068323135, -0.006626225542277098, 1.0011600255966187, -0.3802131116390228, -5.13282585144043, 0.3823975622653961, 0.0, 0.0, 0.0, 0, 0, 0, 0, 0, 0, -0.3802131116390228, -5.13282585144043, 0.3823975622653961
16666, 0.0768057107925415, -0.26812124252319336, -0.07645264267921448, 0.15335923433303833, 0.2537420392036438, 0.10876478999853134, -0.004932780284434557, -0.004849577788263559, 1.0001016855239868, -0.37972724437713623, -5.140766620635986, 0.38297316431999207, 0.0, 0.0, 0.0, 0, 0, 0, 0, 0, 0, -0.37972724437713623, -5.140766620635986, 0.38297316431999207
16676, 0.07533199340105057, -0.27016282081604004, -0.0758286565542221, -0.2612714469432831, 0.30938196182250977, -0.11165447533130646, -0.002035648562014103, -0.005291617475450039, 1.0015406608581543, -0.37924134731292725, -5.148714542388916, 0.3835495412349701, 0.0, 0.0, 0.0, 0, 0, 0, 0, 0, 0, -0.37924134731292725, -5.148714542388916, 0.3835495412349701
16686, 0.07574184983968735, -0.26953038573265076, -0.07513722777366638, -0.02534409798681736, 0.004904996603727341, 0.13612402975559235, -0.0008760776254348457, -0.005920930299907923, 1.0012162923812866, -0.3787543475627899, -5.156668663024902, 0.3841266930103302, 0.0, 0.0, 0.0, 0, 0, 0, 0, 0, 0, -0.3787543475627899, -5.156668663024902, 0.3841266930103302
16696, 0.07592367380857468, -0.2685849666595459, -0.07451725006103516, 0.08613619953393936, 0.013543416745960712, 0.21257030963897705, -0.0014304366195574403, -0.005637340247631073, 1.0015442371368408, -0.3782644271850586, -5.1646294593811035, 0.3847050070762634, 0.0, 0.0, 0.0, 0, 0, 0, 0, 0, 0, -0.3782644271850586, -5.1646294593811035, 0.3847050070762634
16706, 0.07649422436952591, -0.26915544271469116, -0.07487324625253677, 0.08500155061483383, -0.010437782853841782, 0.0014775005402043462, -0.0033818427473306656, -0.005996827967464924, 1.0006967782974243, -0.37777116894721985, -5.172597408294678, 0.3852846920490265, 0.0, 0.0, 0.0, 0, 0, 0, 0, 0, 0, -0.37777116894721985, -5.172597408294678, 0.3852846920490265
16716, 0.07684388011693954, -0.2713436484336853, -0.07357002794742584, -0.016685152426362038, 0.22669851779937744, 0.04794091358780861, -0.004709251224994659, -0.0031629272270947695, 1.0027738809585571, -0.3772755563259125, -5.180572509765625, 0.3858656585216522, 0.0, 0.0, 0.0, 0, 0, 0, 0, 0, 0, -0.3772755563259125, -5.180572509765625, 0.3858656585216522
16726, 0.07797735184431076, -0.2702973186969757, -0.07376642525196075, 0.1235966756939888, -0.0964236855506897, -0.07616369426250458, -0.003570491448044777, -0.006165158934891224, 0.9995700120925903, -0.3767790198326111, -5.188553333282471, 0.38644829392433167, 0.0, 0.0, 0.0, 0, 0, 0, 0, 0, 0, -0.3767790198326111, -5.188553333282471, 0.38644829392433167
16736, 0.07862972468137741, -0.26922351121902466, -0.07374876737594604, 0.1423054188489914, -0.06480591744184494, 0.04057127609848976, -0.001358120352961123, -0.0075539168901741505, 0.9999067187309265, -0.3762817978858948, -5.196539878845215, 0.3870321810245514, 0.0, 0.0, 0.0, 0, 0, 0, 0, 0, 0, -0.3762817978858948, -5.196539878845215, 0.3870321810245514
16746, 0.07804219424724579, -0.26819100975990295, -0.0738610029220581, -0.17389097809791565, -0.06939687579870224, 0.027711620554327965, -0.0015098421135917306, -0.005813886411488056, 1.0005637407302856, -0.37578248977661133, -5.204534530639648, 0.3876160979270935, 0.0, 0.0, 0.0, 0, 0, 0, 0, 0, 0, -0.37578248977661133, -5.204534530639648, 0.3876160979270935
16756, 0.07810536026954651, -0.26694029569625854, -0.0760955661535263, -0.12293418496847153, -0.11545459181070328, -0.26139530539512634, -0.002389715751633048, -0.004160478711128235, 1.0029816627502441, -0.37528014183044434, -5.212536811828613, 0.3882003128528595, 0.0, 0.0, 0.0, 0, 0, 0, 0, 0, 0, -0.37528014183044434, -5.212536811828613, 0.3882003128528595
16766, 0.078415147960186, -0.26803508400917053, -0.0753963515162468, -0.014115151949226856, 0.22898995876312256, 0.10028161108493805, -0.0016611538594588637, -0.0023495014756917953, 0.9999101161956787, -0.3747750520706177, -5.220545291900635, 0.3887861371040344, 0.0, 0.0, 0.0, 0, 0, 0, 0, 0, 0, -0.3747750520706177, -5.220545291900635, 0.3887861371040344
16776, 0.07845906168222427, -0.26749029755592346, -0.0753011554479599, 0.04598788917064667, 0.051312219351530075, 0.04068480804562569, -0.0019200174137949944, -0.004752288106828928, 1.0023384094238281, -0.3742673397064209, -5.228558540344238, 0.38937345147132874, 0.0, 0.0, 0.0, 0, 0, 0, 0, 0, 0, -0.3742673397064209, -5.228558540344238, 0.38937345147132874
16786, 0.07940960675477982, -0.26828768849372864, -0.07472259551286697, 0.12006177753210068, 0.19538646936416626, 0.06342024356126785, -0.0027026257012039423, -0.006342549808323383, 1.0021120309829712, -0.37375694513320923, -5.236577033996582, 0.38996198773384094, 0.0, 0.0, 0.0, 0, 0, 0, 0, 0, 0, -0.37375694513320923, -5.236577033996582, 0.38996198773384094
16796, 0.07916132360696793, -0.2688070833683014, -0.0741160586476326, -0.027653809636831284, 0.026136988773941994, 0.2414781004190445, -0.0007126783602871001, -0.005720461718738079, 0.9998615980148315, -0.3732440769672394, -5.244601726531982, 0.39055243134498596, 0.0, 0.0, 0.0, 0, 0, 0, 0, 0, 0, -0.3732440769672394, -5.244601726531982, 0.39055243134498596
16806, 0.07944907993078232, -0.2687113881111145, -0.07393889874219894, 0.007830321788787842, 0.06784627586603165, 0.11978322267532349, -0.002505473094061017, -0.007448331452906132, 0.9998751282691956, -0.37272822856903076, -5.252633571624756, 0.39114388823509216, 0.0, 0.0, 0.0, 0, 0, 0, 0, 0, 0, -0.37272822856903076, -5.252633571624756, 0.39114388823509216
16816, 0.07910408824682236, -0.2688160836696625, -0.07504499703645706, -0.14133331179618835, 0.1318385750055313, -0.16475285589694977, -0.001633073203265667, -0.004795794375240803, 1.0007504224777222, -0.37220948934555054, -5.260673522949219, 0.39173537492752075, 0.0, 0.0, 0.0, 0, 0, 0, 0, 0, 0, -0.37220948934555054, -5.260673522949219, 0.39173537492752075
16826, 0.07933730632066727, -0.26843491196632385, -0.07658480852842331, 0.10079392045736313, 0.08235575258731842, -0.14180141687393188, -0.003336053341627121, -0.003828686662018299, 1.0011732578277588, -0.3716883659362793, -5.268720626831055, 0.3923271894454956, 0.0, 0.0, 0.0, 0, 0, 0, 0, 0, 0, -0.3716883659362793, -5.268720626831055, 0.3923271894454956
16836, 0.07945084571838379, -0.2688695788383484, -0.07458393275737762, 0.012799471616744995, 0.10803278535604477, 0.3529354929924011, -0.0021709620486944914, -0.0049916598945856094, 1.0021183490753174, -0.371165007352829, -5.276773452758789, 0.3929200768470764, 0.0, 0.0, 0.0, 0, 0, 0, 0, 0, 0, -0.371165007352829, -5.276773452758789, 0.3929200768470764
16846, 0.079416923224926, -0.2704434096813202, -0.07285680621862411, -0.03207432106137276, 0.10327031463384628, 0.1895473301410675, -0.002072380855679512, -0.004558228887617588, 0.9986421465873718, -0.3706395924091339, -5.284832000732422, 0.3935145139694214, 0.0, 0.0, 0.0, 0, 0, 0, 0, 0, 0, -0.3706395924091339, -5.284832000732422, 0.3935145139694214
16856, 0.08023406565189362, -0.2687394917011261, -0.07343345135450363, 0.1573607176542282, -0.3182377815246582, -0.16564087569713593, -0.00239390111528337, -0.004379658959805965, 0.9995013475418091, -0.37011170387268066, -5.292896747589111, 0.39410924911499023, 0.0, 0.0, 0.0, 0, 0, 0, 0, 0, 0, -0.37011170387268066, -5.292896747589111, 0.39410924911499023
16866, 0.07950695604085922, -0.26961076259613037, -0.07472498714923859, -0.07470504939556122, 0.05753803253173828, -0.17734591662883759, -0.0036234650760889053, -0.007305760867893696, 1.001393437385559, -0.3695814609527588, -5.300967216491699, 0.3947032392024994, 0.0, 0.0, 0.0, 0, 0, 0, 0, 0, 0, -0.3695814609527588, -5.300967216491699, 0.3947032392024994
16876, 0.07967889308929443, -0.2685891091823578, -0.07380251586437225, -0.0003259059740230441, -0.07038822025060654, 0.1140127182006836, -0.004257524851709604, -0.0073557705618441105, 0.9992195963859558, -0.36904963850975037, -5.30904483795166, 0.39529770612716675, 0.0, 0.0, 0.0, 0, 0, 0, 0, 0, 0, -0.36904963850975037, -5.30904483795166, 0.39529770612716675
16886, 0.07939659059047699, -0.2687981128692627, -0.07264825701713562, -0.025663409382104874, 0.18339183926582336, 0.033008873462677, -0.0030071076471358538, -0.004407252185046673, 1.0008305311203003, -0.3685170114040375, -5.317131042480469, 0.3958927392959595, 0.0, 0.0, 0.0, 0, 0, 0, 0, 0, 0, -0.3685170114040375, -5.317131042480469, 0.3958927392959595
16896, 0.07889584451913834, -0.26937511563301086, -0.073305144906044, -0.1779545694589615, 0.22121268510818481, -0.2473757416009903, -0.004136426839977503, -0.003282359102740884, 1.000651478767395, -0.3679833710193634, -5.325224876403809, 0.39648789167404175, 0.0, 0.0, 0.0, 0, 0, 0, 0, 0, 0, -0.3679833710193634, -5.325224876403809, 0.39648789167404175
16906, 0.0787021741271019, -0.2700199782848358, -0.07280615717172623, 0.09379460662603378, 0.16150203347206116, 0.11908654868602753, -0.0010707122273743153, -0.0020559760741889477, 1.002025842666626, -0.36744874715805054, -5.333323955535889, 0.3970837891101837, 0.0, 0.0, 0.0, 0, 0, 0, 0, 0, 0, -0.36744874715805054, -5.333323955535889, 0.3970837891101837
16916, 0.07850945740938187, -0.26792627573013306, -0.0727173388004303, -0.03018822707235813, -0.18743976950645447, -0.003360598813742399, 3.498883233987726e-05, -0.002673198003321886, 0.9999403357505798, -0.366912305355072, -5.341426849365234, 0.3976811170578003, 0.0, 0.0, 0.0, 0, 0, 0, 0, 0, 0, -0.366912305355072, -5.341426849365234, 0.3976811170578003
16926, 0.07875575125217438, -0.2677662670612335, -0.07302235066890717, 0.10999687761068344, -0.011982573196291924, -0.15935072302818298, -0.0011440332746133208, -0.0054039116948843, 1.0009918212890625, -0.36637207865715027, -5.349533557891846, 0.3982795476913452, 0.0, 0.0, 0.0, 0, 0, 0, 0, 0, 0, -0.36637207865715027, -5.349533557891846, 0.3982795476913452
16936, 0.0777612030506134, -0.2680014669895172, -0.07316141575574875, -0.02944822795689106, 0.08479335904121399, -0.028101155534386635, -0.006114664021879435, -0.004960779566317797, 0.9998034834861755, -0.3658280074596405, -5.357645511627197, 0.39887842535972595, 0.0, 0.0, 0.0, 0, 0, 0, 0, 0, 0, -0.3658280074596405, -5.357645511627197, 0.39887842535972595
16946, 0.07861823588609695, -0.269059956073761, -0.07235933095216751, 0.17225492000579834, 0.2997577488422394, 0.15277810394763947, -0.003650638274848461, -0.005614446941763163, 0.9987876415252686, -0.36528271436691284, -5.3657636642456055, 0.3994773328304291, 0.0, 0.0, 0.0, 0, 0, 0, 0, 0, 0, -0.36528271436691284, -5.3657636642456055, 0.3994773328304291
16956, 0.07867928594350815, -0.2681722640991211, -0.07206259667873383, -0.05112457275390625, -0.023395847529172897, -0.03078349307179451, -0.001279822550714016, -0.005661646835505962, 0.9989321827888489, -0.3647373914718628, -5.3738884925842285, 0.40007543563842773, 0.0, 0.0, 0.0, 0, 0, 0, 0, 0, 0, -0.3647373914718628, -5.3738884925842285, 0.40007543563842773
16966, 0.07870983332395554, -0.27012869715690613, -0.07202226668596268, 0.06081380695104599, 0.30826079845428467, -0.0070791542530059814, -0.00042587469215504825, -0.003786595305427909, 1.0005574226379395, -0.36419010162353516, -5.382019996643066, 0.40067258477211, 0.0, 0.0, 0.0, 0, 0, 0, 0, 0, 0, -0.36419010162353516, -5.382019996643066, 0.40067258477211
16976, 0.07889238744974136, -0.2693696916103363, -0.0712750181555748, 0.0179936233907938, -0.10794751346111298, 0.053108688443899155, -0.00040870264638215303, -0.004265795927494764, 1.000020146369934, -0.36363911628723145, -5.390157699584961, 0.40126949548721313, 0.0, 0.0, 0.0, 0, 0, 0, 0, 0, 0, -0.36363911628723145, -5.390157699584961, 0.40126949548721313
16986, 0.07836693525314331, -0.27033740282058716, -0.0705445259809494, -0.06292343139648438, 0.19977231323719025, 0.1154073029756546, -0.0021529707591980696, -0.004588910844177008, 1.0004571676254272, -0.36308392882347107, -5.398300647735596, 0.40186646580696106, 0.0, 0.0, 0.0, 0, 0, 0, 0, 0, 0, -0.36308392882347107, -5.398300647735596, 0.40186646580696106
16996, 0.07867250591516495, -0.26764965057373047, -0.07102188467979431, 0.07499966025352478, -0.3528939187526703, -0.1621619462966919, -0.0032692905515432358, -0.004514067433774471, 1.00067937374115, -0.36252543330192566, -5.406449317932129, 0.4024635851383209, 0.0, 0.0, 0.0, 0, 0, 0, 0, 0, 0, -0.36252543330192566, -5.406449317932129, 0.4024635851383209
17006, 0.07866682857275009, -0.2661357522010803, -0.07188192754983902, -0.0063580055721104145, -0.1510392427444458, -0.1721138060092926, 0.0006679324433207512, -0.003289294894784689, 0.998706579208374, -0.3619649410247803, -5.4146037101745605, 0.4030614197254181, 0.0, 0.0, 0.0, 0, 0, 0, 0, 0, 0, -0.3619649410247803, -5.4146037101745605, 0.4030614197254181
17016, 0.0795043334364891, -0.26387152075767517, -0.07032721489667892, 0.12720344960689545, -0.19931356608867645, 0.3758954703807831, -0.0004007763636764139, -0.004581059794872999, 0.999744713306427, -0.3614012598991394, -5.422763824462891, 0.40365925431251526, 0.0, 0.0, 0.0, 0, 0, 0, 0, 0, 0, -0.3614012598991394, -5.422763824462891, 0.40365925431251526
17026, 0.07893253117799759, -0.26313212513923645, -0.07102254778146744, -0.047253500670194626, -0.007796376012265682, -0.18744170665740967, -0.0006952120456844568, -0.0056934356689453125, 0.9984098672866821, -0.3608330488204956, -5.430929183959961, 0.4042564332485199, 0.0, 0.0, 0.0, 0, 0, 0, 0, 0, 0, -0.3608330488204956, -5.430929183959961, 0.4042564332485199
17036, 0.07941724359989166, -0.2635071277618408, -0.07106322795152664, 0.04361472651362419, -0.05417899414896965, -0.005951657425612211, -0.003274692455306649, -0.0032799579203128815, 0.9992912411689758, -0.3602607548236847, -5.439100742340088, 0.40485283732414246, 0.0, 0.0, 0.0, 0, 0, 0, 0, 0, 0, -0.3602607548236847, -5.439100742340088, 0.40485283732414246
17046, 0.07960634678602219, -0.2639518678188324, -0.07087915390729904, 0.020937003195285797, 0.019815482199192047, -0.06741204857826233, -0.003947860095649958, -0.0028577931225299835, 0.9996775388717651, -0.35968565940856934, -5.447278022766113, 0.40544819831848145, 0.0, 0.0, 0.0, 0, 0, 0, 0, 0, 0, -0.35968565940856934, -5.447278022766113, 0.40544819831848145
17056, 0.080044686794281, -0.2656543254852295, -0.07134836912155151, 0.06021599471569061, 0.18555502593517303, -0.10962765663862228, -0.0008129405323415995, -0.006321841850876808, 1.0015954971313477, -0.3591093420982361, -5.4554595947265625, 0.40604284405708313, 0.0, 0.0, 0.0, 0, 0, 0, 0, 0, 0, -0.3591093420982361, -5.4554595947265625, 0.40604284405708313
17066, 0.0797743946313858, -0.2660718262195587, -0.07167769223451614, -0.07768609374761581, 0.04269653558731079, -0.04603763297200203, -0.002530868398025632, -0.00879161898046732, 1.0002803802490234, -0.35853108763694763, -5.46364688873291, 0.40663790702819824, 0.0, 0.0, 0.0, 0, 0, 0, 0, 0, 0, -0.35853108763694763, -5.46364688873291, 0.40663790702819824
17076, 0.08013582974672318, -0.2659383714199066, -0.07043173164129257, 0.0802658423781395, 0.030807945877313614, 0.12732386589050293, -0.002874154131859541, -0.004680131562054157, 0.9997607469558716, -0.3579500913619995, -5.4718427658081055, 0.407233864068985, 0.0, 0.0, 0.0, 0, 0, 0, 0, 0, 0, -0.3579500913619995, -5.4718427658081055, 0.407233864068985
17086, 0.08092505484819412, -0.26501673460006714, -0.0711786225438118, 0.023959506303071976, -0.038941361010074615, -0.179228276014328, -0.0024187155067920685, -0.004052325617522001, 1.0005344152450562, -0.3573671579360962, -5.48004674911499, 0.40783005952835083, 0.0, 0.0, 0.0, 0, 0, 0, 0, 0, 0, -0.3573671579360962, -5.48004674911499, 0.40783005952835083
17096, 0.0809471607208252, -0.2640911638736725, -0.07104165107011795, 0.07931999862194061, -0.10432224720716476, 0.04990571364760399, -0.002238370245322585, -0.004922559950500727, 1.0013741254806519, -0.3567825257778168, -5.488256454467773, 0.4084264636039734, 0.0, 0.0, 0.0, 0, 0, 0, 0, 0, 0, -0.3561957776546478, -5.496472358703613, 0.4090237319469452
17106, 0.08048607409000397, -0.26392072439193726, -0.07060255855321884, -0.08980763703584671, 0.1309473216533661, 0.08065684884786606, -0.0009890663204714656, -0.0050024171359837055, 1.001595377922058, -0.3561957776546478, -5.496472358703613, 0.4090237319469452, 0.0, 0.0, 0.0, 0, 0, 0, 0, 0, 0, -0.3556063175201416, -5.50469446182251, 0.4096224308013916
17116, 0.08185417950153351, -0.26242366433143616, -0.07082337141036987, 0.16372369229793549, -0.22306276857852936, -0.05014748498797417, -0.0035804486833512783, -0.003686940763145685, 1.0006623268127441, -0.3556063175201416, -5.50469446182251, 0.4096224308013916, 0.0, 0.0, 0.0, 0, 0, 0, 0, 0, 0, -0.3550146520137787, -5.512922286987305, 0.4102224111557007
17126, 0.08245187997817993, -0.26320549845695496, -0.07129170745611191, 0.02048092521727085, -0.0024241816718131304, -0.07307147234678268, -0.0033705546520650387, -0.004654641263186932, 1.0001564025878906, -0.3550146520137787, -5.512922286987305, 0.4102224111557007, 0.0, 0.0, 0.0, 0, 0, 0, 0, 0, 0, -0.3544216752052307, -5.52115535736084, 0.4108228385448456
17136, 0.08306243270635605, -0.2644261121749878, -0.07042688131332397, 0.0635138526558876, 0.12526331841945648, 0.06614869087934494, -0.0033179260790348053, -0.0053434595465660095, 1.0019023418426514, -0.3544216752052307, -5.52115535736084, 0.4108228385448456, 0.0, 0.0, 0.0, 0, 0, 0, 0, 0, 0, -0.35382750630378723, -5.529394626617432, 0.4114239811897278
17146, 0.0836050808429718, -0.26614853739738464, -0.07027789950370789, 0.19267475605010986, 0.21289479732513428, 0.02040441520512104, -0.0033986475318670273, -0.005550817120820284, 0.9998791813850403, -0.35382750630378723, -5.529394626617432, 0.4114239811897278, 0.0, 0.0, 0.0, 0, 0, 0, 0, 0, 0, -0.35323214530944824, -5.537640571594238, 0.4120258390903473
17156, 0.08396504819393158, -0.2658848166465759, -0.06940722465515137, 0.08721917122602463, -0.06498391926288605, 0.1686045080423355, -0.0016336916014552116, -0.003563546808436513, 1.0012037754058838, -0.35323214530944824, -5.537640571594238, 0.4120258390903473, 0.0, 0.0, 0.0, 0, 0, 0, 0, 0, 0, -0.3526347875595093, -5.545892715454102, 0.4126279354095459
17166, 0.08398310840129852, -0.2670581638813019, -0.06926042586565018, -0.08618561923503876, 0.24086037278175354, 0.0905405730009079, -0.001253280439414084, -0.0027546004857867956, 1.0001845359802246, -0.3526347875595093, -5.545892715454102, 0.4126279354095459, 0.0, 0.0, 0.0, 0, 0, 0, 0, 0, 0, -0.3520343005657196, -5.554149627685547, 0.4132302403450012
17176, 0.08440292626619339, -0.264590322971344, -0.07105270773172379, -0.0009580840705893934, -0.33941009640693665, -0.23029258847236633, -0.001620477414689958, -0.0055583929643034935, 0.9998743534088135, -0.3520343005657196, -5.554149627685547, 0.4132302403450012, 0.0, 0.0, 0.0, 0, 0, 0, 0, 0, 0, -0.3514305055141449, -5.562411785125732, 0.41383251547813416
17186, 0.08470757305622101, -0.2666058838367462, -0.07171162962913513, 0.008191720582544804, 0.311235249042511, -0.07615293562412262, -0.0034201303496956825, -0.0037794560194015503, 1.0021791458129883, -0.3514305055141449, -5.562411785125732, 0.41383251547813416, 0.0, 0.0, 0.0, 0, 0, 0, 0, 0, 0, -0.3508245050907135, -5.570680141448975, 0.4144354462623596
17196, 0.08433326333761215, -0.26548123359680176, -0.07115022838115692, 0.020726235583424568, -0.20602023601531982, 0.33244794607162476, -0.0030272321309894323, -0.003856542520225048, 1.0019341707229614, -0.3508245050907135, -5.570680141448975, 0.4144354462623596, 0.0, 0.0, 0.0, 0, 0, 0, 0, 0, 0, -0.35021698474884033, -5.578953742980957, 0.415039986371994
17206, 0.083501435816288, -0.26648199558258057, -0.07132628560066223, -0.039765797555446625, 0.16866934299468994, 0.09518314898014069, -0.0018935386324301362, -0.0046342830173671246, 1.0003584623336792, -0.35021698474884033, -5.578953742980957, 0.415039986371994, 0.0, 0.0, 0.0, 0, 0, 0, 0, 0, 0, -0.34960731863975525, -5.587233066558838, 0.4156460762023926
17216, 0.08305209130048752, -0.2665410339832306, -0.07162868976593018, -0.12678928673267365, -0.09763012826442719, -0.033247772604227066, -0.0019089293200522661, -0.003831392154097557, 0.9997657537460327, -0.34960731863975525, -5.587233066558838, 0.4156460762023926, 0.0, 0.0, 0.0, 0, 0, 0, 0, 0, 0, -0.3489949703216553, -5.595517635345459, 0.4162524342536926
17226, 0.08301820605993271, -0.26668408513069153, -0.07187247276306152, -0.008809260092675686, -0.14094293117523193, -0.10756715387105942, -0.0025411790702492, -0.005392322316765785, 0.9995074272155762, -0.3489949703216553, -5.595517635345459, 0.4162524342536926, 0.0, 0.0, 0.0, 0, 0, 0, 0, 0, 0, -0.3483801782131195, -5.603808403015137, 0.4168582558631897
17236, 0.08338236808776855, -0.26715970039367676, -0.07113955169916153, -0.01693364977836609, 0.06087743490934372, 0.14136505126953125, -0.0034880356397479773, -0.007134921848773956, 1.0016100406646729, -0.3483801782131195, -5.603808403015137, 0.4168582558631897, 0.0, 0.0, 0.0, 0, 0, 0, 0, 0, 0, -0.34776341915130615, -5.6121063232421875, 0.4174642264842987
17246, 0.08326040208339691, -0.26730725169181824, -0.0717666819691658, -0.03473727032542229, 0.30200517177581787, -0.12826207280158997, -0.0022044565994292498, -0.004750302527099848, 1.0013206005096436, -0.34776341915130615, -5.6121063232421875, 0.4174642264842987, 0.0, 0.0, 0.0, 0, 0, 0, 0, 0, 0, -0.34776341915130615, -5.6121063232421875, 0.4174642264842987
17256, 0.08379563689231873, -0.268272340297699, -0.07064669579267502, 0.13686712086200714, 0.15060678124427795, 0.3127640187740326, -0.0032971114851534367, -0.005756801459938288, 0.9982091784477234, -0.34714475274086, -5.6204118728637695, 0.4180712401866913, 0.0, 0.0, 0.0, 0, 0, 0, 0, 0, 0, -0.34714475274086, -5.6204118728637695, 0.4180712401866913
17266, 0.08308888971805573, -0.2694607675075531, -0.07145104557275772, 0.10028723627328873, 0.046059831976890564, -0.10726828873157501, -0.0019024540670216084, -0.004164686892181635, 1.0021084547042847, -0.3465242087841034, -5.628724098205566, 0.4186784029006958, 0.0, 0.0, 0.0, 0, 0, 0, 0, 0, 0, -0.3465242087841034, -5.628724098205566, 0.4186784029006958
17276, 0.08301176130771637, -0.26976633071899414, -0.07198996841907501, -0.10319811850786209, -0.05165765434503555, -0.20898330211639404, -0.0016300257993862033, -0.004200458992272615, 1.001111626625061, -0.34590163826942444, -5.63704252243042, 0.4192858040332794, 0.0, 0.0, 0.0, 0, 0, 0, 0, 0, 0, -0.34590163826942444, -5.63704252243042, 0.4192858040332794
17286, 0.08202461898326874, -0.272402822971344, -0.07135830819606781, -0.15400736033916473, 0.43220826983451843, 0.040659066289663315, -0.003351835999637842, -0.0049787708558142185, 1.0011756420135498, -0.34527623653411865, -5.645366191864014, 0.41989433765411377, 0.0, 0.0, 0.0, 0, 0, 0, 0, 0, 0, -0.34527623653411865, -5.645366191864014, 0.41989433765411377
17296, 0.08168461918830872, -0.2747955918312073, -0.07113399356603622, -0.01655874401330948, 0.429278165102005, -0.014817791059613228, -0.0021643785294145346, -0.007925152778625488, 1.00150465965271, -0.34464848041534424, -5.653695583343506, 0.42050349712371826, 0.0, 0.0, 0.0, 0, 0, 0, 0, 0, 0, -0.34464848041534424, -5.653695583343506, 0.42050349712371826
17306, 0.08249771595001221, -0.2743598520755768, -0.07114523649215698, 0.10242678225040436, -0.06087539717555046, -0.10842215269804001, 0.0011387887643650174, -0.005553258582949638, 0.9992327094078064, -0.34401875734329224, -5.662032604217529, 0.42111337184906006, 0.0, 0.0, 0.0, 0, 0, 0, 0, 0, 0, -0.34401875734329224, -5.662032604217529, 0.42111337184906006
17316, 0.08138416707515717, -0.27478501200675964, -0.07114633172750473, -0.15117518603801727, -0.04020615294575691, -0.19003580510616302, -0.00016952598525676876, -0.003274893155321479, 1.0016961097717285, -0.343385249376297, -5.670377731323242, 0.4217235743999481, 0.0, 0.0, 0.0, 0, 0, 0, 0, 0, 0, -0.343385249376297, -5.670377731323242, 0.4217235743999481
17326, 0.0810510590672493, -0.2758474051952362, -0.07041133940219879, -0.03466366231441498, 0.08146101236343384, 0.0032538159284740686, -0.0003870445361826569, -0.004309335723519325, 1.0021697282791138, -0.34274691343307495, -5.678729057312012, 0.42233458161354065, 0.0, 0.0, 0.0, 0, 0, 0, 0, 0, 0, -0.34274691343307495, -5.678729057312012, 0.42233458161354065
17336, 0.08036286383867264, -0.2763175368309021, -0.07125157862901688, -0.14685533940792084, 0.0919523760676384, -0.09827741980552673, -1.9181827610736946e-06, -0.005916237831115723, 1.0020866394042969, -0.34210410714149475, -5.6870856285095215, 0.4229477047920227, 0.0, 0.0, 0.0, 0, 0, 0, 0, 0, 0, -0.34210410714149475, -5.6870856285095215, 0.4229477047920227
17346, 0.08108316361904144, -0.2770550847053528, -0.07133585959672928, 0.08952603489160538, 0.21748444437980652, 0.016275905072689056, 0.00010097854101331905, -0.0035484666004776955, 1.0004994869232178, -0.34145674109458923, -5.695448875427246, 0.4235631823539734, 0.0, 0.0, 0.0, 0, 0, 0, 0, 0, 0, -0.34145674109458923, -5.695448875427246, 0.4235631823539734
17356, 0.07950163632631302, -0.2771734595298767, -0.06974088400602341, -0.1638844907283783, 0.09619080275297165, 0.30054807662963867, -0.0021099187433719635, -0.004438214469701052, 0.9990297555923462, -0.3408045768737793, -5.703817844390869, 0.42418015003204346, 0.0, 0.0, 0.0, 0, 0, 0, 0, 0, 0, -0.3408045768737793, -5.703817844390869, 0.42418015003204346
17366, 0.07988407462835312, -0.2764829695224762, -0.07053694874048233, -0.031137971207499504, 0.019983410835266113, -0.19313077628612518, -0.001127828611060977, -0.005292337853461504, 1.000618577003479, -0.3401484787464142, -5.712192058563232, 0.4247972369194031, 0.0, 0.0, 0.0, 0, 0, 0, 0, 0, 0, -0.3401484787464142, -5.712192058563232, 0.4247972369194031
17376, 0.07910943776369095, -0.27618810534477234, -0.0705237090587616, -0.1402367651462555, 0.2206588238477707, -0.01693621650338173, -0.002642332809045911, -0.006320176180452108, 0.999452531337738, -0.3394891023635864, -5.720572471618652, 0.42541444301605225, 0.0, 0.0, 0.0, 0, 0, 0, 0, 0, 0, -0.3394891023635864, -5.720572471618652, 0.42541444301605225
17386, 0.080233633518219, -0.27583789825439453, -0.07135997712612152, 0.11621960252523422, 0.07786248624324799, -0.26230916380882263, -0.003216651501134038, -0.00834046583622694, 1.0010977983474731, -0.3388267159461975, -5.728959560394287, 0.42603200674057007, 0.0, 0.0, 0.0, 0, 0, 0, 0, 0, 0, -0.3388267159461975, -5.728959560394287, 0.42603200674057007
17396, 0.07987772673368454, -0.27426621317863464, -0.0703045055270195, 0.0005693992134183645, -0.19257336854934692, 0.09003937989473343, -0.00387842976488173, -0.004500969313085079, 0.9984012842178345, -0.33816227316856384, -5.7373552322387695, 0.42664992809295654, 0.0, 0.0, 0.0, 0, 0, 0, 0, 0, 0, -0.33816227316856384, -5.7373552322387695, 0.42664992809295654
17406, 0.08057314157485962, -0.27511778473854065, -0.06977811455726624, 0.07614373415708542, 0.22258296608924866, 0.05894679203629494, -0.002592948265373707, -0.0025246788281947374, 1.0004208087921143, -0.33749645948410034, -5.745758056640625, 0.4272677004337311, 0.0, 0.0, 0.0, 0, 0, 0, 0, 0, 0, -0.33749645948410034, -5.745758056640625, 0.4272677004337311
17416, 0.08037081360816956, -0.27561843395233154, -0.07105641812086105, -0.13061845302581787, 0.08906066417694092, -0.23032836616039276, -0.0011580809950828552, -0.0030042945872992277, 1.001713752746582, -0.3368290662765503, -5.754166126251221, 0.4278850853443146, 0.0, 0.0, 0.0, 0, 0, 0, 0, 0, 0, -0.3368290662765503, -5.754166126251221, 0.4278850853443146
17426, 0.08092091232538223, -0.27578073740005493, -0.0702182725071907, 0.06814803928136826, -0.04700932651758194, 0.16814273595809937, -0.000876299396622926, -0.005732147954404354, 1.0006316900253296, -0.3361589312553406, -5.762578010559082, 0.4285033643245697, 0.0, 0.0, 0.0, 0, 0, 0, 0, 0, 0, -0.3361589312553406, -5.762578010559082, 0.4285033643245697
17436, 0.08195099979639053, -0.27609267830848694, -0.0699908658862114, 0.03222221881151199, 0.017704365774989128, -0.10342486947774887, -0.005127559881657362, -0.007171803619712591, 1.0002813339233398, -0.3354851305484772, -5.770995616912842, 0.4291228950023651, 0.0, 0.0, 0.0, 0, 0, 0, 0, 0, 0, -0.3354851305484772, -5.770995616912842, 0.4291228950023651
17446, 0.08157511800527573, -0.2762725055217743, -0.07023737579584122, -0.1459263563156128, 0.14689549803733826, -0.20007939636707306, -0.0015933336690068245, -0.0064606377854943275, 1.002057433128357, -0.33480942249298096, -5.779420852661133, 0.42974308133125305, 0.0, 0.0, 0.0, 0, 0, 0, 0, 0, 0, -0.33480942249298096, -5.779420852661133, 0.42974308133125305
17456, 0.08347755670547485, -0.2761242985725403, -0.07097655534744263, 0.2491261214017868, 0.0851765125989914, -0.1825810819864273, -0.0006426670588552952, -0.0066687860526144505, 1.00017249584198, -0.33413219451904297, -5.787854194641113, 0.4303642511367798, 0.0, 0.0, 0.0, 0, 0, 0, 0, 0, 0, -0.33413219451904297, -5.787854194641113, 0.4303642511367798
17466, 0.08362296968698502, -0.27648523449897766, -0.0698157399892807, 0.022975917905569077, 0.10306712985038757, 0.2514985203742981, -0.003275585360825062, -0.005664566997438669, 1.000590443611145, -0.3334513008594513, -5.796295166015625, 0.43098655343055725, 0.0, 0.0, 0.0, 0, 0, 0, 0, 0, 0, -0.3334513008594513, -5.796295166015625, 0.43098655343055725
17476, 0.08253218978643417, -0.27761006355285645, -0.07004765421152115, -0.1484367996454239, 0.16486506164073944, -0.03956437110900879, -0.004296095576137304, -0.0022693495266139507, 0.9996628761291504, -0.3327672779560089, -5.804743766784668, 0.4316093921661377, 0.0, 0.0, 0.0, 0, 0, 0, 0, 0, 0, -0.3327672779560089, -5.804743766784668, 0.4316093921661377
17486, 0.08306454122066498, -0.27752482891082764, -0.06960637867450714, -0.041542429476976395, 0.03829941898584366, -0.0658457949757576, -0.004576746840029955, -0.0036906744353473186, 1.0007282495498657, -0.33208203315734863, -5.813198089599609, 0.4322322607040405, 0.0, 0.0, 0.0, 0, 0, 0, 0, 0, 0, -0.33208203315734863, -5.813198089599609, 0.4322322607040405
17496, 0.0834360346198082, -0.2786411941051483, -0.06967275589704514, -0.05850476771593094, 0.15573833882808685, -0.00326210237108171, -0.003702115034684539, -0.005019503179937601, 1.0014556646347046, -0.33139631152153015, -5.821657180786133, 0.4328552186489105, 0.0, 0.0, 0.0, 0, 0, 0, 0, 0, 0, -0.33139631152153015, -5.821657180786133, 0.4328552186489105
17506, 0.08437836915254593, -0.2773161232471466, -0.07107451558113098, 0.057274699211120605, -0.24380652606487274, -0.12529247999191284, -0.0020148586481809616, -0.004291956312954426, 0.9994834065437317, -0.33070969581604004, -5.830121994018555, 0.43347907066345215, 0.0, 0.0, 0.0, 0, 0, 0, 0, 0, 0, -0.33070969581604004, -5.830121994018555, 0.43347907066345215
17516, 0.08562083542346954, -0.2785913348197937, -0.07002861797809601, 0.11625377833843231, 0.12964387238025665, 0.09329419583082199, -0.0034420243464410305, -0.0044355918653309345, 0.9989368915557861, -0.33002105355262756, -5.838592529296875, 0.4341033399105072, 0.0, 0.0, 0.0, 0, 0, 0, 0, 0, 0, -0.33002105355262756, -5.838592529296875, 0.4341033399105072
17526, 0.0853845626115799, -0.2774476408958435, -0.06952254474163055, -0.015953300520777702, -0.04272308200597763, -0.009842675179243088, -0.001829385058954358, -0.005030574277043343, 1.0006426572799683, -0.32933029532432556, -5.847068786621094, 0.4347270429134369, 0.0, 0.0, 0.0, 0, 0, 0, 0, 0, 0, -0.32933029532432556, -5.847068786621094, 0.4347270429134369
17536, 0.08506534993648529, -0.27650102972984314, -0.0712517723441124, 0.03134598955512047, -0.0847121998667717, -0.24541273713111877, -0.003129339776933193, -0.0057301572524011135, 1.0006396770477295, -0.32863742113113403, -5.855551242828369, 0.43535056710243225, 0.0, 0.0, 0.0, 0, 0, 0, 0, 0, 0, -0.32863742113113403, -5.855551242828369, 0.43535056710243225
17546, 0.0857454240322113, -0.2768735885620117, -0.07122965902090073, 0.26854103803634644, 0.08726019412279129, 0.039373524487018585, -0.002461172640323639, -0.004633182659745216, 0.9998983144760132, -0.3279421329498291, -5.864040374755859, 0.4359745383262634, 0.0, 0.0, 0.0, 0, 0, 0, 0, 0, 0, -0.3279421329498291, -5.864040374755859, 0.4359745383262634
17556, 0.08651883155107498, -0.2758580446243286, -0.07239282131195068, 0.23274274170398712, -0.027203848585486412, -0.2526216208934784, -0.0010238161776214838, -0.005399739369750023, 1.0001119375228882, -0.32724452018737793, -5.8725361824035645, 0.43659868836402893, 0.0, 0.0, 0.0, 0, 0, 0, 0, 0, 0, -0.32724452018737793, -5.8725361824035645, 0.43659868836402893
17566, 0.08620767295360565, -0.27528631687164307, -0.07133468985557556, -0.008558169938623905, 0.01678977534174919, 0.038234394043684006, -0.0010940497741103172, -0.005383523181080818, 0.9990902543067932, -0.3265439569950104, -5.881038188934326, 0.437222957611084, 0.0, 0.0, 0.0, 0, 0, 0, 0, 0, 0, -0.3265439569950104, -5.881038188934326, 0.437222957611084
17576, 0.08630316704511642, -0.2758108079433441, -0.07153502106666565, -0.03522701561450958, 0.1394031047821045, -0.010023742914199829, -0.0028008585795760155, -0.005228445865213871, 0.9993827939033508, -0.32583969831466675, -5.889546871185303, 0.4378468692302704, 0.0, 0.0, 0.0, 0, 0, 0, 0, 0, 0, -0.32583969831466675, -5.889546871185303, 0.4378468692302704
17586, 0.08686451613903046, -0.2754824757575989, -0.07251164317131042, 0.03620864450931549, 0.1226377934217453, -0.17328542470932007, -0.0023018214851617813, -0.003593974281102419, 0.9994733333587646, -0.3251323997974396, -5.898062229156494, 0.43846985697746277, 0.0, 0.0, 0.0, 0, 0, 0, 0, 0, 0, -0.3251323997974396, -5.898062229156494, 0.43846985697746277
17596, 0.08779749274253845, -0.27482667565345764, -0.07133413106203079, 0.08910820633172989, 0.03196384012699127, 0.08458244055509567, -0.0018962330650538206, -0.0039162710309028625, 1.0006147623062134, -0.32442280650138855, -5.906583786010742, 0.4390923082828522, 0.0, 0.0, 0.0, 0, 0, 0, 0, 0, 0, -0.32442280650138855, -5.906583786010742, 0.4390923082828522
17606, 0.08788897842168808, -0.2752222418785095, -0.0720100998878479, 0.06687521934509277, 0.06563866883516312, -0.1996229737997055, -0.0018408510368317366, -0.005253838375210762, 1.0015383958816528, -0.32371070981025696, -5.9151105880737305, 0.4397149085998535, 0.0, 0.0, 0.0, 0, 0, 0, 0, 0, 0, -0.32371070981025696, -5.9151105880737305, 0.4397149085998535
17616, 0.08701303601264954, -0.27651718258857727, -0.07194365561008453, -0.18354661762714386, 0.1536375880241394, -0.19581244885921478, -0.002522862982004881, -0.006694972515106201, 0.9983999133110046, -0.3229958415031433, -5.923643589019775, 0.4403383433818817, 0.0, 0.0, 0.0, 0, 0, 0, 0, 0, 0, -0.3229958415031433, -5.923643589019775, 0.4403383433818817
17626, 0.08674362301826477, -0.27637729048728943, -0.07084921002388, 0.08582588285207748, 0.031033996492624283, 0.05736582353711128, -0.0030488662887364626, -0.004986080806702375, 0.999837338924408, -0.3222784698009491, -5.932183742523193, 0.4409617483615875, 0.0, 0.0, 0.0, 0, 0, 0, 0, 0, 0, -0.3222784698009491, -5.932183742523193, 0.4409617483615875
17636, 0.08700300008058548, -0.27755019068717957, -0.07110422104597092, 0.07440370321273804, 0.17323125898838043, 0.04498293250799179, -0.003194341668859124, -0.00408688560128212, 1.0016169548034668, -0.32155919075012207, -5.940730571746826, 0.4415845274925232, 0.0, 0.0, 0.0, 0, 0, 0, 0, 0, 0, -0.32155919075012207, -5.940730571746826, 0.4415845274925232
17646, 0.08758143335580826, -0.2772291302680969, -0.06976012885570526, 0.029861005023121834, -0.14470505714416504, 0.34470948576927185, -0.002309270901605487, -0.005283842794597149, 1.0007699728012085, -0.32083821296691895, -5.949283599853516, 0.4422079026699066, 0.0, 0.0, 0.0, 0, 0, 0, 0, 0, 0, -0.32083821296691895, -5.949283599853516, 0.4422079026699066
17656, 0.0877348855137825, -0.2795372009277344, -0.06923429667949677, 0.13874201476573944, 0.20034290850162506, 0.16978143155574799, -0.003179999301210046, -0.004978273529559374, 0.9974454045295715, -0.3201152980327606, -5.9578423500061035, 0.4428323805332184, 0.0, 0.0, 0.0, 0, 0, 0, 0, 0, 0, -0.3201152980327606, -5.9578423500061035, 0.4428323805332184
17666, 0.08685394376516342, -0.2802537679672241, -0.06896200776100159, -0.07124359905719757, -0.05554186925292015, 0.24351158738136292, -0.005262643564492464, -0.005298213101923466, 0.9981039762496948, -0.3193904161453247, -5.966407775878906, 0.4434562027454376, 0.0, 0.0, 0.0, 0, 0, 0, 0, 0, 0, -0.3193904161453247, -5.966407775878906, 0.4434562027454376
17676, 0.08829204738140106, -0.2806597948074341, -0.06901582330465317, 0.11395201086997986, -0.02225903607904911, 0.04685072600841522, -0.0022126534022390842, -0.004636663012206554, 0.9995909333229065, -0.3186648190021515, -5.974979877471924, 0.44407811760902405, 0.0, 0.0, 0.0, 0, 0, 0, 0, 0, 0, -0.3186648190021515, -5.974979877471924, 0.44407811760902405
17686, 0.08808081597089767, -0.2799568772315979, -0.06871218234300613, -0.11163497716188431, -0.09084024280309677, -0.02565266750752926, -0.00036207286757417023, -0.004524717573076487, 1.0025938749313354, -0.3179382383823395, -5.983558177947998, 0.4446990489959717, 0.0, 0.0, 0.0, 0, 0, 0, 0, 0, 0, -0.3179382383823395, -5.983558177947998, 0.4446990489959717
17696, 0.08850763738155365, -0.27689144015312195, -0.06893816590309143, 0.0891595184803009, -0.43886497616767883, -0.13683772087097168, -0.003930429928004742, -0.0044744573533535, 1.0003501176834106, -0.3172086477279663, -5.992142677307129, 0.4453209638595581, 0.0, 0.0, 0.0, 0, 0, 0, 0, 0, 0, -0.3172086477279663, -5.992142677307129, 0.4453209638595581
17706, 0.08815912157297134, -0.2762712240219116, -0.06960971653461456, -0.02469869889318943, -0.046005137264728546, -0.22889801859855652, -0.004588613752275705, -0.007338769268244505, 1.0001951456069946, -0.31647661328315735, -6.000733375549316, 0.4459443986415863, 0.0, 0.0, 0.0, 0, 0, 0, 0, 0, 0, -0.31647661328315735, -6.000733375549316, 0.4459443986415863
17716, 0.08934248238801956, -0.2768299877643585, -0.070439413189888, 0.16596828401088715, -0.034292448312044144, -0.10281795263290405, -0.002738450886681676, -0.005847596563398838, 1.0011851787567139, -0.31574392318725586, -6.009331226348877, 0.44656839966773987, 0.0, 0.0, 0.0, 0, 0, 0, 0, 0, 0, -0.31574392318725586, -6.009331226348877, 0.44656839966773987
17726, 0.08995126187801361, -0.27645817399024963, -0.07051127403974533, 0.04756476357579231, -0.04009975492954254, 0.02488650009036064, -0.0015518144937232137, -0.005281955935060978, 1.0018619298934937, -0.31501033902168274, -6.017937183380127, 0.4471930265426636, 0.0, 0.0, 0.0, 0, 0, 0, 0, 0, 0, -0.31501033902168274, -6.017937183380127, 0.4471930265426636
17736, 0.09030946344137192, -0.27648624777793884, -0.0712064877152443, -0.08859481662511826, 0.09117619693279266, -0.25300082564353943, -0.0017911219038069248, -0.005698528606444597, 1.0011204481124878, -0.3142743408679962, -6.026549816131592, 0.44781917333602905, 0.0, 0.0, 0.0, 0, 0, 0, 0, 0, 0, -0.3142743408679962, -6.026549816131592, 0.44781917333602905
17746, 0.09069335460662842, -0.27909666299819946, -0.06975053995847702, 0.03223598748445511, 0.4581867456436157, 0.159062460064888, 0.0004109708534087986, -0.007125573232769966, 0.9992663860321045, -0.31353503465652466, -6.03516960144043, 0.44844692945480347, 0.0, 0.0, 0.0, 0, 0, 0, 0, 0, 0, -0.31353503465652466, -6.03516960144043, 0.44844692945480347
17756, 0.09045186638832092, -0.2797057330608368, -0.06959718465805054, -0.11027350276708603, 0.17487674951553345, 0.08466480672359467, -0.0017071670154109597, -0.007014811038970947, 1.0003039836883545, -0.31279173493385315, -6.043797016143799, 0.4490750730037689, 0.0, 0.0, 0.0, 0, 0, 0, 0, 0, 0, -0.31279173493385315, -6.043797016143799, 0.4490750730037689
17766, 0.09151377528905869, -0.2805096507072449, -0.07039196044206619, 0.06911107152700424, 0.2794175446033478, -0.024328671395778656, -0.0024399645626544952, -0.006939863786101341, 1.000986099243164, -0.3120444715023041, -6.052433013916016, 0.4497031569480896, 0.0, 0.0, 0.0, 0, 0, 0, 0, 0, 0, -0.3120444715023041, -6.052433013916016, 0.4497031569480896
17776, 0.09095706790685654, -0.28065651655197144, -0.0704389289021492, -0.18816904723644257, 0.034732040017843246, -0.06574460864067078, -0.003939059562981129, -0.00439750449731946, 0.9994279146194458, -0.31129446625709534, -6.06107759475708, 0.45033177733421326, 0.0, 0.0, 0.0, 0, 0, 0, 0, 0, 0, -0.31129446625709534, -6.06107759475708, 0.45033177733421326
17786, 0.0918143168091774, -0.2814101278781891, -0.06990057229995728, 0.08096018433570862, 0.13581518828868866, -0.006535069551318884, -0.003934506792575121, -0.004924817476421595, 1.0008186101913452, -0.31054291129112244, -6.069729804992676, 0.4509607255458832, 0.0, 0.0, 0.0, 0, 0, 0, 0, 0, 0, -0.31054291129112244, -6.069729804992676, 0.4509607255458832
17796, 0.09250625967979431, -0.2799900472164154, -0.07166554033756256, 0.04853348061442375, -0.22648310661315918, -0.5101482272148132, -0.003374180756509304, -0.0059943716041743755, 1.0034655332565308, -0.3097904920578003, -6.078388214111328, 0.4515899419784546, 0.0, 0.0, 0.0, 0, 0, 0, 0, 0, 0, -0.3097904920578003, -6.078388214111328, 0.4515899419784546
17806, 0.09145913273096085, -0.282216876745224, -0.07064135372638702, -0.12538771331310272, 0.27565744519233704, 0.07764091342687607, -0.004093791823834181, -0.005893719382584095, 1.0022773742675781, -0.30903705954551697, -6.087053298950195, 0.45222121477127075, 0.0, 0.0, 0.0, 0, 0, 0, 0, 0, 0, -0.30903705954551697, -6.087053298950195, 0.45222121477127075
17816, 0.09212516248226166, -0.28350695967674255, -0.06929567456245422, 0.08419681340456009, 0.1208885908126831, 0.12092936784029007, -0.0030130515806376934, -0.005707377567887306, 1.000349760055542, -0.3082827031612396, -6.095726013183594, 0.4528554379940033, 0.0, 0.0, 0.0, 0, 0, 0, 0, 0, 0, -0.3082827031612396, -6.095726013183594, 0.4528554379940033
17826, 0.09390213340520859, -0.2846185564994812, -0.06874402612447739, 0.2651805579662323, 0.25447508692741394, -0.06981290876865387, -0.0032182650174945593, -0.0053141796961426735, 0.9984859228134155, -0.3075271248817444, -6.104405879974365, 0.4534911811351776, 0.0, 0.0, 0.0, 0, 0, 0, 0, 0, 0, -0.3075271248817444, -6.104405879974365, 0.4534911811351776
17836, 0.09371908009052277, -0.28435882925987244, -0.06872060894966125, 0.026205111294984818, -0.13145017623901367, -0.09606528282165527, -0.0031011952087283134, -0.005176290404051542, 1.0024559497833252, -0.30676984786987305, -6.11309289932251, 0.4541265666484833, 0.0, 0.0, 0.0, 0, 0, 0, 0, 0, 0, -0.30676984786987305, -6.11309289932251, 0.4541265666484833
17846, 0.09356468170881271, -0.2839222252368927, -0.06791447848081589, -0.04261293262243271, -0.06059209257364273, 0.03195784240961075, -0.0036836201325058937, -0.006940249819308519, 1.0014557838439941, -0.30601105093955994, -6.121787071228027, 0.4547622501850128, 0.0, 0.0, 0.0, 0, 0, 0, 0, 0, 0, -0.30601105093955994, -6.121787071228027, 0.4547622501850128
17856, 0.09430922567844391, -0.2843359708786011, -0.06744677573442459, 0.15771156549453735, -0.0465652160346508, 0.0533953532576561, -0.0015885188477113843, -0.004950769245624542, 1.001296043395996, -0.3052508234977722, -6.130488395690918, 0.45539963245391846, 0.0, 0.0, 0.0, 0, 0, 0, 0, 0, 0, -0.3052508234977722, -6.130488395690918, 0.45539963245391846
17866, 0.09550829231739044, -0.2864854037761688, -0.0670245960354805, 0.2464059442281723, 0.3929605782032013, 0.1856929063796997, -0.0018297905335202813, -0.00583501486107707, 0.9992001056671143, -0.3044883906841278, -6.13919734954834, 0.45603832602500916, 0.0, 0.0, 0.0, 0, 0, 0, 0, 0, 0, -0.3044883906841278, -6.13919734954834, 0.45603832602500916
17876, 0.09615730494260788, -0.2875376045703888, -0.06581820547580719, 0.15608230233192444, 0.061670932918787, 0.26783546805381775, -0.0023693472612649202, -0.007185165770351887, 0.9999049305915833, -0.30372297763824463, -6.147913455963135, 0.4566773474216461, 0.0, 0.0, 0.0, 0, 0, 0, 0, 0, 0, -0.30372297763824463, -6.147913455963135, 0.4566773474216461
17886, 0.09530311077833176, -0.2885380983352661, -0.06479264050722122, -0.1520332396030426, 0.10554660856723785, 0.14859022200107574, -0.0017757657915353775, -0.00636181328445673, 1.0013822317123413, -0.3029547929763794, -6.156637668609619, 0.45731616020202637, 0.0, 0.0, 0.0, 0, 0, 0, 0, 0, 0, -0.3029547929763794, -6.156637668609619, 0.45731616020202637
17896, 0.09464740008115768, -0.2882155179977417, -0.06618554145097733, -0.0949990302324295, 0.07584032416343689, -0.36029955744743347, -0.001412772573530674, -0.004566645715385675, 0.9986111521720886, -0.3021836280822754, -6.165369987487793, 0.45795536041259766, 0.0, 0.0, 0.0, 0, 0, 0, 0, 0, 0, -0.3021836280822754, -6.165369987487793, 0.45795536041259766
17906, 0.09497839212417603, -0.28818339109420776, -0.06604348123073578, 0.18661867082118988, 0.08067312836647034, 0.01680801808834076, -0.002196983201429248, -0.005417109467089176, 0.9970856308937073, -0.3014090657234192, -6.17410945892334, 0.4585943818092346, 0.0, 0.0, 0.0, 0, 0, 0, 0, 0, 0, -0.3014090657234192, -6.17410945892334, 0.4585943818092346
17916, 0.0950774997472763, -0.2897590398788452, -0.06620300561189651, -0.001987577648833394, 0.1846378594636917, -0.01472418662160635, -0.00043272721813991666, -0.006476832553744316, 0.9994745254516602, -0.3006313145160675, -6.182855606079102, 0.45923152565956116, 0.0, 0.0, 0.0, 0, 0, 0, 0, 0, 0, -0.3006313145160675, -6.182855606079102, 0.45923152565956116
17926, 0.09478025138378143, -0.29001954197883606, -0.06603098660707474, -0.12526138126850128, 0.052019037306308746, -0.08547205477952957, -0.0027120658196508884, -0.005980261135846376, 1.0011036396026611, -0.2998499274253845, -6.1916093826293945, 0.45986688137054443, 0.0, 0.0, 0.0, 0, 0, 0, 0, 0, 0, -0.2998499274253845, -6.1916093826293945, 0.45986688137054443
17936, 0.09463542699813843, -0.2904142737388611, -0.06594596058130264, -0.021453123539686203, 0.07895142585039139, -0.06261985003948212, -0.0018287732964381576, -0.007394846528768539, 1.0014779567718506, -0.2990650534629822, -6.200370788574219, 0.46050211787223816, 0.0, 0.0, 0.0, 0, 0, 0, 0, 0, 0, -0.2990650534629822, -6.200370788574219, 0.46050211787223816
17946, 0.09453738480806351, -0.2897907495498657, -0.0663234144449234, 0.1179892048239708, -0.1189698800444603, 0.007124736439436674, -0.0016157791251316667, -0.006941684987396002, 0.9998196959495544, -0.2982774078845978, -6.209140300750732, 0.461138516664505, 0.0, 0.0, 0.0, 0, 0, 0, 0, 0, 0, -0.2982774078845978, -6.209140300750732, 0.461138516664505
17956, 0.09430728852748871, -0.29114434123039246, -0.06670784205198288, 0.05533696338534355, 0.19311079382896423, -0.012317899614572525, 0.0002901818370446563, -0.004537064116448164, 1.0000333786010742, -0.2974865138530731, -6.217918395996094, 0.461775541305542, 0.0, 0.0, 0.0, 0, 0, 0, 0, 0, 0, -0.2974865138530731, -6.217918395996094, 0.461775541305542
17966, 0.09479395300149918, -0.29140737652778625, -0.06641644984483719, -0.01269816979765892, 0.08789778500795364, -0.005640935152769089, -0.00242411601357162, -0.0036117262206971645, 1.0001736879348755, -0.29669132828712463, -6.226703643798828, 0.462412565946579, 0.0, 0.0, 0.0, 0, 0, 0, 0, 0, 0, -0.29669132828712463, -6.226703643798828, 0.462412565946579
17976, 0.09455490857362747, -0.2929985523223877, -0.06788787245750427, -0.10291985422372818, 0.3368948996067047, -0.20968635380268097, -0.004449362400919199, -0.005656710360199213, 1.0002938508987427, -0.2958919405937195, -6.235495090484619, 0.46304985880851746, 0.0, 0.0, 0.0, 0, 0, 0, 0, 0, 0, -0.2958919405937195, -6.235495090484619, 0.46304985880851746
17986, 0.09358182549476624, -0.293732613325119, -0.06859954446554184, -0.14555463194847107, 0.1581205427646637, -0.1327870488166809, 0.00033578905276954174, -0.004365568049252033, 0.9996365308761597, -0.2950904965400696, -6.244292259216309, 0.46368756890296936, 0.0, 0.0, 0.0, 0, 0, 0, 0, 0, 0, -0.2950904965400696, -6.244292259216309, 0.46368756890296936
17996, 0.09378767013549805, -0.29423680901527405, -0.06718971580266953, -0.0764584019780159, 0.14013788104057312, 0.12349606305360794, -0.0010339794680476189, -0.005516854114830494, 0.9991562366485596, -0.2942864000797272, -6.253096103668213, 0.464325487613678, 0.0, 0.0, 0.0, 0, 0, 0, 0, 0, 0, -0.2942864000797272, -6.253096103668213, 0.464325487613678
18006, 0.09412745386362076, -0.294571191072464, -0.06628578901290894, -0.007744694594293833, -0.10486466437578201, 0.17441129684448242, -0.0019701679702848196, -0.004665776621550322, 1.0007933378219604, -0.29347777366638184, -6.261906147003174, 0.46496298909187317, 0.0, 0.0, 0.0, 0, 0, 0, 0, 0, 0, -0.29266542196273804, -6.27072286605835, 0.46560025215148926
18016, 0.09381368011236191, -0.295279860496521, -0.0660068541765213, 0.005523396655917168, -0.006090011913329363, 0.14127947390079498, -0.0003241582599002868, -0.00696405628696084, 1.0023794174194336, -0.29266542196273804, -6.27072286605835, 0.46560025215148926, 0.0, 0.0, 0.0, 0, 0, 0, 0, 0, 0, -0.29184937477111816, -6.279547214508057, 0.466238796710968
18026, 0.09485180675983429, -0.2950010895729065, -0.06578199565410614, 0.08371666818857193, -0.046000659465789795, 0.04941970482468605, -0.0008030145545490086, -0.0055919005535542965, 1.001851201057434, -0.29184937477111816, -6.279547214508057, 0.466238796710968, 0.0, 0.0, 0.0, 0, 0, 0, 0, 0, 0, -0.2910289466381073, -6.288379192352295, 0.46687939763069153
18036, 0.09484180063009262, -0.2952498495578766, -0.06473946571350098, 0.0011566164903342724, -0.08747716248035431, -0.04094495251774788, -0.0012181318597868085, -0.00284252199344337, 0.9991807341575623, -0.2910289466381073, -6.288379192352295, 0.46687939763069153, 0.0, 0.0, 0.0, 0, 0, 0, 0, 0, 0, -0.29020455479621887, -6.297216892242432, 0.46752065420150757
18046, 0.09389475733041763, -0.29351893067359924, -0.06518585234880447, -0.1937362104654312, -0.14183463156223297, -0.24965785443782806, -0.0020598049741238356, -0.003599919378757477, 1.0002528429031372, -0.29020455479621887, -6.297216892242432, 0.46752065420150757, 0.0, 0.0, 0.0, 0, 0, 0, 0, 0, 0, -0.28937670588493347, -6.306059837341309, 0.46816158294677734
18056, 0.09470723569393158, -0.2947061061859131, -0.06293775141239166, 0.16602514684200287, 0.25702330470085144, 0.3513549566268921, -0.0020278142765164375, -0.004819454159587622, 0.9998906850814819, -0.28937670588493347, -6.306059837341309, 0.46816158294677734, 0.0, 0.0, 0.0, 0, 0, 0, 0, 0, 0, -0.2885456085205078, -6.314908027648926, 0.4688025414943695
18066, 0.09481289237737656, -0.29463762044906616, -0.06333262473344803, -0.05896759405732155, 0.08675206452608109, 0.026908911764621735, -0.0029841281939297915, -0.005441742949187756, 0.9997143745422363, -0.2885456085205078, -6.314908027648926, 0.4688025414943695, 0.0, 0.0, 0.0, 0, 0, 0, 0, 0, 0, -0.2877117991447449, -6.3237624168396, 0.46944352984428406
18076, 0.09592873603105545, -0.293979674577713, -0.06298062950372696, 0.17020155489444733, 0.014843231998383999, 0.0951097160577774, -0.0029170187190175056, -0.005420355126261711, 1.0013996362686157, -0.2877117991447449, -6.3237624168396, 0.46944352984428406, 0.0, 0.0, 0.0, 0, 0, 0, 0, 0, 0, -0.28687578439712524, -6.3326239585876465, 0.47008511424064636
18086, 0.0944555252790451, -0.29382598400115967, -0.06236007809638977, -0.17466872930526733, -0.002399943768978119, 0.1330084502696991, -0.0018699258798733354, -0.004901937209069729, 1.004158616065979, -0.28687578439712524, -6.3326239585876465, 0.47008511424064636, 0.0, 0.0, 0.0, 0, 0, 0, 0, 0, 0, -0.28687578439712524, -6.3326239585876465, 0.47008511424064636
18096, 0.09383676946163177, -0.2953997850418091, -0.06339772790670395, -0.13163286447525024, 0.40636271238327026, -0.0244753435254097, -0.0013922267826274037, -0.006605657748878002, 1.0010830163955688, -0.2860371172428131, -6.341492176055908, 0.4707289934158325, 0.0, 0.0, 0.0, 0, 0, 0, 0, 0, 0, -0.2860371172428131, -6.341492176055908, 0.4707289934158325
18106, 0.09399183839559555, -0.2961183488368988, -0.061919208616018295, 0.02435271441936493, 0.17334026098251343, 0.23231017589569092, -0.0017497777007520199, -0.004817925859242678, 1.0006102323532104, -0.2851950228214264, -6.350367546081543, 0.4713752865791321, 0.0, 0.0, 0.0, 0, 0, 0, 0, 0, 0, -0.2851950228214264, -6.350367546081543, 0.4713752865791321
18116, 0.09443353116512299, -0.2952303886413574, -0.0625256896018982, 0.009639543481171131, -0.13822869956493378, -0.2410692721605301, -0.003399926470592618, -0.005787597969174385, 1.0010172128677368, -0.2843495309352875, -6.359250068664551, 0.4720227122306824, 0.0, 0.0, 0.0, 0, 0, 0, 0, 0, 0, -0.2843495309352875, -6.359250068664551, 0.4720227122306824
18126, 0.09402718394994736, -0.29724952578544617, -0.06305772066116333, -0.09163670986890793, 0.32134950160980225, -0.14008371531963348, -0.0032852133736014366, -0.005078624468296766, 1.0011545419692993, -0.28350159525871277, -6.368139743804932, 0.47267112135887146, 0.0, 0.0, 0.0, 0, 0, 0, 0, 0, 0, -0.28350159525871277, -6.368139743804932, 0.47267112135887146
18136, 0.09494058787822723, -0.29589951038360596, -0.06479671597480774, 0.18945004045963287, -0.20238088071346283, -0.12378286570310593, -0.003853610949590802, -0.007485109847038984, 0.9989936351776123, -0.2826518714427948, -6.3770365715026855, 0.47332069277763367, 0.0, 0.0, 0.0, 0, 0, 0, 0, 0, 0, -0.2826518714427948, -6.3770365715026855, 0.47332069277763367
18146, 0.09417592734098434, -0.29616767168045044, -0.0635751411318779, -0.021378373727202415, 0.118384450674057, 0.2789393365383148, -0.0023553110659122467, -0.00788963958621025, 0.9982681274414062, -0.28180062770843506, -6.385941028594971, 0.47397035360336304, 0.0, 0.0, 0.0, 0, 0, 0, 0, 0, 0, -0.28180062770843506, -6.385941028594971, 0.47397035360336304
18156, 0.09422635287046432, -0.2977641522884369, -0.06347779929637909, -0.04455002024769783, 0.25896117091178894, -0.023189228028059006, -0.0024367610458284616, -0.005716912914067507, 1.0001869201660156, -0.28094762563705444, -6.394854545593262, 0.47461873292922974, 0.0, 0.0, 0.0, 0, 0, 0, 0, 0, 0, -0.28094762563705444, -6.394854545593262, 0.47461873292922974
18166, 0.09395168721675873, -0.2979936897754669, -0.06457693874835968, -0.10313322395086288, 0.12675438821315765, -0.13161446154117584, -0.0017441693926230073, -0.006221653427928686, 1.001129150390625, -0.2800920605659485, -6.403776168823242, 0.4752662777900696, 0.0, 0.0, 0.0, 0, 0, 0, 0, 0, 0, -0.2800920605659485, -6.403776168823242, 0.4752662777900696
18176, 0.09457332640886307, -0.29830026626586914, -0.06507246196269989, 0.13280194997787476, 0.15277597308158875, -0.04861242696642876, -0.003301625605672598, -0.0029333431739360094, 1.0006550550460815, -0.279233455657959, -6.412704944610596, 0.47591423988342285, 0.0, 0.0, 0.0, 0, 0, 0, 0, 0, 0, -0.279233455657959, -6.412704944610596, 0.47591423988342285
18186, 0.09357759356498718, -0.298385351896286, -0.06475374102592468, -0.02689698152244091, 0.07702744007110596, -0.030367285013198853, -0.00320691941305995, -0.0037837468553334475, 1.002516746520996, -0.27837228775024414, -6.421639919281006, 0.4765631854534149, 0.0, 0.0, 0.0, 0, 0, 0, 0, 0, 0, -0.27837228775024414, -6.421639919281006, 0.4765631854534149
18196, 0.09393905103206635, -0.2979142963886261, -0.06498587876558304, 0.12493152916431427, 0.0019245018484070897, -0.13136084377765656, -0.002043709624558687, -0.0047676642425358295, 1.003084659576416, -0.2775091528892517, -6.430579662322998, 0.47721385955810547, 0.0, 0.0, 0.0, 0, 0, 0, 0, 0, 0, -0.2775091528892517, -6.430579662322998, 0.47721385955810547
18206, 0.09368937462568283, -0.2963876724243164, -0.06597369909286499, 0.07058925181627274, -0.20551176369190216, -0.24664179980754852, -0.002301349537447095, -0.0056232064962387085, 1.0019679069519043, -0.2766435146331787, -6.439525127410889, 0.47786712646484375, 0.0, 0.0, 0.0, 0, 0, 0, 0, 0, 0, -0.2766435146331787, -6.439525127410889, 0.47786712646484375
18216, 0.0935615599155426, -0.2963210642337799, -0.06595451384782791, 0.09424274414777756, -0.00024357302754651755, -0.10517269372940063, -0.0021071855444461107, -0.0059606474824249744, 1.0009386539459229, -0.27577483654022217, -6.448477745056152, 0.478522926568985, 0.0, 0.0, 0.0, 0, 0, 0, 0, 0, 0, -0.27577483654022217, -6.448477745056152, 0.478522926568985
18226, 0.0939081534743309, -0.29609251022338867, -0.06660053133964539, 0.15496553480625153, 0.0425390861928463, -0.11066564172506332, -0.00423622690141201, -0.004680987913161516, 0.9986574053764343, -0.2749030888080597, -6.457437515258789, 0.4791804850101471, 0.0, 0.0, 0.0, 0, 0, 0, 0, 0, 0, -0.2749030888080597, -6.457437515258789, 0.4791804850101471
18236, 0.09407882392406464, -0.2951858341693878, -0.06631365418434143, -0.09794401377439499, -0.052779171615839005, 0.09989847242832184, -0.006126903463155031, -0.003233435330912471, 0.9999005794525146, -0.27402931451797485, -6.466403961181641, 0.47983822226524353, 0.0, 0.0, 0.0, 0, 0, 0, 0, 0, 0, -0.27402931451797485, -6.466403961181641, 0.47983822226524353
18246, 0.09433188289403915, -0.2960135340690613, -0.06616107374429703, -0.10474096983671188, 0.17479529976844788, 0.06358115375041962, -0.001956191146746278, -0.005510236602276564, 1.0007668733596802, -0.2731553912162781, -6.475376129150391, 0.48049530386924744, 0.0, 0.0, 0.0, 0, 0, 0, 0, 0, 0, -0.2731553912162781, -6.475376129150391, 0.48049530386924744
18256, 0.09449715167284012, -0.2975251078605652, -0.06526573747396469, 0.01992804929614067, 0.18073619902133942, 0.2853422462940216, -0.0007823357009328902, -0.003742808476090431, 1.0007059574127197, -0.2722805440425873, -6.484354019165039, 0.48115265369415283, 0.0, 0.0, 0.0, 0, 0, 0, 0, 0, 0, -0.2722805440425873, -6.484354019165039, 0.48115265369415283
18266, 0.09402558207511902, -0.2963022291660309, -0.06513482332229614, -0.014783937484025955, -0.126676544547081, -0.03615835681557655, -0.0010944890091195703, -0.004420568235218525, 0.9986860156059265, -0.2714022696018219, -6.493338108062744, 0.4818108081817627, 0.0, 0.0, 0.0, 0, 0, 0, 0, 0, 0, -0.2714022696018219, -6.493338108062744, 0.4818108081817627
18276, 0.0943155437707901, -0.29445526003837585, -0.06449471414089203, 0.12344402074813843, -0.33750468492507935, 0.0987144187092781, -0.0032318769954144955, -0.005007132422178984, 1.0015497207641602, -0.27051979303359985, -6.502327919006348, 0.4824688732624054, 0.0, 0.0, 0.0, 0, 0, 0, 0, 0, 0, -0.27051979303359985, -6.502327919006348, 0.4824688732624054
18286, 0.09368631988763809, -0.2951752543449402, -0.06467345356941223, -0.12433085590600967, 0.12735585868358612, 0.1494918167591095, -0.0019759044516831636, -0.005337084643542767, 1.0016543865203857, -0.2696340084075928, -6.51132345199585, 0.48312702775001526, 0.0, 0.0, 0.0, 0, 0, 0, 0, 0, 0, -0.2696340084075928, -6.51132345199585, 0.48312702775001526
18296, 0.09284482896327972, -0.29683610796928406, -0.06546753644943237, -0.21767184138298035, 0.33311212062835693, 0.09108684211969376, -0.0015053568640723825, -0.004897491540759802, 1.0026750564575195, -0.2687456011772156, -6.520325660705566, 0.48378676176071167, 0.0, 0.0, 0.0, 0, 0, 0, 0, 0, 0, -0.2687456011772156, -6.520325660705566, 0.48378676176071167
18306, 0.09294743090867996, -0.29774969816207886, -0.06528585404157639, 0.04248587414622307, 0.09671038389205933, 0.0551413930952549, -0.0020058189984411, -0.006490639876574278, 1.000319242477417, -0.2678539454936981, -6.529334545135498, 0.4844488203525543, 0.0, 0.0, 0.0, 0, 0, 0, 0, 0, 0, -0.2678539454936981, -6.529334545135498, 0.4844488203525543
18316, 0.09232199937105179, -0.29633501172065735, -0.06540427356958389, -0.08472847938537598, -0.20169296860694885, -0.03162524476647377, -0.0034916168078780174, -0.005654564127326012, 1.0008525848388672, -0.266959011554718, -6.538351058959961, 0.48511236906051636, 0.0, 0.0, 0.0, 0, 0, 0, 0, 0, 0, -0.266959011554718, -6.538351058959961, 0.48511236906051636
18326, 0.09257145971059799, -0.2968377470970154, -0.06437671184539795, 0.016309399157762527, -0.012041154317557812, 0.013911946676671505, -0.0032324581407010555, -0.005898166913539171, 0.9996704459190369, -0.26606157422065735, -6.547375202178955, 0.485776424407959, 0.0, 0.0, 0.0, 0, 0, 0, 0, 0, 0, -0.26606157422065735, -6.547375202178955, 0.485776424407959
18336, 0.09312044829130173, -0.29825538396835327, -0.06626440584659576, 0.03554389625787735, 0.12091745436191559, -0.2504870891571045, -0.002661734353750944, -0.00667839078232646, 1.0001665353775024, -0.2651621401309967, -6.556406497955322, 0.4864406883716583, 0.0, 0.0, 0.0, 0, 0, 0, 0, 0, 0, -0.2651621401309967, -6.556406497955322, 0.4864406883716583
18346, 0.09294328838586807, -0.2985943853855133, -0.06595704704523087, 0.008606321178376675, -0.2087000012397766, 0.1561116725206375, -0.0005894589703530073, -0.006796135567128658, 0.9991520643234253, -0.2642603814601898, -6.565445423126221, 0.4871048629283905, 0.0, 0.0, 0.0, 0, 0, 0, 0, 0, 0, -0.2642603814601898, -6.565445423126221, 0.4871048629283905
18356, 0.09271203726530075, -0.29816296696662903, -0.06655944883823395, 0.03231784328818321, -0.03990675508975983, -0.02995365858078003, -0.002154981018975377, -0.00740196043625474, 0.9991244673728943, -0.2633551061153412, -6.574492454528809, 0.48776867985725403, 0.0, 0.0, 0.0, 0, 0, 0, 0, 0, 0, -0.2633551061153412, -6.574492454528809, 0.48776867985725403
18366, 0.09229765832424164, -0.2975209653377533, -0.06694880872964859, -0.02891760878264904, 0.012210985645651817, 0.010739949531853199, -0.0025119984056800604, -0.005213897675275803, 0.9998177886009216, -0.26244598627090454, -6.583548069000244, 0.488431841135025, 0.0, 0.0, 0.0, 0, 0, 0, 0, 0, 0, -0.26244598627090454, -6.583548069000244, 0.488431841135025
18376, 0.09213835746049881, -0.2953663766384125, -0.06716804206371307, 0.002180347917601466, -0.18194998800754547, -0.11698754131793976, -0.002633222145959735, -0.0026466085109859705, 0.9986395835876465, -0.26153385639190674, -6.592611312866211, 0.48909443616867065, 0.0, 0.0, 0.0, 0, 0, 0, 0, 0, 0, -0.26153385639190674, -6.592611312866211, 0.48909443616867065
18386, 0.0915849506855011, -0.2945880889892578, -0.06749889254570007, 0.06261821836233139, 0.05791802331805229, -0.011271536350250244, -0.0037374580278992653, -0.0027422148268669844, 1.001625895500183, -0.2606188952922821, -6.601680278778076, 0.4897562861442566, 0.0, 0.0, 0.0, 0, 0, 0, 0, 0, 0, -0.2606188952922821, -6.601680278778076, 0.4897562861442566
18396, 0.09128676354885101, -0.2931673228740692, -0.06835983693599701, 0.09564217180013657, -0.1450873613357544, -0.027726300060749054, -0.0028996053151786327, -0.004059851635247469, 1.0012567043304443, -0.2597016394138336, -6.610753536224365, 0.49041813611984253, 0.0, 0.0, 0.0, 0, 0, 0, 0, 0, 0, -0.2597016394138336, -6.610753536224365, 0.49041813611984253
18406, 0.09168519079685211, -0.29122769832611084, -0.06925322115421295, 0.1802162379026413, -0.2481067180633545, -0.0997062548995018, -0.0018325864803045988, -0.004715685732662678, 0.9995043277740479, -0.25878244638442993, -6.619831562042236, 0.4910813868045807, 0.0, 0.0, 0.0, 0, 0, 0, 0, 0, 0, -0.25878244638442993, -6.619831562042236, 0.4910813868045807
18416, 0.0918293222784996, -0.28859931230545044, -0.06932253390550613, 0.087915800511837, -0.10216197371482849, -0.06089494004845619, -0.001640182570554316, -0.005043157376348972, 1.0003823041915894, -0.2578607499599457, -6.628915309906006, 0.4917452335357666, 0.0, 0.0, 0.0, 0, 0, 0, 0, 0, 0, -0.2578607499599457, -6.628915309906006, 0.4917452335357666
18426, 0.09180473536252975, -0.28728342056274414, -0.06917987018823624, 0.006549025420099497, -0.04341847822070122, 0.11131948977708817, -0.0016290989005938172, -0.003711861092597246, 1.000229835510254, -0.25693607330322266, -6.638005256652832, 0.4924090504646301, 0.0, 0.0, 0.0, 0, 0, 0, 0, 0, 0, -0.25693607330322266, -6.638005256652832, 0.4924090504646301
18436, 0.09133480489253998, -0.28577500581741333, -0.0715116634964943, -0.1094374805688858, -0.13079096376895905, -0.279728502035141, -0.002196675632148981, -0.005373635794967413, 0.9998134970664978, -0.25600820779800415, -6.647100925445557, 0.4930730164051056, 0.0, 0.0, 0.0, 0, 0, 0, 0, 0, 0, -0.25600820779800415, -6.647100925445557, 0.4930730164051056
18446, 0.09161832183599472, -0.2859681248664856, -0.06977684050798416, 0.07463420927524567, 0.1833013892173767, 0.25751781463623047, -0.003378833644092083, -0.004336509853601456, 0.9986437559127808, -0.2550772726535797, -6.656202793121338, 0.4937368333339691, 0.0, 0.0, 0.0, 0, 0, 0, 0, 0, 0, -0.2550772726535797, -6.656202793121338, 0.4937368333339691
18456, 0.09238743782043457, -0.2863638401031494, -0.07074911147356033, 0.17563210427761078, -0.02056199312210083, -0.1060115396976471, -0.004194512497633696, -0.0028797457925975323, 0.9997009038925171, -0.25414395332336426, -6.665311336517334, 0.4943998456001282, 0.0, 0.0, 0.0, 0, 0, 0, 0, 0, 0, -0.25414395332336426, -6.665311336517334, 0.4943998456001282
18466, 0.09200374782085419, -0.28546831011772156, -0.07114123553037643, -0.02821364998817444, -0.1868176907300949, 0.018207363784313202, -0.0033180539030581713, -0.004733514040708542, 0.9997755885124207, -0.2532094120979309, -6.67442512512207, 0.49506208300590515, 0.0, 0.0, 0.0, 0, 0, 0, 0, 0, 0, -0.2532094120979309, -6.67442512512207, 0.49506208300590515
18476, 0.09199123084545135, -0.28480419516563416, -0.07176811993122101, -0.15052998065948486, -0.028167204931378365, -0.07377993315458298, -0.0010369612136855721, -0.006171654909849167, 0.9997321367263794, -0.2522738575935364, -6.683544635772705, 0.4957241117954254, 0.0, 0.0, 0.0, 0, 0, 0, 0, 0, 0, -0.2522738575935364, -6.683544635772705, 0.4957241117954254
18486, 0.0921654924750328, -0.2870679795742035, -0.07062562555074692, -0.051216527819633484, 0.38649776577949524, 0.053067103028297424, -0.0011376510374248028, -0.00573556125164032, 0.9999412894248962, -0.2513357996940613, -6.692670822143555, 0.4963858723640442, 0.0, 0.0, 0.0, 0, 0, 0, 0, 0, 0, -0.2513357996940613, -6.692670822143555, 0.4963858723640442
18496, 0.09178750962018967, -0.28636181354522705, -0.0708589106798172, -0.15838029980659485, -0.05294584855437279, -0.21018610894680023, -0.0027776751667261124, -0.005158282816410065, 0.9997240304946899, -0.2503940761089325, -6.701804161071777, 0.4970473051071167, 0.0, 0.0, 0.0, 0, 0, 0, 0, 0, 0, -0.2503940761089325, -6.701804161071777, 0.4970473051071167
18506, 0.09392721951007843, -0.2868860363960266, -0.0698377713561058, 0.2823185622692108, 0.17340314388275146, -0.01798703894019127, -0.003027433529496193, -0.0062932283617556095, 1.0027738809585571, -0.24944935739040375, -6.710944175720215, 0.49770858883857727, 0.0, 0.0, 0.0, 0, 0, 0, 0, 0, 0, -0.24944935739040375, -6.710944175720215, 0.49770858883857727
18516, 0.09399037808179855, -0.28590890765190125, -0.06853912025690079, 0.0522327721118927, -0.1086798682808876, 0.0894627720117569, -0.0010589879238978028, -0.005493461154401302, 1.0010751485824585, -0.24850238859653473, -6.720091342926025, 0.4983709752559662, 0.0, 0.0, 0.0, 0, 0, 0, 0, 0, 0, -0.24850238859653473, -6.720091342926025, 0.4983709752559662
18526, 0.09343380481004715, -0.28582701086997986, -0.07005853205919266, 0.043940119445323944, 0.025471480563282967, -0.21594296395778656, -0.0005274187424220145, -0.006546339951455593, 1.0015102624893188, -0.24755246937274933, -6.729245662689209, 0.49903517961502075, 0.0, 0.0, 0.0, 0, 0, 0, 0, 0, 0, -0.24755246937274933, -6.729245662689209, 0.49903517961502075
18536, 0.09381438791751862, -0.2859179973602295, -0.07213331758975983, 0.04800214618444443, -0.04961942508816719, -0.07151666283607483, -0.00374819478020072, -0.0049281674437224865, 1.0011471509933472, -0.24659863114356995, -6.738407611846924, 0.4997006356716156, 0.0, 0.0, 0.0, 0, 0, 0, 0, 0, 0, -0.24659863114356995, -6.738407611846924, 0.4997006356716156
18546, 0.09290631860494614, -0.286857932806015, -0.0712982639670372, -0.10367078334093094, 0.16214178502559662, 0.174151211977005, -0.003256376599892974, -0.004801847040653229, 0.9998475313186646, -0.24564187228679657, -6.747576713562012, 0.500367283821106, 0.0, 0.0, 0.0, 0, 0, 0, 0, 0, 0, -0.24564187228679657, -6.747576713562012, 0.500367283821106
18556, 0.09364471584558487, -0.2888851761817932, -0.07040922343730927, 0.0640534833073616, 0.34261322021484375, 0.15895003080368042, -0.004168613348156214, -0.003239209996536374, 0.998635470867157, -0.2446833997964859, -6.756752014160156, 0.5010346174240112, 0.0, 0.0, 0.0, 0, 0, 0, 0, 0, 0, -0.2446833997964859, -6.756752014160156, 0.5010346174240112
18566, 0.09361282736063004, -0.28793245553970337, -0.0677872896194458, -0.08145247399806976, -0.02446991577744484, 0.30645450949668884, -0.003153718775138259, -0.005686612334102392, 0.9990929961204529, -0.2437235414981842, -6.765933036804199, 0.5017015337944031, 0.0, 0.0, 0.0, 0, 0, 0, 0, 0, 0, -0.2437235414981842, -6.765933036804199, 0.5017015337944031
18576, 0.09379471093416214, -0.28829869627952576, -0.0669381320476532, -0.002174978144466877, 0.14397144317626953, 0.006575465202331543, -0.0022758543491363525, -0.006807954050600529, 1.0001049041748047, -0.2427622377872467, -6.775120258331299, 0.5023674964904785, 0.0, 0.0, 0.0, 0, 0, 0, 0, 0, 0, -0.2427622377872467, -6.775120258331299, 0.5023674964904785
18586, 0.09261079877614975, -0.28878524899482727, -0.06733912229537964, -0.058195021003484726, 0.125961571931839, -0.05529848486185074, -0.0021496519912034273, -0.006123641040176153, 1.001487374305725, -0.24179883301258087, -6.78431510925293, 0.5030331611633301, 0.0, 0.0, 0.0, 0, 0, 0, 0, 0, 0, -0.24179883301258087, -6.78431510925293, 0.5030331611633301
18596, 0.09281957894563675, -0.2885262370109558, -0.06805796921253204, -0.0074168611317873, 0.08792794495820999, 0.07774963974952698, -0.002289429074153304, -0.004195201676338911, 1.0044037103652954, -0.24083295464515686, -6.793517589569092, 0.5036996006965637, 0.0, 0.0, 0.0, 0, 0, 0, 0, 0, 0, -0.24083295464515686, -6.793517589569092, 0.5036996006965637
18606, 0.09236917644739151, -0.2883591055870056, -0.06847583502531052, -0.06893926113843918, 0.22077469527721405, 0.038874246180057526, -0.0007229492184706032, -0.004875557031482458, 1.0018842220306396, -0.2398642897605896, -6.802726745605469, 0.5043687224388123, 0.0, 0.0, 0.0, 0, 0, 0, 0, 0, 0, -0.2398642897605896, -6.802726745605469, 0.5043687224388123
18616, 0.09221825748682022, -0.2861579656600952, -0.06889919936656952, 0.05072428658604622, -0.28561192750930786, -0.0441860631108284, -0.0031415089033544064, -0.006956470664590597, 1.002023696899414, -0.23889216780662537, -6.811942100524902, 0.5050408840179443, 0.0, 0.0, 0.0, 0, 0, 0, 0, 0, 0, -0.23889216780662537, -6.811942100524902, 0.5050408840179443
18626, 0.09079064428806305, -0.2878495156764984, -0.07059452682733536, -0.23018226027488708, 0.28574731945991516, -0.2881750464439392, -0.004563574679195881, -0.008195986971259117, 1.0013470649719238, -0.2379169911146164, -6.821165084838867, 0.505715012550354, 0.0, 0.0, 0.0, 0, 0, 0, 0, 0, 0, -0.2379169911146164, -6.821165084838867, 0.505715012550354
18636, 0.09127961099147797, -0.28794026374816895, -0.07055380940437317, 0.14379900693893433, 0.0002608930226415396, -0.0009698352077975869, -0.004235646687448025, -0.005273495335131884, 0.9995712637901306, -0.23694054782390594, -6.83039665222168, 0.5063908696174622, 0.0, 0.0, 0.0, 0, 0, 0, 0, 0, 0, -0.23694054782390594, -6.83039665222168, 0.5063908696174622
18646, 0.0896839126944542, -0.2890106439590454, -0.07261025160551071, -0.21623192727565765, 0.14913995563983917, -0.32604140043258667, -0.001492549548856914, -0.0037630770821124315, 0.9974806904792786, -0.23596349358558655, -6.839636325836182, 0.5070673823356628, 0.0, 0.0, 0.0, 0, 0, 0, 0, 0, 0, -0.23596349358558655, -6.839636325836182, 0.5070673823356628
18656, 0.091000996530056, -0.28901469707489014, -0.07332083582878113, 0.19023177027702332, 0.10390184819698334, -0.06284219771623611, -0.0009515739511698484, -0.002863882575184107, 0.9986398816108704, -0.23498445749282837, -6.84888219833374, 0.507742702960968, 0.0, 0.0, 0.0, 0, 0, 0, 0, 0, 0, -0.23498445749282837, -6.84888219833374, 0.507742702960968
18666, 0.09024151414632797, -0.2899418771266937, -0.0718904361128807, -0.07635273784399033, 0.3763876259326935, 0.10153495520353317, -0.0014652620302513242, -0.003240425605326891, 0.9990447759628296, -0.23400188982486725, -6.858132839202881, 0.5084161758422852, 0.0, 0.0, 0.0, 0, 0, 0, 0, 0, 0, -0.23400188982486725, -6.858132839202881, 0.5084161758422852
18676, 0.09095840901136398, -0.29065245389938354, -0.07173050940036774, 0.015734488144516945, 0.12486853450536728, -0.024243179708719254, -0.0029808550607413054, -0.004754152148962021, 1.0007065534591675, -0.23301562666893005, -6.8673882484436035, 0.5090884566307068, 0.0, 0.0, 0.0, 0, 0, 0, 0, 0, 0, -0.23301562666893005, -6.8673882484436035, 0.5090884566307068
18686, 0.09034840762615204, -0.293002188205719, -0.07186451554298401, -0.10610847920179367, 0.21774327754974365, 0.002688445383682847, -0.002562140114605427, -0.005183106288313866, 1.0018415451049805, -0.23202645778656006, -6.876649379730225, 0.5097604990005493, 0.0, 0.0, 0.0, 0, 0, 0, 0, 0, 0, -0.23202645778656006, -6.876649379730225, 0.5097604990005493
18696, 0.09045227617025375, -0.2935878336429596, -0.07242181152105331, -0.061122044920921326, 0.13076573610305786, -0.07144800573587418, -0.0021217199973762035, -0.004462959244847298, 0.9986227750778198, -0.23103484511375427, -6.885916709899902, 0.510433554649353, 0.0, 0.0, 0.0, 0, 0, 0, 0, 0, 0, -0.23103484511375427, -6.885916709899902, 0.510433554649353
18706, 0.09123606234788895, -0.2938196361064911, -0.07245182245969772, 0.056453049182891846, -0.0018296915804967284, -0.10323669761419296, -0.0040734559297561646, -0.0030665325466543436, 0.9997974038124084, -0.23004059493541718, -6.8951897621154785, 0.5111070275306702, 0.0, 0.0, 0.0, 0, 0, 0, 0, 0, 0, -0.23004059493541718, -6.8951897621154785, 0.5111070275306702
18716, 0.09132006764411926, -0.29240068793296814, -0.07303200662136078, 0.02688755840063095, -0.20574048161506653, -0.21296769380569458, -0.004455551505088806, -0.00372579088434577, 1.0008938312530518, -0.2290443480014801, -6.904468536376953, 0.5117800235748291, 0.0, 0.0, 0.0, 0, 0, 0, 0, 0, 0, -0.2290443480014801, -6.904468536376953, 0.5117800235748291
18726, 0.09128458052873611, -0.29263511300086975, -0.07246174663305283, 0.02669118158519268, 0.13107208907604218, -0.06710092723369598, -0.0026608724147081375, -0.005760707892477512, 1.0024912357330322, -0.22804699838161469, -6.91375207901001, 0.512453556060791, 0.0, 0.0, 0.0, 0, 0, 0, 0, 0, 0, -0.22804699838161469, -6.91375207901001, 0.512453556060791
