timeTick, roll, pitch, yaw, gyroX, gyroY, gyroZ, accX, accY, accZ, stateX, stateY, stateZ, target_x, target_y, target_z, otX, otY, otZ, otRoll, otPitch, otYaw, kalX, kalY, kalZ
220175, 0.054966893047094345, -0.18652065098285675, 0.06600607186555862, 0, 0, 0, 0, 0, 0, 0, 0, 0, 0, 0, 0, 0, 0, 0, 0, 0, 0, 0, 0, 0
220185, 0.05503367632627487, -0.18458421528339386, 0.06383327394723892, -0.09332569688558578, -0.21518893539905548, -0.23144833743572235, -0.021286645904183388, -0.00035178897087462246, 0.9982144832611084, -75.9362564086914, -8.353450775146484, -1.4260553121566772, 0.0, 0.0, 0.0, 0, 0, 0, 0, 0, 0, -75.98954772949219, -8.359843254089355, -1.4271702766418457
220195, 0.0554560087621212, -0.1846853792667389, 0.06327172368764877, 0.031907472759485245, -0.038554057478904724, 0.07405485212802887, -0.02136053517460823, -0.00012719802907668054, 0.9998037219047546, -75.98954772949219, -8.359843254089355, -1.4271702766418457, 0.0, 0.0, 0.0, 0, 0, 0, 0, 0, 0, -76.04286193847656, -8.366236686706543, -1.428287148475647
220205, 0.0552406832575798, -0.18705874681472778, 0.06451201438903809, -0.027518052607774734, 0.35713741183280945, 0.1232391744852066, -0.02301643416285515, -0.0010609421879053116, 0.9989790320396423, -76.04286193847656, -8.366236686706543, -1.428287148475647, 0.0, 0.0, 0.0, 0, 0, 0, 0, 0, 0, -76.09619140625, -8.372631072998047, -1.429404854774475
220215, 0.05492087081074715, -0.1848503053188324, 0.06486387550830841, 0.0229780375957489, -0.13790792226791382, 0.031563714146614075, -0.021872511133551598, -0.0019447457743808627, 1.000106930732727, -76.09619140625, -8.372631072998047, -1.429404854774475, 0.0, 0.0, 0.0, 0, 0, 0, 0, 0, 0, -76.1495361328125, -8.379027366638184, -1.430523157119751
220225, 0.055349212139844894, -0.18452775478363037, 0.06421865522861481, 0.11968808621168137, 0.030089333653450012, -0.07050330936908722, -0.022032149136066437, -0.0029180068522691727, 0.999608039855957, -76.1495361328125, -8.379027366638184, -1.430523157119751, 0.0, 0.0, 0.0, 0, 0, 0, 0, 0, 0, -76.2029037475586, -8.38542652130127, -1.431641936302185
220235, 0.055351994931697845, -0.18548350036144257, 0.06517661362886429, -0.047803208231925964, 0.10092637687921524, 0.08494631201028824, -0.021031029522418976, -0.00014918920351192355, 1.0003491640090942, -76.2029037475586, -8.38542652130127, -1.431641936302185, 0.0, 0.0, 0.0, 0, 0, 0, 0, 0, 0, -76.25628662109375, -8.391829490661621, -1.4327608346939087
220245, 0.05536482855677605, -0.18476513028144836, 0.06602984666824341, 0.0020488013979047537, 0.03987351804971695, -0.058722738176584244, -0.019850337877869606, -0.0007389152306132019, 1.0000556707382202, -76.25628662109375, -8.391829490661621, -1.4327608346939087, 0.0, 0.0, 0.0, 0, 0, 0, 0, 0, 0, -76.30968475341797, -8.398233413696289, -1.4338797330856323
220255, 0.055665258318185806, -0.18477486073970795, 0.06668668985366821, 0.14306822419166565, 0.11268419772386551, 0.07910570502281189, -0.02248336561024189, -0.0036034369841217995, 1.0005741119384766, -76.30968475341797, -8.398233413696289, -1.4338797330856323, 0.0, 0.0, 0.0, 0, 0, 0, 0, 0, 0, -76.36310577392578, -8.40463924407959, -1.4349985122680664
220265, 0.05399365350604057, -0.18577584624290466, 0.06532128900289536, -0.2006889134645462, 0.11609053611755371, -0.18436945974826813, -0.02372748777270317, -0.002673845272511244, 0.9988172054290771, -76.36310577392578, -8.40463924407959, -1.4349985122680664, 0.0, 0.0, 0.0, 0, 0, 0, 0, 0, 0, -76.41654205322266, -8.411048889160156, -1.4361175298690796
220275, 0.054362352937459946, -0.18507316708564758, 0.06561703979969025, -0.08650486171245575, 0.09133089333772659, -0.08876421302556992, -0.02162211388349533, -0.0014188411878421903, 0.9999747276306152, -76.41654205322266, -8.411048889160156, -1.4361175298690796, 0.0, 0.0, 0.0, 0, 0, 0, 0, 0, 0, -76.47000122070312, -8.417462348937988, -1.43723726272583
220285, 0.05424024164676666, -0.1849670559167862, 0.06565994769334793, 0.07264981418848038, -0.21947595477104187, 0.17221949994564056, -0.021968113258481026, -0.002276821294799447, 0.9991757869720459, -76.47000122070312, -8.417462348937988, -1.43723726272583, 0.0, 0.0, 0.0, 0, 0, 0, 0, 0, 0, -76.52347564697266, -8.42387866973877, -1.4383574724197388
220295, 0.054664697498083115, -0.18465782701969147, 0.06458545476198196, 0.06184352934360504, -0.005852899048477411, -0.18354353308677673, -0.02209658734500408, -0.0034554554149508476, 0.9986121654510498, -76.52347564697266, -8.42387866973877, -1.4383574724197388, 0.0, 0.0, 0.0, 0, 0, 0, 0, 0, 0, -76.57696533203125, -8.4302978515625, -1.4394786357879639
220305, 0.0541212223470211, -0.1835639923810959, 0.06439371407032013, -0.1356154829263687, -0.23788677155971527, -0.050469230860471725, -0.022666085511446, -0.002695307834073901, 0.9967756867408752, -76.57696533203125, -8.4302978515625, -1.4394786357879639, 0.0, 0.0, 0.0, 0, 0, 0, 0, 0, 0, -76.63047790527344, -8.436720848083496, -1.4406018257141113
220315, 0.05347588658332825, -0.1827794462442398, 0.06445766985416412, 0.054210323840379715, -0.078450508415699, -0.044335756450891495, -0.020727865397930145, -0.002099103992804885, 0.9972042441368103, -76.63047790527344, -8.436720848083496, -1.4406018257141113, 0.0, 0.0, 0.0, 0, 0, 0, 0, 0, 0, -76.68400573730469, -8.443147659301758, -1.4417277574539185
220325, 0.0544540174305439, -0.18330958485603333, 0.06442581862211227, -0.027528371661901474, -0.0506758876144886, 0.07996182888746262, -0.022961122915148735, -0.001983871916308999, 0.9998078942298889, -76.68400573730469, -8.443147659301758, -1.4417277574539185, 0.0, 0.0, 0.0, 0, 0, 0, 0, 0, 0, -76.73755645751953, -8.449577331542969, -1.4428555965423584
220335, 0.05525491386651993, -0.18472197651863098, 0.06354133039712906, 0.16651786863803864, -0.017702385783195496, 0.05180088058114052, -0.02172102965414524, -0.0016225982690230012, 0.9965804219245911, -76.73755645751953, -8.449577331542969, -1.4428555965423584, 0.0, 0.0, 0.0, 0, 0, 0, 0, 0, 0, -76.79112243652344, -8.456008911132812, -1.443984866142273
220345, 0.05462004616856575, -0.18160532414913177, 0.063108891248703, -0.07561376690864563, -0.413236141204834, -0.1335659921169281, -0.020324446260929108, -0.002690787659958005, 0.9967344999313354, -76.79112243652344, -8.456008911132812, -1.443984866142273, 0.0, 0.0, 0.0, 0, 0, 0, 0, 0, 0, -76.84471130371094, -8.462443351745605, -1.4451173543930054
220355, 0.0540614128112793, -0.18234600126743317, 0.06325988471508026, -0.14637556672096252, 0.4956972897052765, -0.016117610037326813, -0.020818648859858513, -0.0014945064904168248, 1.0002014636993408, -76.84471130371094, -8.462443351745605, -1.4451173543930054, 0.0, 0.0, 0.0, 0, 0, 0, 0, 0, 0, -76.8983154296875, -8.468881607055664, -1.4462522268295288
220365, 0.05387201905250549, -0.18291814625263214, 0.06309821456670761, 0.054015353322029114, -0.018026942387223244, 0.04418317601084709, -0.022267641499638557, -0.00011696157162077725, 1.0002872943878174, -76.8983154296875, -8.468881607055664, -1.4462522268295288, 0.0, 0.0, 0.0, 0, 0, 0, 0, 0, 0, -76.95193481445312, -8.475321769714355, -1.4473876953125
220375, 0.05445265769958496, -0.18214525282382965, 0.06321673840284348, -0.046728454530239105, 0.11259032040834427, -0.08122579753398895, -0.021350542083382607, -0.0029662044253200293, 0.9992100596427917, -76.95193481445312, -8.475321769714355, -1.4473876953125, 0.0, 0.0, 0.0, 0, 0, 0, 0, 0, 0, -77.00557708740234, -8.48176383972168, -1.4485234022140503
220385, 0.053638242185115814, -0.18124258518218994, 0.06355329602956772, -0.12996505200862885, -0.17160530388355255, -0.08688826113939285, -0.023176424205303192, -0.0009408363257534802, 0.9989370703697205, -77.00557708740234, -8.48176383972168, -1.4485234022140503, 0.0, 0.0, 0.0, 0, 0, 0, 0, 0, 0, -77.05923461914062, -8.488208770751953, -1.449659824371338
220395, 0.05350898206233978, -0.1814035177230835, 0.06274940818548203, -0.016829052940011024, 0.1881432831287384, -0.08911698311567307, -0.023398714140057564, -0.0012373129138723016, 0.9987702965736389, -77.05923461914062, -8.488208770751953, -1.449659824371338, 0.0, 0.0, 0.0, 0, 0, 0, 0, 0, 0, -77.11290740966797, -8.49465560913086, -1.4507973194122314
220405, 0.053508613258600235, -0.1809667944908142, 0.06349089741706848, 0.016662390902638435, -0.021181199699640274, 0.0934707373380661, -0.02168899215757847, -0.003698715241625905, 0.9977426528930664, -77.11290740966797, -8.49465560913086, -1.4507973194122314, 0.0, 0.0, 0.0, 0, 0, 0, 0, 0, 0, -77.1666030883789, -8.501105308532715, -1.4519363641738892
220415, 0.05322835594415665, -0.18211090564727783, 0.06342575699090958, -0.09957621246576309, 0.22672469913959503, -0.09797955304384232, -0.022801611572504044, -0.0022526211105287075, 1.0015851259231567, -77.1666030883789, -8.501105308532715, -1.4519363641738892, 0.0, 0.0, 0.0, 0, 0, 0, 0, 0, 0, -77.2203140258789, -8.507558822631836, -1.4530764818191528
220425, 0.05398182198405266, -0.1829604208469391, 0.0633913055062294, 0.05423394590616226, 0.16574478149414062, 0.03815891593694687, -0.021582353860139847, -0.0021897265687584877, 1.0004879236221313, -77.2203140258789, -8.507558822631836, -1.4530764818191528, 0.0, 0.0, 0.0, 0, 0, 0, 0, 0, 0, -77.2740478515625, -8.514015197753906, -1.4542160034179688
220435, 0.053326282650232315, -0.18243378400802612, 0.06275533139705658, 0.11737167090177536, -0.09826032817363739, 0.04606560245156288, -0.022420117631554604, -0.001034090993925929, 1.0001174211502075, -77.2740478515625, -8.514015197753906, -1.4542160034179688, 0.0, 0.0, 0.0, 0, 0, 0, 0, 0, 0, -77.32779693603516, -8.520474433898926, -1.455355167388916
220445, 0.0528595931828022, -0.18285776674747467, 0.06242981180548668, 0.09125500917434692, -0.0384242907166481, 0.11001461744308472, -0.02093169465661049, -0.0011305867228657007, 1.0014102458953857, -77.32779693603516, -8.520474433898926, -1.455355167388916, 0.0, 0.0, 0.0, 0, 0, 0, 0, 0, 0, -77.3815689086914, -8.526935577392578, -1.4564940929412842
220455, 0.05237400159239769, -0.1822780966758728, 0.06247744336724281, -0.12923017144203186, -0.06624359637498856, 0.13148967921733856, -0.020955117419362068, -0.0016783068422228098, 0.999929666519165, -77.3815689086914, -8.526935577392578, -1.4564940929412842, 0.0, 0.0, 0.0, 0, 0, 0, 0, 0, 0, -77.43535614013672, -8.533398628234863, -1.4576325416564941
220465, 0.05147398263216019, -0.18247342109680176, 0.0620645172894001, -0.1366710364818573, 0.3093726634979248, 0.01643325760960579, -0.021656524389982224, 6.377874524332583e-05, 0.9995742440223694, -77.43535614013672, -8.533398628234863, -1.4576325416564941, 0.0, 0.0, 0.0, 0, 0, 0, 0, 0, 0, -77.4891586303711, -8.539863586425781, -1.4587712287902832
220475, 0.05279906466603279, -0.18153895437717438, 0.06266269832849503, 0.15640051662921906, -0.10317230224609375, 0.17742884159088135, -0.02379566803574562, -0.0016238756943494081, 0.9988178610801697, -77.4891586303711, -8.539863586425781, -1.4587712287902832, 0.0, 0.0, 0.0, 0, 0, 0, 0, 0, 0, -77.54298400878906, -8.546330451965332, -1.45991051197052
220485, 0.05354936420917511, -0.18020303547382355, 0.06300832331180573, 0.1873493194580078, -0.18564558029174805, 0.01767432503402233, -0.022652609273791313, -0.0037370314821600914, 1.0001628398895264, -77.54298400878906, -8.546330451965332, -1.45991051197052, 0.0, 0.0, 0.0, 0, 0, 0, 0, 0, 0, -77.5968246459961, -8.552800178527832, -1.4610505104064941
220495, 0.05403335019946098, -0.18101607263088226, 0.06444710493087769, 0.09861106425523758, 0.23289501667022705, 0.24617016315460205, -0.02346782758831978, -0.0008382670348510146, 1.00063955783844, -77.5968246459961, -8.552800178527832, -1.4610505104064941, 0.0, 0.0, 0.0, 0, 0, 0, 0, 0, 0, -77.65068817138672, -8.559272766113281, -1.4621905088424683
220505, 0.052643969655036926, -0.1812867969274521, 0.06391756981611252, -0.11526457220315933, -0.052382443100214005, 0.01773478463292122, -0.023875394836068153, -0.000845324422698468, 0.9990471601486206, -77.65068817138672, -8.559272766113281, -1.4621905088424683, 0.0, 0.0, 0.0, 0, 0, 0, 0, 0, 0, -77.70457458496094, -8.565747261047363, -1.4633305072784424
220515, 0.05134548246860504, -0.1825253814458847, 0.06403914839029312, -0.09467927366495132, 0.08077527582645416, -0.18978829681873322, -0.02122904174029827, -0.002356430049985647, 1.001335620880127, -77.70457458496094, -8.565747261047363, -1.4633305072784424, 0.0, 0.0, 0.0, 0, 0, 0, 0, 0, 0, -77.75847625732422, -8.572224617004395, -1.464470624923706
220525, 0.051661599427461624, -0.18629339337348938, 0.06369106471538544, 0.07854542881250381, 0.4413602650165558, -0.05346401408314705, -0.020992103964090347, -0.0019087702967226505, 1.0005122423171997, -77.75847625732422, -8.572224617004395, -1.464470624923706, 0.0, 0.0, 0.0, 0, 0, 0, 0, 0, 0, -77.81239318847656, -8.578704833984375, -1.4656102657318115
220535, 0.05196841061115265, -0.18396225571632385, 0.06328050792217255, 0.0502798929810524, -0.16268260776996613, 0.11435852944850922, -0.021266533061861992, -0.0003923960612155497, 0.99933260679245, -77.81239318847656, -8.578704833984375, -1.4656102657318115, 0.0, 0.0, 0.0, 0, 0, 0, 0, 0, 0, -77.8663330078125, -8.585186958312988, -1.4667500257492065
220545, 0.051914285868406296, -0.18330882489681244, 0.06135718524456024, -0.020712705329060555, -0.0482708215713501, -0.16745106875896454, -0.022294413298368454, -0.0021836229134351015, 0.9985305070877075, -77.8663330078125, -8.585186958312988, -1.4667500257492065, 0.0, 0.0, 0.0, 0, 0, 0, 0, 0, 0, -77.9202880859375, -8.591670989990234, -1.467890739440918
220555, 0.0511186420917511, -0.18266648054122925, 0.06071174144744873, -0.1472979187965393, -0.13204102218151093, -0.02449166029691696, -0.022716233506798744, -0.0015752008184790611, 0.99741131067276, -77.9202880859375, -8.591670989990234, -1.467890739440918, 0.0, 0.0, 0.0, 0, 0, 0, 0, 0, 0, -77.9742660522461, -8.59815788269043, -1.4690332412719727
220565, 0.052032530307769775, -0.18322230875492096, 0.062035735696554184, 0.019388612359762192, -0.014302555471658707, 0.20202316343784332, -0.022193951532244682, -0.003207799745723605, 0.9992327094078064, -77.9742660522461, -8.59815788269043, -1.4690332412719727, 0.0, 0.0, 0.0, 0, 0, 0, 0, 0, 0, -78.02825927734375, -8.604647636413574, -1.4701778888702393
220575, 0.05186106637120247, -0.18224498629570007, 0.06158924102783203, 0.02390480414032936, -0.182577982544899, -0.08556435257196426, -0.02236776053905487, -0.004157298244535923, 0.9993423819541931, -78.02825927734375, -8.604647636413574, -1.4701778888702393, 0.0, 0.0, 0.0, 0, 0, 0, 0, 0, 0, -78.082275390625, -8.611141204833984, -1.4713237285614014
220585, 0.052165839821100235, -0.18233956396579742, 0.061779871582984924, -0.10422056913375854, 0.25684669613838196, 0.07724560797214508, -0.02354034036397934, -0.0030460741836577654, 0.9981873035430908, -78.082275390625, -8.611141204833984, -1.4713237285614014, 0.0, 0.0, 0.0, 0, 0, 0, 0, 0, 0, -78.13630676269531, -8.617639541625977, -1.4724706411361694
220595, 0.052217748016119, -0.1847822368144989, 0.06259950995445251, 0.05144822224974632, 0.4227176010608673, 0.05061304569244385, -0.022233931347727776, -4.618302045855671e-05, 0.9975905418395996, -78.13630676269531, -8.617639541625977, -1.4724706411361694, 0.0, 0.0, 0.0, 0, 0, 0, 0, 0, 0, -78.19036102294922, -8.624141693115234, -1.4736194610595703
220605, 0.05210854485630989, -0.18551041185855865, 0.06203024834394455, 0.0012876578839495778, 0.24180255830287933, -0.18925602734088898, -0.023329896852374077, 0.0002909931936301291, 0.9992552399635315, -78.19036102294922, -8.624141693115234, -1.4736194610595703, 0.0, 0.0, 0.0, 0, 0, 0, 0, 0, 0, -78.24443054199219, -8.630644798278809, -1.474770188331604
220615, 0.053049128502607346, -0.1867486536502838, 0.06332314759492874, 0.01835550367832184, 0.12531909346580505, 0.07324902713298798, -0.023413702845573425, -0.0021280888468027115, 0.9982820749282837, -78.24443054199219, -8.630644798278809, -1.474770188331604, 0.0, 0.0, 0.0, 0, 0, 0, 0, 0, 0, -78.29852294921875, -8.637149810791016, -1.475921869277954
220625, 0.05299912765622139, -0.18768997490406036, 0.06361781060695648, -0.16738753020763397, -0.012004143558442593, -0.07142897695302963, -0.022981710731983185, -0.0023410951253026724, 0.9988313317298889, -78.29852294921875, -8.637149810791016, -1.475921869277954, 0.0, 0.0, 0.0, 0, 0, 0, 0, 0, 0, -78.35263061523438, -8.643657684326172, -1.4770753383636475
220635, 0.054371193051338196, -0.18651409447193146, 0.06309954077005386, 0.08057289570569992, -0.035619765520095825, -0.11818516999483109, -0.02134053036570549, -0.001951249549165368, 1.0004085302352905, -78.35263061523438, -8.643657684326172, -1.4770753383636475, 0.0, 0.0, 0.0, 0, 0, 0, 0, 0, 0, -78.4067611694336, -8.650168418884277, -1.4782301187515259
220645, 0.05461486428976059, -0.18569262325763702, 0.06371289491653442, 0.056907400488853455, -0.21984384953975677, -0.02589554339647293, -0.021767184138298035, -0.003329451661556959, 0.9989941716194153, -78.4067611694336, -8.650168418884277, -1.4782301187515259, 0.0, 0.0, 0.0, 0, 0, 0, 0, 0, 0, -78.46090698242188, -8.656682968139648, -1.4793851375579834
220655, 0.05444483831524849, -0.1880236119031906, 0.06324180215597153, 0.032262880355119705, 0.16949746012687683, 0.018727995455265045, -0.02295641042292118, -0.0023491214960813522, 0.9993706345558167, -78.46090698242188, -8.656682968139648, -1.4793851375579834, 0.0, 0.0, 0.0, 0, 0, 0, 0, 0, 0, -78.51506805419922, -8.663200378417969, -1.4805408716201782
220665, 0.054785359650850296, -0.18747782707214355, 0.06392092257738113, 0.07594963163137436, -0.12753450870513916, 0.13142706453800201, -0.021658288314938545, -0.0027676925528794527, 0.9975806474685669, -78.51506805419922, -8.663200378417969, -1.4805408716201782, 0.0, 0.0, 0.0, 0, 0, 0, 0, 0, 0, -78.56925201416016, -8.669721603393555, -1.4816981554031372
220675, 0.0552014485001564, -0.18766020238399506, 0.0634848028421402, 0.02878289483487606, 0.06789568066596985, -0.06900554150342941, -0.020836707204580307, -0.0017985859885811806, 0.999103307723999, -78.56925201416016, -8.669721603393555, -1.4816981554031372, 0.0, 0.0, 0.0, 0, 0, 0, 0, 0, 0, -78.62345123291016, -8.676246643066406, -1.4828572273254395
220685, 0.05518430843949318, -0.18845197558403015, 0.06423742324113846, -0.14520315825939178, -0.12370112538337708, -0.03392048925161362, -0.023066027089953423, -0.0013035566080361605, 0.9994675517082214, -78.62345123291016, -8.676246643066406, -1.4828572273254395, 0.0, 0.0, 0.0, 0, 0, 0, 0, 0, 0, -78.67767333984375, -8.682774543762207, -1.4840174913406372
220695, 0.054891187697649, -0.18866504728794098, 0.0633707121014595, -0.03112207166850567, 0.08042610436677933, -0.1715947836637497, -0.021330248564481735, -0.002725489204749465, 0.9986063241958618, -78.67767333984375, -8.682774543762207, -1.4840174913406372, 0.0, 0.0, 0.0, 0, 0, 0, 0, 0, 0, -78.7319107055664, -8.689305305480957, -1.4851787090301514
220705, 0.05485129356384277, -0.18874993920326233, 0.0628737136721611, 0.06697625666856766, 0.17642079293727875, -0.20552979409694672, -0.02155011147260666, -0.004476612899452448, 0.997858464717865, -78.7319107055664, -8.689305305480957, -1.4851787090301514, 0.0, 0.0, 0.0, 0, 0, 0, 0, 0, 0, -78.78616333007812, -8.695839881896973, -1.4863412380218506
220715, 0.055318232625722885, -0.1882788985967636, 0.060946039855480194, -0.09791570156812668, -0.041139114648103714, -0.27173876762390137, -0.021572817116975784, -0.0022050347179174423, 0.9999300837516785, -78.78616333007812, -8.695839881896973, -1.4863412380218506, 0.0, 0.0, 0.0, 0, 0, 0, 0, 0, 0, -78.84043884277344, -8.702378273010254, -1.4875050783157349
220725, 0.054616402834653854, -0.18858693540096283, 0.061071865260601044, -0.2218991219997406, 0.03335897997021675, -0.09610443562269211, -0.02107039839029312, -0.0013425443321466446, 1.001680612564087, -78.84043884277344, -8.702378273010254, -1.4875050783157349, 0.0, 0.0, 0.0, 0, 0, 0, 0, 0, 0, -78.89472961425781, -8.7089204788208, -1.48866868019104
220735, 0.05444464460015297, -0.185638427734375, 0.06099767982959747, 0.12050104886293411, -0.4479474425315857, 0.05365868657827377, -0.02148137241601944, -0.0015321297105401754, 1.0015817880630493, -78.89472961425781, -8.7089204788208, -1.48866868019104, 0.0, 0.0, 0.0, 0, 0, 0, 0, 0, 0, -78.94903564453125, -8.71546459197998, -1.4898310899734497
220745, 0.05566992238163948, -0.18600162863731384, 0.0625881552696228, 0.31625431776046753, 0.1765499711036682, 0.27832016348838806, -0.022174954414367676, -0.0013413139386102557, 0.9983822703361511, -78.94903564453125, -8.71546459197998, -1.4898310899734497, 0.0, 0.0, 0.0, 0, 0, 0, 0, 0, 0, -79.00336456298828, -8.722010612487793, -1.4909930229187012
220755, 0.054843008518218994, -0.186869278550148, 0.06192130595445633, -0.04484211280941963, 0.011201460845768452, -0.1666238009929657, -0.02004983462393284, -0.002599277999252081, 0.9995825886726379, -79.00336456298828, -8.722010612487793, -1.4909930229187012, 0.0, 0.0, 0.0, 0, 0, 0, 0, 0, 0, -79.05770874023438, -8.728559494018555, -1.49215567111969
220765, 0.05426058545708656, -0.1865251660346985, 0.061496999114751816, 0.019710659980773926, 0.09260952472686768, 0.09408505260944366, -0.02129087969660759, -0.0022169870790094137, 1.000959873199463, -79.05770874023438, -8.728559494018555, -1.49215567111969, 0.0, 0.0, 0.0, 0, 0, 0, 0, 0, 0, -79.11206817626953, -8.735112190246582, -1.4933184385299683
220775, 0.05441483482718468, -0.1858764886856079, 0.06079644337296486, -0.13234202563762665, 0.10543834418058395, -0.07989037036895752, -0.02142302319407463, -0.004085380118340254, 1.000921607017517, -79.11206817626953, -8.735112190246582, -1.4933184385299683, 0.0, 0.0, 0.0, 0, 0, 0, 0, 0, 0, -79.16645050048828, -8.741668701171875, -1.4944803714752197
220785, 0.054292891174554825, -0.18527579307556152, 0.06060454621911049, 0.06176193431019783, -0.11837746948003769, -0.03848947584629059, -0.021989809349179268, -0.0047150058671832085, 0.9999423027038574, -79.16645050048828, -8.741668701171875, -1.4944803714752197, 0.0, 0.0, 0.0, 0, 0, 0, 0, 0, 0, -79.2208480834961, -8.748229026794434, -1.495641827583313
220795, 0.054110027849674225, -0.18396081030368805, 0.060830675065517426, 0.08230961114168167, -0.12993885576725006, 0.07731512933969498, -0.022979114204645157, -0.0027983379550278187, 1.0004676580429077, -79.2208480834961, -8.748229026794434, -1.495641827583313, 0.0, 0.0, 0.0, 0, 0, 0, 0, 0, 0, -79.27526092529297, -8.75479507446289, -1.4968031644821167
220805, 0.054295577108860016, -0.1848011612892151, 0.06220880523324013, 0.2025890350341797, 0.2205023616552353, 0.361272394657135, -0.021543538197875023, 9.78431708062999e-05, 1.0020713806152344, -79.27526092529297, -8.75479507446289, -1.4968031644821167, 0.0, 0.0, 0.0, 0, 0, 0, 0, 0, 0, -79.32969665527344, -8.761363983154297, -1.497963786125183
220815, 0.05405832454562187, -0.18627651035785675, 0.062355007976293564, -0.09927120059728622, 0.15259750187397003, -0.14448018372058868, -0.021191773936152458, -0.001427843701094389, 0.9998098015785217, -79.32969665527344, -8.761363983154297, -1.497963786125183, 0.0, 0.0, 0.0, 0, 0, 0, 0, 0, 0, -79.38414764404297, -8.76793384552002, -1.4991233348846436
220825, 0.05379915609955788, -0.18536557257175446, 0.06207697093486786, -0.03270895034074783, -0.09448190778493881, 0.07130791991949081, -0.02205074578523636, -0.002078407444059849, 0.9990733861923218, -79.38414764404297, -8.76793384552002, -1.4991233348846436, 0.0, 0.0, 0.0, 0, 0, 0, 0, 0, 0, -79.4386215209961, -8.774506568908691, -1.500282883644104
220835, 0.054336678236722946, -0.1845059096813202, 0.06257810443639755, 0.13612936437129974, -0.15160763263702393, 0.023342328146100044, -0.021763721480965614, -0.0025248059537261724, 1.0016523599624634, -79.4386215209961, -8.774506568908691, -1.500282883644104, 0.0, 0.0, 0.0, 0, 0, 0, 0, 0, 0, -79.49311065673828, -8.781082153320312, -1.501442790031433
220845, 0.054360292851924896, -0.18407969176769257, 0.06337594985961914, 0.06693053990602493, 0.08226285874843597, -0.027659788727760315, -0.021876733750104904, -0.0013998765498399734, 1.002540111541748, -79.49311065673828, -8.781082153320312, -1.501442790031433, 0.0, 0.0, 0.0, 0, 0, 0, 0, 0, 0, -79.54761505126953, -8.787660598754883, -1.5026012659072876
220855, 0.05420885980129242, -0.1853962242603302, 0.0621243417263031, -0.014594181440770626, 0.24021859467029572, -0.2580305337905884, -0.024204805493354797, -0.004104977939277887, 0.9975531101226807, -79.54761505126953, -8.787660598754883, -1.5026012659072876, 0.0, 0.0, 0.0, 0, 0, 0, 0, 0, 0, -79.60214233398438, -8.794242858886719, -1.5037587881088257
220865, 0.054441098123788834, -0.18558654189109802, 0.06198086217045784, 0.08426155149936676, 0.029197493568062782, -0.02060774341225624, -0.02216137945652008, -0.0022077164612710476, 0.9996804594993591, -79.60214233398438, -8.794242858886719, -1.5037587881088257, 0.0, 0.0, 0.0, 0, 0, 0, 0, 0, 0, -79.65668487548828, -8.80082893371582, -1.5049172639846802
220875, 0.05429776385426521, -0.18643362820148468, 0.06107172742486, 0.08775242418050766, -0.04501587897539139, -0.0815284252166748, -0.02102554775774479, -0.0018739248625934124, 0.9993995428085327, -79.65668487548828, -8.80082893371582, -1.5049172639846802, 0.0, 0.0, 0.0, 0, 0, 0, 0, 0, 0, -79.71125030517578, -8.807417869567871, -1.5060765743255615
220885, 0.054560501128435135, -0.18817172944545746, 0.062495119869709015, 0.07037758827209473, 0.08374030888080597, 0.1282995194196701, -0.022447403520345688, -0.002759521594271064, 0.9965094327926636, -79.71125030517578, -8.807417869567871, -1.5060765743255615, 0.0, 0.0, 0.0, 0, 0, 0, 0, 0, 0, -79.76583099365234, -8.814009666442871, -1.5072375535964966
220895, 0.05433974787592888, -0.1888132393360138, 0.060617852956056595, 0.0371311753988266, 0.0029608309268951416, -0.10471546649932861, -0.022050734609365463, -0.0004472784057725221, 0.9991583228111267, -79.76583099365234, -8.814009666442871, -1.5072375535964966, 0.0, 0.0, 0.0, 0, 0, 0, 0, 0, 0, -79.8204345703125, -8.82060432434082, -1.5084010362625122
220905, 0.05413556471467018, -0.1872570812702179, 0.06033959612250328, 0.01738557778298855, -0.10721748322248459, -0.03503255918622017, -0.0232345350086689, -0.0012989133829250932, 1.001717448234558, -79.8204345703125, -8.82060432434082, -1.5084010362625122, 0.0, 0.0, 0.0, 0, 0, 0, 0, 0, 0, -79.87505340576172, -8.827200889587402, -1.5095648765563965
220915, 0.05492091178894043, -0.18725168704986572, 0.06085476279258728, 0.1140657514333725, -0.1291780173778534, 0.1039721742272377, -0.022043876349925995, -0.002357771620154381, 1.0012938976287842, -79.87505340576172, -8.827200889587402, -1.5095648765563965, 0.0, 0.0, 0.0, 0, 0, 0, 0, 0, 0, -79.92969512939453, -8.833800315856934, -1.5107274055480957
220925, 0.05472458153963089, -0.18990853428840637, 0.06077270582318306, -0.1437676101922989, 0.2631586492061615, 0.0021276832558214664, -0.02227807231247425, -0.0029176140669733286, 0.9994578957557678, -79.92969512939453, -8.833800315856934, -1.5107274055480957, 0.0, 0.0, 0.0, 0, 0, 0, 0, 0, 0, -79.9843521118164, -8.840402603149414, -1.5118894577026367
220935, 0.05445856228470802, -0.18821509182453156, 0.06209375336766243, -0.10237085819244385, 0.07196623831987381, 0.04381749406456947, -0.022295411676168442, -0.002863915404304862, 0.9994295835494995, -79.9843521118164, -8.840402603149414, -1.5118894577026367, 0.0, 0.0, 0.0, 0, 0, 0, 0, 0, 0, -80.03902435302734, -8.84700870513916, -1.5130521059036255
220945, 0.05366981774568558, -0.18930892646312714, 0.061570797115564346, -0.20841464400291443, 0.030725114047527313, -0.04770216718316078, -0.021937906742095947, -0.0020537031814455986, 0.9994434118270874, -80.03902435302734, -8.84700870513916, -1.5130521059036255, 0.0, 0.0, 0.0, 0, 0, 0, 0, 0, 0, -80.09371948242188, -8.853618621826172, -1.5142152309417725
220955, 0.053174782544374466, -0.18722087144851685, 0.06071961671113968, -0.08317490667104721, 0.038576915860176086, -0.0014853662578389049, -0.02223063074052334, 0.00012830423656851053, 0.9992733001708984, -80.09371948242188, -8.853618621826172, -1.5142152309417725, 0.0, 0.0, 0.0, 0, 0, 0, 0, 0, 0, -80.14842987060547, -8.860230445861816, -1.5153788328170776
220965, 0.053750790655612946, -0.18688498437404633, 0.05956512317061424, 0.21106776595115662, -0.08689577877521515, -0.05227888748049736, -0.02004345878958702, -0.0022022922057658434, 0.9993801116943359, -80.14842987060547, -8.860230445861816, -1.5153788328170776, 0.0, 0.0, 0.0, 0, 0, 0, 0, 0, 0, -80.20316314697266, -8.866844177246094, -1.5165433883666992
220975, 0.05267655476927757, -0.18772563338279724, 0.058117348700761795, -0.01432881411164999, 0.2046249955892563, -0.16560214757919312, -0.021236369386315346, -0.0036887647584080696, 1.0003890991210938, -80.20316314697266, -8.866844177246094, -1.5165433883666992, 0.0, 0.0, 0.0, 0, 0, 0, 0, 0, 0, -80.2579116821289, -8.873461723327637, -1.517708420753479
220985, 0.053081005811691284, -0.18764325976371765, 0.05715595930814743, 0.10635505616664886, 0.15339618921279907, -0.10769054293632507, -0.021878711879253387, -0.0002594813995528966, 0.9994426369667053, -80.2579116821289, -8.873461723327637, -1.517708420753479, 0.0, 0.0, 0.0, 0, 0, 0, 0, 0, 0, -80.31267547607422, -8.880082130432129, -1.518873929977417
220995, 0.05367007479071617, -0.18788498640060425, 0.057873670011758804, 0.012350210919976234, -0.156560018658638, 0.06045037880539894, -0.022382650524377823, -0.0006580681656487286, 1.0009130239486694, -80.31267547607422, -8.880082130432129, -1.518873929977417, 0.0, 0.0, 0.0, 0, 0, 0, 0, 0, 0, -80.36746215820312, -8.886704444885254, -1.520039677619934
221005, 0.054132696241140366, -0.1874905526638031, 0.056983936578035355, -0.014340145513415337, -0.06636486947536469, -0.06277336925268173, -0.02098372019827366, -0.0014958614483475685, 0.9997724890708923, -80.36746215820312, -8.886704444885254, -1.520039677619934, 0.0, 0.0, 0.0, 0, 0, 0, 0, 0, 0, -80.4222640991211, -8.893328666687012, -1.521204948425293
221015, 0.05385245382785797, -0.18883278965950012, 0.05628098174929619, 0.053689394146203995, 0.17208191752433777, -0.009327458217740059, -0.02061588689684868, -0.0020539474207907915, 0.9984671473503113, -80.4222640991211, -8.893328666687012, -1.521204948425293, 0.0, 0.0, 0.0, 0, 0, 0, 0, 0, 0, -80.47708129882812, -8.899954795837402, -1.52237069606781
221025, 0.05314898118376732, -0.18822012841701508, 0.05512189120054245, 0.03893338888883591, 0.036887750029563904, 0.03022361733019352, -0.021813929080963135, -0.0006293440819717944, 0.9997857213020325, -80.47708129882812, -8.899954795837402, -1.52237069606781, 0.0, 0.0, 0.0, 0, 0, 0, 0, 0, 0, -80.53192138671875, -8.906583786010742, -1.523537516593933
221035, 0.05294136703014374, -0.19058822095394135, 0.056316815316677094, -0.016958821564912796, 0.3992553949356079, 0.10057079792022705, -0.021573111414909363, 3.7002493627369404e-05, 0.9994687438011169, -80.53192138671875, -8.906583786010742, -1.523537516593933, 0.0, 0.0, 0.0, 0, 0, 0, 0, 0, 0, -80.58677673339844, -8.913214683532715, -1.5247048139572144
221045, 0.052422598004341125, -0.19125881791114807, 0.055951058864593506, -0.13976901769638062, 0.14658917486667633, -0.07430505752563477, -0.021723715588450432, -0.0020523322746157646, 0.998950183391571, -80.58677673339844, -8.913214683532715, -1.5247048139572144, 0.0, 0.0, 0.0, 0, 0, 0, 0, 0, 0, -80.64164733886719, -8.919846534729004, -1.5258727073669434
221055, 0.05181562155485153, -0.19125515222549438, 0.056997790932655334, -0.18969619274139404, 0.09979920089244843, -0.09114491939544678, -0.02188854105770588, -0.0032929598819464445, 0.9998729228973389, -80.64164733886719, -8.919846534729004, -1.5258727073669434, 0.0, 0.0, 0.0, 0, 0, 0, 0, 0, 0, -80.69654083251953, -8.926481246948242, -1.5270413160324097
221065, 0.051000386476516724, -0.19103074073791504, 0.05726846680045128, 0.012201646342873573, 0.20317308604717255, -0.07063408941030502, -0.020908745005726814, -0.0016308140475302935, 0.9979917407035828, -80.69654083251953, -8.926481246948242, -1.5270413160324097, 0.0, 0.0, 0.0, 0, 0, 0, 0, 0, 0, -80.75144958496094, -8.933119773864746, -1.5282107591629028
221075, 0.05020701140165329, -0.19134783744812012, 0.05844932794570923, -0.046840742230415344, -0.11164748668670654, 0.08879254013299942, -0.021544573828577995, -0.00113130162935704, 0.9996498823165894, -80.75144958496094, -8.933119773864746, -1.5282107591629028, 0.0, 0.0, 0.0, 0, 0, 0, 0, 0, 0, -80.8063735961914, -8.9397611618042, -1.529381513595581
221085, 0.050207942724227905, -0.1905081570148468, 0.058564186096191406, -0.1201091930270195, 0.03184952214360237, -0.09002776443958282, -0.02178296260535717, -0.0025629696901887655, 0.9984312057495117, -80.8063735961914, -8.9397611618042, -1.529381513595581, 0.0, 0.0, 0.0, 0, 0, 0, 0, 0, 0, -80.86132049560547, -8.946405410766602, -1.5305535793304443
221095, 0.04866660386323929, -0.19023847579956055, 0.05965554341673851, -0.048208385705947876, -0.16175830364227295, 0.2527860105037689, -0.021471796557307243, -0.0032079897355288267, 0.9989950656890869, -80.86132049560547, -8.946405410766602, -1.5305535793304443, 0.0, 0.0, 0.0, 0, 0, 0, 0, 0, 0, -80.9162826538086, -8.953052520751953, -1.5317271947860718
221105, 0.048859331756830215, -0.19119957089424133, 0.058606915175914764, 0.10869928449392319, -0.03989603742957115, 0.07511792331933975, -0.02037040702998638, -0.003952971659600735, 0.9993754029273987, -80.9162826538086, -8.953052520751953, -1.5317271947860718, 0.0, 0.0, 0.0, 0, 0, 0, 0, 0, 0, -80.97126007080078, -8.959704399108887, -1.5329021215438843
221115, 0.048984769731760025, -0.19155262410640717, 0.05837935954332352, 0.07593818753957748, -0.008278736844658852, -0.020564910024404526, -0.021388335153460503, -0.005375498905777931, 0.9984800815582275, -80.97126007080078, -8.959704399108887, -1.5329021215438843, 0.0, 0.0, 0.0, 0, 0, 0, 0, 0, 0, -81.02626037597656, -8.966361045837402, -1.5340780019760132
221125, 0.05051426589488983, -0.19055430591106415, 0.05765882134437561, 0.24954967200756073, 0.05602873116731644, 0.031408026814460754, -0.022121218964457512, -0.005435298662632704, 0.9982041716575623, -81.02626037597656, -8.966361045837402, -1.5340780019760132, 0.0, 0.0, 0.0, 0, 0, 0, 0, 0, 0, -81.08677673339844, -8.973690032958984, -1.535373330116272
221135, 0.050015419721603394, -0.18912385404109955, 0.05802580714225769, -0.09647643566131592, -0.13521625101566315, -0.13962551951408386, -0.023340117186307907, -0.0012406343594193459, 0.9981781840324402, -81.08677673339844, -8.973690032958984, -1.535373330116272, 0.0, 0.0, 0.0, 0, 0, 0, 0, 0, 0, -81.14181518554688, -8.980358123779297, -1.536552906036377
221145, 0.04871022701263428, -0.18959163129329681, 0.05883980914950371, 0.04779018461704254, 0.2117525190114975, 0.06038611754775047, -0.02448132261633873, -0.001268228399567306, 1.000888466835022, -81.14181518554688, -8.980358123779297, -1.536552906036377, 0.0, 0.0, 0.0, 0, 0, 0, 0, 0, 0, -81.19686889648438, -8.987028121948242, -1.5377331972122192
221155, 0.04887736961245537, -0.18647295236587524, 0.05934150144457817, 0.005557208321988583, -0.19050082564353943, 0.08096674084663391, -0.0211687870323658, -0.0026601157151162624, 1.0013577938079834, -81.19686889648438, -8.987028121948242, -1.5377331972122192, 0.0, 0.0, 0.0, 0, 0, 0, 0, 0, 0, -81.25194549560547, -8.993700981140137, -1.5389130115509033
221165, 0.04984942078590393, -0.18507717549800873, 0.058960411697626114, 0.10008738934993744, -0.07970622926950455, -0.0012405583402141929, -0.02096630074083805, -0.001992844045162201, 1.001840591430664, -81.25194549560547, -8.993700981140137, -1.5389130115509033, 0.0, 0.0, 0.0, 0, 0, 0, 0, 0, 0, -81.31254577636719, -9.001044273376465, -1.5402092933654785
221175, 0.04987616091966629, -0.18662887811660767, 0.06022702530026436, 0.08001352846622467, 0.33339235186576843, 0.1763623207807541, -0.02116808108985424, -0.002218051813542843, 1.0008442401885986, -81.31254577636719, -9.001044273376465, -1.5402092933654785, 0.0, 0.0, 0.0, 0, 0, 0, 0, 0, 0, -81.36766052246094, -9.007723808288574, -1.5413864850997925
221185, 0.04921489581465721, -0.18702399730682373, 0.059858761727809906, -0.11574036628007889, 0.015084738843142986, -0.019237009808421135, -0.021681316196918488, -0.0022046773228794336, 1.0009442567825317, -81.36766052246094, -9.007723808288574, -1.5413864850997925, 0.0, 0.0, 0.0, 0, 0, 0, 0, 0, 0, -81.42279052734375, -9.014405250549316, -1.5425628423690796
221195, 0.04911955073475838, -0.18815910816192627, 0.060697946697473526, -0.09845799207687378, 0.11294606328010559, 0.17024435102939606, -0.022045325487852097, -0.0017007030546665192, 0.9992805123329163, -81.42279052734375, -9.014405250549316, -1.5425628423690796, 0.0, 0.0, 0.0, 0, 0, 0, 0, 0, 0, -81.47793579101562, -9.021089553833008, -1.543738842010498
221205, 0.048520248383283615, -0.188327357172966, 0.0609767772257328, -0.0697469487786293, 0.010701432824134827, 0.08159817010164261, -0.021361006423830986, -0.0032517502550035715, 0.999497652053833, -81.47793579101562, -9.021089553833008, -1.543738842010498, 0.0, 0.0, 0.0, 0, 0, 0, 0, 0, 0, -81.5331039428711, -9.027776718139648, -1.5449155569076538
221215, 0.04867890104651451, -0.18861301243305206, 0.061736222356557846, 0.09082882851362228, 0.1560545414686203, 0.04523811861872673, -0.023010993376374245, -0.0015768192242830992, 0.9986437559127808, -81.5331039428711, -9.027776718139648, -1.5449155569076538, 0.0, 0.0, 0.0, 0, 0, 0, 0, 0, 0, -81.58828735351562, -9.034467697143555, -1.546093225479126
221225, 0.048805031925439835, -0.18797819316387177, 0.06192942336201668, 0.05732603743672371, -0.03111974708735943, -0.03645186126232147, -0.021125737577676773, -0.001209581969305873, 1.0000190734863281, -81.58828735351562, -9.034467697143555, -1.546093225479126, 0.0, 0.0, 0.0, 0, 0, 0, 0, 0, 0, -81.64349365234375, -9.04116153717041, -1.5472718477249146
221235, 0.04832147806882858, -0.18859019875526428, 0.0629987046122551, -0.07580212503671646, 0.1726614534854889, 0.17916080355644226, -0.02017192170023918, -0.002337089506909251, 1.0012935400009155, -81.64349365234375, -9.04116153717041, -1.5472718477249146, 0.0, 0.0, 0.0, 0, 0, 0, 0, 0, 0, -81.69871520996094, -9.047857284545898, -1.548450231552124
221245, 0.04782393202185631, -0.1888968050479889, 0.06246024742722511, -0.03865990787744522, -0.008657924830913544, -0.1447571963071823, -0.02108663134276867, -0.003511972026899457, 0.9997345209121704, -81.69871520996094, -9.047857284545898, -1.548450231552124, 0.0, 0.0, 0.0, 0, 0, 0, 0, 0, 0, -81.75395202636719, -9.054556846618652, -1.5496282577514648
221255, 0.04844365268945694, -0.18775562942028046, 0.0620587095618248, 0.12367034703493118, -0.1961793452501297, -0.1913318783044815, -0.02086174115538597, -0.0037716561928391457, 1.0013108253479004, -81.75395202636719, -9.054556846618652, -1.5496282577514648, 0.0, 0.0, 0.0, 0, 0, 0, 0, 0, 0, -81.8092041015625, -9.061260223388672, -1.5508061647415161
221265, 0.048860449343919754, -0.18860936164855957, 0.06289850175380707, 0.10952811688184738, 0.11565077304840088, 0.04975515231490135, -0.020571351051330566, -0.003622971707955003, 1.0018978118896484, -81.8092041015625, -9.061260223388672, -1.5508061647415161, 0.0, 0.0, 0.0, 0, 0, 0, 0, 0, 0, -81.8644790649414, -9.067968368530273, -1.5519826412200928
221275, 0.048970721662044525, -0.19013281166553497, 0.06345798820257187, 0.10666488856077194, 0.2848411798477173, 0.04644177481532097, -0.023635799065232277, -0.001961067086085677, 1.0011321306228638, -81.8644790649414, -9.067968368530273, -1.5519826412200928, 0.0, 0.0, 0.0, 0, 0, 0, 0, 0, 0, -81.91976928710938, -9.074679374694824, -1.5531575679779053
221285, 0.04869522899389267, -0.19041305780410767, 0.06300593912601471, 0.054096829146146774, 0.10602694004774094, -0.058192722499370575, -0.02239316701889038, -0.0013091728324070573, 1.0027374029159546, -81.91976928710938, -9.074679374694824, -1.5531575679779053, 0.0, 0.0, 0.0, 0, 0, 0, 0, 0, 0, -81.9750747680664, -9.081393241882324, -1.554330587387085
221295, 0.048421911895275116, -0.19347219169139862, 0.06317920237779617, 0.011698981747031212, 0.49448415637016296, 0.2014666646718979, -0.02106921747326851, -0.002033261815086007, 1.0012173652648926, -81.9750747680664, -9.081393241882324, -1.554330587387085, 0.0, 0.0, 0.0, 0, 0, 0, 0, 0, 0, -82.03040313720703, -9.088109970092773, -1.5555016994476318
221305, 0.04735073819756508, -0.19256927073001862, 0.062054913491010666, -0.21924041211605072, -0.07878148555755615, -0.11671694368124008, -0.0219415295869112, -0.001754633616656065, 0.9999598264694214, -82.03040313720703, -9.088109970092773, -1.5555016994476318, 0.0, 0.0, 0.0, 0, 0, 0, 0, 0, 0, -82.08574676513672, -9.094829559326172, -1.5566723346710205
221315, 0.047819897532463074, -0.19141726195812225, 0.06170912832021713, 0.10191375017166138, 0.008762205950915813, 0.036934226751327515, -0.020794223994016647, -0.0008186839986592531, 1.002604365348816, -82.08574676513672, -9.094829559326172, -1.5566723346710205, 0.0, 0.0, 0.0, 0, 0, 0, 0, 0, 0, -82.14110565185547, -9.101551055908203, -1.5578420162200928
221325, 0.04687117412686348, -0.19031614065170288, 0.06202327087521553, -0.014929327182471752, -0.18069078028202057, 0.06348717957735062, -0.02194545790553093, -0.0004028882831335068, 1.0015568733215332, -82.14110565185547, -9.101551055908203, -1.5578420162200928, 0.0, 0.0, 0.0, 0, 0, 0, 0, 0, 0, -82.19648742675781, -9.108274459838867, -1.5590100288391113
221335, 0.04695892333984375, -0.1899302750825882, 0.06175411120057106, 0.12208852916955948, -0.11567816883325577, 0.04753835126757622, -0.02342744544148445, -0.0014073100173845887, 1.0001221895217896, -82.19648742675781, -9.108274459838867, -1.5590100288391113, 0.0, 0.0, 0.0, 0, 0, 0, 0, 0, 0, -82.25188446044922, -9.114999771118164, -1.5601770877838135
221345, 0.04659567028284073, -0.19057436287403107, 0.06165401265025139, -0.06978648900985718, 0.07765007764101028, -0.021262606605887413, -0.02010573446750641, -0.002454990753903985, 0.9995052814483643, -82.25188446044922, -9.114999771118164, -1.5601770877838135, 0.0, 0.0, 0.0, 0, 0, 0, 0, 0, 0, -82.30730438232422, -9.121726989746094, -1.561344027519226
221355, 0.04706517979502678, -0.1911534070968628, 0.06193855404853821, 0.06156241521239281, 0.1903306245803833, 0.17900052666664124, -0.019236668944358826, -0.0014477466465905309, 1.0004081726074219, -82.30730438232422, -9.121726989746094, -1.561344027519226, 0.0, 0.0, 0.0, 0, 0, 0, 0, 0, 0, -82.36273956298828, -9.128457069396973, -1.5625109672546387
221365, 0.04731294512748718, -0.18959034979343414, 0.06145881116390228, -0.02626899816095829, -0.20084649324417114, 0.003086704760789871, -0.021216876804828644, -0.0010838484158739448, 1.0002949237823486, -82.36273956298828, -9.128457069396973, -1.5625109672546387, 0.0, 0.0, 0.0, 0, 0, 0, 0, 0, 0, -82.4181900024414, -9.135189056396484, -1.563677430152893
221375, 0.04792100191116333, -0.1889764666557312, 0.061343271285295486, 0.12007245421409607, -0.013937454670667648, -0.02606111764907837, -0.021901406347751617, -0.002316873287782073, 1.0009479522705078, -82.4181900024414, -9.135189056396484, -1.563677430152893, 0.0, 0.0, 0.0, 0, 0, 0, 0, 0, 0, -82.4736557006836, -9.141922950744629, -1.5648435354232788
221385, 0.04757940396666527, -0.18716347217559814, 0.0595053993165493, 0.005789767950773239, 0.07988127321004868, -0.1832195520401001, -0.02241416648030281, -0.0028764011804014444, 1.0012298822402954, -82.4736557006836, -9.141922950744629, -1.5648435354232788, 0.0, 0.0, 0.0, 0, 0, 0, 0, 0, 0, -82.52914428710938, -9.148660659790039, -1.5660089254379272
221395, 0.04821799322962761, -0.1849047839641571, 0.05847391486167908, 0.040505144745111465, -0.13260692358016968, -0.06054811552166939, -0.021837783977389336, -0.0019471343839541078, 1.001476526260376, -82.52914428710938, -9.148660659790039, -1.5660089254379272, 0.0, 0.0, 0.0, 0, 0, 0, 0, 0, 0, -82.58464813232422, -9.155401229858398, -1.5671731233596802
221405, 0.04847130924463272, -0.18478985130786896, 0.05915466323494911, 0.029215801507234573, 0.16096213459968567, 0.17986911535263062, -0.02178211137652397, -0.0025103548541665077, 1.0006684064865112, -82.58464813232422, -9.155401229858398, -1.5671731233596802, 0.0, 0.0, 0.0, 0, 0, 0, 0, 0, 0, -82.64017486572266, -9.162144660949707, -1.5683362483978271
221415, 0.04873993992805481, -0.18391580879688263, 0.057905714958906174, 0.049331098794937134, -0.1603628247976303, -0.18136322498321533, -0.020939497277140617, -0.0015092367539182305, 0.9998484253883362, -82.64017486572266, -9.162144660949707, -1.5683362483978271, 0.0, 0.0, 0.0, 0, 0, 0, 0, 0, 0, -82.69571685791016, -9.168890953063965, -1.5694992542266846
221425, 0.0493195578455925, -0.18488100171089172, 0.05737367272377014, 0.12166748195886612, 0.1250932514667511, -0.11499457061290741, -0.020779462531208992, -0.003119067521765828, 0.9981975555419922, -82.69571685791016, -9.168890953063965, -1.5694992542266846, 0.0, 0.0, 0.0, 0, 0, 0, 0, 0, 0, -82.75127410888672, -9.175640106201172, -1.5706632137298584
221435, 0.04917122423648834, -0.18485228717327118, 0.0567728616297245, -0.059882909059524536, 0.03395785391330719, -0.05764244124293327, -0.021736474707722664, -0.002498421585187316, 0.9984601140022278, -82.75127410888672, -9.175640106201172, -1.5706632137298584, 0.0, 0.0, 0.0, 0, 0, 0, 0, 0, 0, -82.80684661865234, -9.182393074035645, -1.5718289613723755
221445, 0.050167325884103775, -0.18516279757022858, 0.05737830698490143, 0.11559650301933289, 0.022194812074303627, -0.08007220178842545, -0.02198939397931099, -0.001061547314748168, 0.9987598657608032, -82.80684661865234, -9.182393074035645, -1.5718289613723755, 0.0, 0.0, 0.0, 0, 0, 0, 0, 0, 0, -82.86244201660156, -9.18914794921875, -1.5729961395263672
221455, 0.050362732261419296, -0.18537436425685883, 0.058309949934482574, -0.037142183631658554, 0.06723320484161377, -0.029376715421676636, -0.021053096279501915, -0.002663164399564266, 0.9998815059661865, -82.86244201660156, -9.18914794921875, -1.5729961395263672, 0.0, 0.0, 0.0, 0, 0, 0, 0, 0, 0, -82.91805267333984, -9.195905685424805, -1.5741639137268066
221465, 0.050213344395160675, -0.18552155792713165, 0.0579080693423748, -0.011698390357196331, 0.07877527922391891, -0.0870107114315033, -0.022121816873550415, -0.002816159510985017, 0.9999591112136841, -82.91805267333984, -9.195905685424805, -1.5741639137268066, 0.0, 0.0, 0.0, 0, 0, 0, 0, 0, 0, -82.97367858886719, -9.202667236328125, -1.5753320455551147
221475, 0.04958542808890343, -0.1858404278755188, 0.05794787034392357, -0.09554214030504227, -0.05139695852994919, -0.02328186109662056, -0.02238517440855503, -0.0014684770721942186, 0.9997749924659729, -82.97367858886719, -9.202667236328125, -1.5753320455551147, 0.0, 0.0, 0.0, 0, 0, 0, 0, 0, 0, -83.02932739257812, -9.209431648254395, -1.576500654220581
221485, 0.05014974623918533, -0.18743914365768433, 0.05817161872982979, 0.1636156141757965, 0.10894004255533218, 0.18519338965415955, -0.022547278553247452, -0.0032615074887871742, 0.9985367655754089, -83.02932739257812, -9.209431648254395, -1.576500654220581, 0.0, 0.0, 0.0, 0, 0, 0, 0, 0, 0, -83.08499145507812, -9.216198921203613, -1.5776702165603638
221495, 0.04942799359560013, -0.18695545196533203, 0.057472895830869675, -0.10629569739103317, -0.024423860013484955, -0.01687425747513771, -0.023413557559251785, -0.002106247702613473, 0.9974545836448669, -83.08499145507812, -9.216198921203613, -1.5776702165603638, 0.0, 0.0, 0.0, 0, 0, 0, 0, 0, 0, -83.14067840576172, -9.222969055175781, -1.5788415670394897
221505, 0.04989730939269066, -0.18739919364452362, 0.05668899416923523, 0.0828113928437233, 0.05080742761492729, -0.0225926972925663, -0.022885823622345924, -0.0012360207038000226, 0.9976800680160522, -83.14067840576172, -9.222969055175781, -1.5788415670394897, 0.0, 0.0, 0.0, 0, 0, 0, 0, 0, 0, -83.1963882446289, -9.229742050170898, -1.5800153017044067
221515, 0.04992770031094551, -0.18532827496528625, 0.056048110127449036, -0.13634851574897766, -0.22251471877098083, -0.2677641808986664, -0.02175789512693882, -0.0022542136721313, 0.9982443451881409, -83.1963882446289, -9.229742050170898, -1.5800153017044067, 0.0, 0.0, 0.0, 0, 0, 0, 0, 0, 0, -83.25211334228516, -9.236517906188965, -1.5811911821365356
221525, 0.05076294019818306, -0.18615612387657166, 0.05665896460413933, 0.030758483335375786, 0.23943021893501282, -0.06295377016067505, -0.022097818553447723, -0.003846418345347047, 0.9984626770019531, -83.25211334228516, -9.236517906188965, -1.5811911821365356, 0.0, 0.0, 0.0, 0, 0, 0, 0, 0, 0, -83.30785369873047, -9.24329662322998, -1.5823687314987183
221535, 0.050544384866952896, -0.1854485124349594, 0.05685820057988167, -0.03673027455806732, -0.122208371758461, 0.11190640926361084, -0.021156765520572662, -0.0037804844323545694, 0.9977570176124573, -83.30785369873047, -9.24329662322998, -1.5823687314987183, 0.0, 0.0, 0.0, 0, 0, 0, 0, 0, 0, -83.36361694335938, -9.250080108642578, -1.5835480690002441
221545, 0.050170283764600754, -0.18822143971920013, 0.05585160851478577, -0.0751991719007492, 0.3431974947452545, -0.1929693967103958, -0.02205195464193821, -0.0014173623640090227, 1.0005943775177002, -83.36361694335938, -9.250080108642578, -1.5835480690002441, 0.0, 0.0, 0.0, 0, 0, 0, 0, 0, 0, -83.41939544677734, -9.256867408752441, -1.584728479385376
221555, 0.04972077161073685, -0.18744327127933502, 0.05558423697948456, -0.09867268055677414, -0.0772239938378334, -0.0865931436419487, -0.022525835782289505, -0.0005876563373021781, 1.001646637916565, -83.41939544677734, -9.256867408752441, -1.584728479385376, 0.0, 0.0, 0.0, 0, 0, 0, 0, 0, 0, -83.4751968383789, -9.263656616210938, -1.5859084129333496
221565, 0.0500902384519577, -0.18733102083206177, 0.05595605447888374, 0.05712166056036949, 0.02079525962471962, 0.05091944336891174, -0.02228897623717785, -0.0016944452654570341, 1.0018157958984375, -83.4751968383789, -9.263656616210938, -1.5859084129333496, 0.0, 0.0, 0.0, 0, 0, 0, 0, 0, 0, -83.53101348876953, -9.270447731018066, -1.587086796760559
221575, 0.04978419095277786, -0.1898721158504486, 0.05547712743282318, -0.10503803938627243, 0.25197380781173706, -0.07452142983675003, -0.0207316055893898, -0.0021045724861323833, 1.0001477003097534, -83.53101348876953, -9.270447731018066, -1.587086796760559, 0.0, 0.0, 0.0, 0, 0, 0, 0, 0, 0, -83.58684539794922, -9.277241706848145, -1.588263988494873
221585, 0.04993990436196327, -0.1906384825706482, 0.055503420531749725, -0.16291628777980804, 0.08892634510993958, -0.03227052092552185, -0.019812559708952904, -0.0004692722577601671, 0.9986799359321594, -83.58684539794922, -9.277241706848145, -1.588263988494873, 0.0, 0.0, 0.0, 0, 0, 0, 0, 0, 0, -83.6427001953125, -9.284037590026855, -1.5894416570663452
221595, 0.05136842280626297, -0.18840719759464264, 0.054855186492204666, 0.21924571692943573, -0.26761510968208313, -0.15000753104686737, -0.022060321643948555, -0.002202065661549568, 1.001261830329895, -83.6427001953125, -9.284037590026855, -1.5894416570663452, 0.0, 0.0, 0.0, 0, 0, 0, 0, 0, 0, -83.69857025146484, -9.2908353805542, -1.5906198024749756
221605, 0.05040217563509941, -0.1881982535123825, 0.05411814898252487, -0.0507027730345726, 0.1315540373325348, -0.05914532393217087, -0.020642444491386414, -0.00325821153819561, 0.9992374777793884, -83.69857025146484, -9.2908353805542, -1.5906198024749756, 0.0, 0.0, 0.0, 0, 0, 0, 0, 0, 0, -83.75445556640625, -9.297636032104492, -1.5917977094650269
221615, 0.0508459247648716, -0.1878337860107422, 0.05363453924655914, -0.05224640667438507, -0.04617616534233093, -0.04185735806822777, -0.020450597628951073, -0.0024719443172216415, 0.9995017647743225, -83.75445556640625, -9.297636032104492, -1.5917977094650269, 0.0, 0.0, 0.0, 0, 0, 0, 0, 0, 0, -83.81035614013672, -9.30444049835205, -1.5929762125015259
221625, 0.050569843500852585, -0.18710672855377197, 0.053360190242528915, -0.05405687913298607, -0.2734152674674988, -0.01514792162925005, -0.020579762756824493, -0.0039539341814816, 1.0009146928787231, -83.81035614013672, -9.30444049835205, -1.5929762125015259, 0.0, 0.0, 0.0, 0, 0, 0, 0, 0, 0, -83.86627960205078, -9.311248779296875, -1.594154715538025
221635, 0.05110574886202812, -0.1875915229320526, 0.05349251627922058, 0.055716514587402344, 0.13094304502010345, -0.03691420331597328, -0.023010173812508583, -0.0028768170159310102, 0.9981079697608948, -83.86627960205078, -9.311248779296875, -1.594154715538025, 0.0, 0.0, 0.0, 0, 0, 0, 0, 0, 0, -83.9222183227539, -9.318061828613281, -1.5953335762023926
221645, 0.05073723942041397, -0.18649159371852875, 0.05291721969842911, -0.04230436310172081, -0.24168534576892853, -0.06722915172576904, -0.022222911939024925, -0.00394782330840826, 0.998600423336029, -83.9222183227539, -9.318061828613281, -1.5953335762023926, 0.0, 0.0, 0.0, 0, 0, 0, 0, 0, 0, -83.9781723022461, -9.324878692626953, -1.5965138673782349
221655, 0.05079927295446396, -0.18488939106464386, 0.05371718481183052, 0.10779862850904465, -0.06983976066112518, 0.07425349950790405, -0.020759792998433113, -0.003197348676621914, 1.0000076293945312, -83.9781723022461, -9.324878692626953, -1.5965138673782349, 0.0, 0.0, 0.0, 0, 0, 0, 0, 0, 0, -84.03414916992188, -9.33169937133789, -1.597695231437683
221665, 0.05100090429186821, -0.18465232849121094, 0.053727198392152786, 0.014211906120181084, 0.14722776412963867, -0.12832599878311157, -0.02291697822511196, -0.000922064355108887, 0.9994563460350037, -84.03414916992188, -9.33169937133789, -1.597695231437683, 0.0, 0.0, 0.0, 0, 0, 0, 0, 0, 0, -84.09014129638672, -9.338523864746094, -1.5988770723342896
221675, 0.051137860864400864, -0.18488214910030365, 0.05516184866428375, -0.02474740892648697, -0.05412435159087181, 0.13034680485725403, -0.022253308445215225, -0.00042977064731530845, 1.0011719465255737, -84.09014129638672, -9.338523864746094, -1.5988770723342896, 0.0, 0.0, 0.0, 0, 0, 0, 0, 0, 0, -84.14615631103516, -9.345349311828613, -1.6000587940216064
221685, 0.05081195384263992, -0.18625883758068085, 0.05570723116397858, 0.027902752161026, 0.17675381898880005, 0.11424573510885239, -0.021078072488307953, 0.00011483563866931945, 1.0013539791107178, -84.14615631103516, -9.345349311828613, -1.6000587940216064, 0.0, 0.0, 0.0, 0, 0, 0, 0, 0, 0, -84.20218658447266, -9.352176666259766, -1.601239562034607
221695, 0.0498446561396122, -0.18475280702114105, 0.055334508419036865, -0.08669225871562958, -0.2346406877040863, 0.004644768312573433, -0.022685011848807335, -7.572470349259675e-05, 0.9997068643569946, -84.20218658447266, -9.352176666259766, -1.601239562034607, 0.0, 0.0, 0.0, 0, 0, 0, 0, 0, 0, -84.25823211669922, -9.359004020690918, -1.6024199724197388
221705, 0.050018955022096634, -0.18644031882286072, 0.055433839559555054, -0.023587072268128395, 0.20949262380599976, 0.095016248524189, -0.02137843891978264, -0.0010642928536981344, 0.9993101358413696, -84.25823211669922, -9.359004020690918, -1.6024199724197388, 0.0, 0.0, 0.0, 0, 0, 0, 0, 0, 0, -84.31430053710938, -9.365833282470703, -1.6036008596420288
221715, 0.04984410107135773, -0.18609274923801422, 0.055597737431526184, -0.049699343740940094, -0.13450859487056732, 0.09029413759708405, -0.02233811281621456, -0.0004206957237329334, 0.9982540011405945, -84.31430053710938, -9.365833282470703, -1.6036008596420288, 0.0, 0.0, 0.0, 0, 0, 0, 0, 0, 0, -84.3703842163086, -9.372663497924805, -1.6047829389572144
221725, 0.050184302031993866, -0.18600933253765106, 0.05622173100709915, -0.04782278835773468, 0.03624892607331276, 0.19654758274555206, -0.02146066352725029, -0.001241073478013277, 1.000111699104309, -84.3703842163086, -9.372663497924805, -1.6047829389572144, 0.0, 0.0, 0.0, 0, 0, 0, 0, 0, 0, -84.4264907836914, -9.379495620727539, -1.6059659719467163
221735, 0.05046386644244194, -0.1880667805671692, 0.05651034787297249, 0.033425383269786835, 0.22116118669509888, 0.06730528920888901, -0.02170020341873169, -0.0014962273417040706, 0.9995264410972595, -84.4264907836914, -9.379495620727539, -1.6059659719467163, 0.0, 0.0, 0.0, 0, 0, 0, 0, 0, 0, -84.48261260986328, -9.386329650878906, -1.607149362564087
221745, 0.04986168444156647, -0.18975204229354858, 0.05596696212887764, -0.04224585369229317, 0.11326958984136581, -0.08221382647752762, -0.02265714854001999, 0.0008973536896519363, 0.9986211061477661, -84.48261260986328, -9.386329650878906, -1.607149362564087, 0.0, 0.0, 0.0, 0, 0, 0, 0, 0, 0, -84.53874969482422, -9.39316463470459, -1.608333706855774
221755, 0.0488758385181427, -0.19154475629329681, 0.055459827184677124, -0.12348402291536331, 0.15500518679618835, -0.07326855510473251, -0.02250109612941742, 8.140582940541208e-05, 0.9988426566123962, -84.53874969482422, -9.39316463470459, -1.608333706855774, 0.0, 0.0, 0.0, 0, 0, 0, 0, 0, 0, -84.59490966796875, -9.40000057220459, -1.6095192432403564
221765, 0.04857998341321945, -0.19244088232517242, 0.054261449724435806, -0.03154754266142845, 0.26826366782188416, -0.18693742156028748, -0.02139962837100029, -0.002782472176477313, 0.9997981190681458, -84.59490966796875, -9.40000057220459, -1.6095192432403564, 0.0, 0.0, 0.0, 0, 0, 0, 0, 0, 0, -84.65108489990234, -9.406837463378906, -1.6107056140899658
221775, 0.04936685413122177, -0.1919287145137787, 0.05432647094130516, 0.17209772765636444, -0.18379583954811096, 0.044758182018995285, -0.02052704244852066, -0.0026614670641720295, 0.9992019534111023, -84.65108489990234, -9.406837463378906, -1.6107056140899658, 0.0, 0.0, 0.0, 0, 0, 0, 0, 0, 0, -84.70728302001953, -9.413678169250488, -1.6118923425674438
221785, 0.04881172999739647, -0.1899881362915039, 0.053794052451848984, -0.05864247307181358, -0.3470052182674408, -0.11635921895503998, -0.020660676062107086, -0.0014800499193370342, 0.9984633326530457, -84.70728302001953, -9.413678169250488, -1.6118923425674438, 0.0, 0.0, 0.0, 0, 0, 0, 0, 0, 0, -84.76349639892578, -9.42052173614502, -1.6130801439285278
221795, 0.049315355718135834, -0.19087310135364532, 0.05212945491075516, 0.07797793298959732, 0.1681075394153595, -0.18509425222873688, -0.022016968578100204, -0.0008936067461036146, 1.0013054609298706, -84.76349639892578, -9.42052173614502, -1.6130801439285278, 0.0, 0.0, 0.0, 0, 0, 0, 0, 0, 0, -84.8197250366211, -9.427367210388184, -1.6142685413360596
221805, 0.05046629160642624, -0.19017566740512848, 0.05349727347493172, 0.14513014256954193, 0.22844639420509338, 0.19658929109573364, -0.02255069650709629, -0.0011576348915696144, 0.9984490871429443, -84.8197250366211, -9.427367210388184, -1.6142685413360596, 0.0, 0.0, 0.0, 0, 0, 0, 0, 0, 0, -84.8759765625, -9.43421459197998, -1.61545729637146
221815, 0.050563618540763855, -0.19040195643901825, 0.052975624799728394, 0.02519812248647213, 0.08949214220046997, -0.1710650622844696, -0.02111400105059147, -0.0030754455365240574, 0.9984182119369507, -84.8759765625, -9.43421459197998, -1.61545729637146, 0.0, 0.0, 0.0, 0, 0, 0, 0, 0, 0, -84.93224334716797, -9.441064834594727, -1.6166476011276245
221825, 0.05023929104208946, -0.19000506401062012, 0.05360052362084389, 0.036245569586753845, 0.04069002345204353, 0.17480230331420898, -0.020817020907998085, -0.0018156468868255615, 0.9982674717903137, -84.93224334716797, -9.441064834594727, -1.6166476011276245, 0.0, 0.0, 0.0, 0, 0, 0, 0, 0, 0, -84.988525390625, -9.447918891906738, -1.6178396940231323
221835, 0.04905746132135391, -0.18734849989414215, 0.053600601851940155, -0.20493029057979584, -0.18413081765174866, -0.030662264674901962, -0.021082842722535133, -0.0013458176981657743, 0.9977338910102844, -84.988525390625, -9.447918891906738, -1.6178396940231323, 0.0, 0.0, 0.0, 0, 0, 0, 0, 0, 0, -85.0448226928711, -9.4547758102417, -1.619033694267273
221845, 0.05080908164381981, -0.1864786595106125, 0.05379646643996239, 0.22225835919380188, 0.11072988063097, 0.08299794793128967, -0.022212330251932144, -0.0011774137383326888, 0.9981457591056824, -85.0448226928711, -9.4547758102417, -1.619033694267273, 0.0, 0.0, 0.0, 0, 0, 0, 0, 0, 0, -85.10114288330078, -9.461634635925293, -1.620229721069336
221855, 0.05159739777445793, -0.184999018907547, 0.05425024405121803, 0.09907488524913788, 0.04893862083554268, 0.21205894649028778, -0.022963237017393112, -0.003510940121486783, 0.9965447187423706, -85.10114288330078, -9.461634635925293, -1.620229721069336, 0.0, 0.0, 0.0, 0, 0, 0, 0, 0, 0, -85.15747833251953, -9.468496322631836, -1.6214284896850586
221865, 0.051728248596191406, -0.18484196066856384, 0.05360638350248337, 0.09830882400274277, 0.015022057108581066, -0.09408330172300339, -0.02273211069405079, -0.0014891026075929403, 0.9985809922218323, -85.15747833251953, -9.468496322631836, -1.6214284896850586, 0.0, 0.0, 0.0, 0, 0, 0, 0, 0, 0, -85.21383666992188, -9.475360870361328, -1.6226297616958618
221875, 0.05241730436682701, -0.18654946982860565, 0.05446719750761986, 0.10198882222175598, 0.23079635202884674, 0.08842574059963226, -0.02205001749098301, -0.0006708218716084957, 1.0016230344772339, -85.21383666992188, -9.475360870361328, -1.6226297616958618, 0.0, 0.0, 0.0, 0, 0, 0, 0, 0, 0, -85.27021026611328, -9.48222827911377, -1.6238312721252441
221885, 0.052922822535037994, -0.18660926818847656, 0.05447687208652496, 0.07472153007984161, -0.05826908349990845, 0.004601572174578905, -0.02263200655579567, -0.0007812977419234812, 0.9989113807678223, -85.27021026611328, -9.48222827911377, -1.6238312721252441, 0.0, 0.0, 0.0, 0, 0, 0, 0, 0, 0, -85.32660675048828, -9.489097595214844, -1.6250327825546265
221895, 0.05210062116384506, -0.187986359000206, 0.055007144808769226, -0.21797482669353485, 0.16349540650844574, 0.052771925926208496, -0.022451380267739296, 0.0010736247058957815, 0.9989875555038452, -85.32660675048828, -9.489097595214844, -1.6250327825546265, 0.0, 0.0, 0.0, 0, 0, 0, 0, 0, 0, -85.38301849365234, -9.495967864990234, -1.626235842704773
221905, 0.05256097763776779, -0.18828368186950684, 0.05549035221338272, 0.08828329294919968, 0.07157588750123978, -0.025273777544498444, -0.022236039862036705, -0.0018146614311262965, 0.9996972680091858, -85.38301849365234, -9.495967864990234, -1.626235842704773, 0.0, 0.0, 0.0, 0, 0, 0, 0, 0, 0, -85.439453125, -9.502839088439941, -1.627440094947815
221915, 0.05200762301683426, -0.19000892341136932, 0.0558953657746315, -0.005214450880885124, 0.3349423110485077, -0.023178257048130035, -0.02119852975010872, -0.003048863261938095, 1.0001872777938843, -85.439453125, -9.502839088439941, -1.627440094947815, 0.0, 0.0, 0.0, 0, 0, 0, 0, 0, 0, -85.49590301513672, -9.509713172912598, -1.6286448240280151
221925, 0.05176098644733429, -0.18956512212753296, 0.0556962825357914, -0.04958710819482803, -0.014381258748471737, -0.0649588480591774, -0.022957315668463707, -0.002738472307100892, 1.0001294612884521, -85.49590301513672, -9.509713172912598, -1.6286448240280151, 0.0, 0.0, 0.0, 0, 0, 0, 0, 0, 0, -85.55237579345703, -9.51659107208252, -1.6298496723175049
221935, 0.05115197226405144, -0.1899927258491516, 0.05571386218070984, -0.04759599640965462, -0.045954760164022446, -0.02233346551656723, -0.021706566214561462, -0.0024731724988669157, 1.0010610818862915, -85.55237579345703, -9.51659107208252, -1.6298496723175049, 0.0, 0.0, 0.0, 0, 0, 0, 0, 0, 0, -85.6088638305664, -9.523472785949707, -1.631054162979126
221945, 0.049942657351493835, -0.19178138673305511, 0.05637358874082565, -0.06299535930156708, 0.17119546234607697, 0.11937388777732849, -0.0225264523178339, -0.0017640353180468082, 1.0007352828979492, -85.6088638305664, -9.523472785949707, -1.631054162979126, 0.0, 0.0, 0.0, 0, 0, 0, 0, 0, 0, -85.66536712646484, -9.530357360839844, -1.6322579383850098
221955, 0.05003358796238899, -0.19125162065029144, 0.05728360638022423, 0.03109188936650753, -0.18507231771945953, 0.1328355371952057, -0.02134965918958187, -0.0026337981689721346, 0.9996094107627869, -85.66536712646484, -9.530357360839844, -1.6322579383850098, 0.0, 0.0, 0.0, 0, 0, 0, 0, 0, 0, -85.72189331054688, -9.53724479675293, -1.633461594581604
221965, 0.04999447241425514, -0.19205781817436218, 0.05717167630791664, 0.14381727576255798, 0.19276367127895355, 0.082099549472332, -0.022335955873131752, -0.0017932873452082276, 0.9983660578727722, -85.72189331054688, -9.53724479675293, -1.633461594581604, 0.0, 0.0, 0.0, 0, 0, 0, 0, 0, 0, -85.77843475341797, -9.544135093688965, -1.6346662044525146
221975, 0.05136993154883385, -0.19237302243709564, 0.057721272110939026, 0.200374037027359, 0.0539199635386467, 0.07890364527702332, -0.023445844650268555, -0.002247484168037772, 0.9997317790985107, -85.77843475341797, -9.544135093688965, -1.6346662044525146, 0.0, 0.0, 0.0, 0, 0, 0, 0, 0, 0, -85.83499908447266, -9.55102825164795, -1.6358717679977417
221985, 0.05230330303311348, -0.1911485195159912, 0.057511668652296066, 0.19245511293411255, -0.3775394856929779, -0.005749840755015612, -0.023275138810276985, -0.0016518173506483436, 0.9981798529624939, -85.83499908447266, -9.55102825164795, -1.6358717679977417, 0.0, 0.0, 0.0, 0, 0, 0, 0, 0, 0, -85.8915786743164, -9.557924270629883, -1.6370785236358643
221995, 0.05317898839712143, -0.19156228005886078, 0.05681263655424118, 0.07973170280456543, 0.04061141610145569, -0.03426791727542877, -0.021788831800222397, -0.00386448809877038, 0.9994783997535706, -85.8915786743164, -9.557924270629883, -1.6370785236358643, 0.0, 0.0, 0.0, 0, 0, 0, 0, 0, 0, -85.94818115234375, -9.564823150634766, -1.6382867097854614
222005, 0.05256896838545799, -0.19331954419612885, 0.057748839259147644, -0.13960132002830505, 0.2172594517469406, 0.10396427661180496, -0.02193204127252102, -0.002455648733302951, 1.0002089738845825, -85.94818115234375, -9.564823150634766, -1.6382867097854614, 0.0, 0.0, 0.0, 0, 0, 0, 0, 0, 0, -86.00479888916016, -9.571725845336914, -1.639495611190796
222015, 0.05353284627199173, -0.1935565024614334, 0.057829599827528, -0.0035691887605935335, 0.10868086665868759, -0.08593954145908356, -0.02338559739291668, -0.0006315666832961142, 0.9994404315948486, -86.00479888916016, -9.571725845336914, -1.639495611190796, 0.0, 0.0, 0.0, 0, 0, 0, 0, 0, 0, -86.06143951416016, -9.578631401062012, -1.6407047510147095
222025, 0.05388782173395157, -0.19216899573802948, 0.05627702176570892, -0.03632807731628418, -0.0824408307671547, -0.05959909409284592, -0.023666230961680412, -0.0033605347853153944, 1.0011999607086182, -86.06143951416016, -9.578631401062012, -1.6407047510147095, 0.0, 0.0, 0.0, 0, 0, 0, 0, 0, 0, -86.11809539794922, -9.585539817810059, -1.641913890838623
222035, 0.054006267338991165, -0.19157801568508148, 0.05662517249584198, -0.06751296669244766, 0.19790422916412354, 0.14567171037197113, -0.02136429399251938, -0.0025983378291130066, 0.9993640780448914, -86.11809539794922, -9.585539817810059, -1.641913890838623, 0.0, 0.0, 0.0, 0, 0, 0, 0, 0, 0, -86.17477416992188, -9.592452049255371, -1.643122911453247
222045, 0.053584542125463486, -0.18995288014411926, 0.05538281053304672, 0.04232515022158623, -0.14097857475280762, -0.17441566288471222, -0.02183259278535843, -0.0020453601609915495, 0.9959434270858765, -86.17477416992188, -9.592452049255371, -1.643122911453247, 0.0, 0.0, 0.0, 0, 0, 0, 0, 0, 0, -86.2314682006836, -9.599367141723633, -1.6443337202072144
222055, 0.0531822144985199, -0.18960724771022797, 0.054089777171611786, 0.10047201067209244, -0.14761868119239807, -0.1289386749267578, -0.02262718789279461, -0.0028426742646843195, 0.9980272054672241, -86.2314682006836, -9.599367141723633, -1.6443337202072144, 0.0, 0.0, 0.0, 0, 0, 0, 0, 0, 0, -86.2881851196289, -9.606285095214844, -1.6455475091934204
222065, 0.052597854286432266, -0.18805740773677826, 0.053705692291259766, 0.0502096526324749, -0.3125094771385193, 0.023320212960243225, -0.023203328251838684, -0.00230779848061502, 1.0006107091903687, -86.2881851196289, -9.606285095214844, -1.6455475091934204, 0.0, 0.0, 0.0, 0, 0, 0, 0, 0, 0, -86.34491729736328, -9.61320686340332, -1.646762490272522
222075, 0.052680592983961105, -0.1851922571659088, 0.05352112650871277, 0.06792471557855606, -0.3753304183483124, -0.018102828413248062, -0.02296062372624874, -0.003873401088640094, 0.9983081817626953, -86.34491729736328, -9.61320686340332, -1.646762490272522, 0.0, 0.0, 0.0, 0, 0, 0, 0, 0, 0, -86.40167236328125, -9.620131492614746, -1.6479781866073608
222085, 0.05185193940997124, -0.186187744140625, 0.052592478692531586, 0.02073514088988304, 0.21972668170928955, -0.13100184500217438, -0.023710237815976143, -0.004044074099510908, 0.9995993375778198, -86.40167236328125, -9.620131492614746, -1.6479781866073608, 0.0, 0.0, 0.0, 0, 0, 0, 0, 0, 0, -86.45844268798828, -9.627060890197754, -1.6491950750350952
222095, 0.051653902977705, -0.18640471994876862, 0.05162201076745987, 0.09139691293239594, 0.054998308420181274, -0.14077837765216827, -0.022993938997387886, -0.001355831976979971, 0.9998177886009216, -86.45844268798828, -9.627060890197754, -1.6491950750350952, 0.0, 0.0, 0.0, 0, 0, 0, 0, 0, 0, -86.5152359008789, -9.633994102478027, -1.6504124402999878
222105, 0.05122151970863342, -0.1873500645160675, 0.05187990143895149, -0.051760200411081314, 0.10123744606971741, 0.05584012717008591, -0.022971592843532562, -0.002478998387232423, 0.9993444681167603, -86.5152359008789, -9.633994102478027, -1.6504124402999878, 0.0, 0.0, 0.0, 0, 0, 0, 0, 0, 0, -86.5720443725586, -9.64093017578125, -1.6516302824020386
222115, 0.05085853859782219, -0.18939509987831116, 0.05371710658073425, -0.028748465701937675, 0.18379056453704834, 0.2948376536369324, -0.021960724145174026, -0.0038770530372858047, 1.0021511316299438, -86.5720443725586, -9.64093017578125, -1.6516302824020386, 0.0, 0.0, 0.0, 0, 0, 0, 0, 0, 0, -86.62887573242188, -9.647870063781738, -1.6528477668762207
222125, 0.05102960020303726, -0.18835337460041046, 0.05317922681570053, -0.05599416419863701, -0.10146313905715942, -0.11750010401010513, -0.020411256700754166, -0.0021311230957508087, 1.0022882223129272, -86.62887573242188, -9.647870063781738, -1.6528477668762207, 0.0, 0.0, 0.0, 0, 0, 0, 0, 0, 0, -86.68572235107422, -9.654813766479492, -1.65406334400177
222135, 0.051349882036447525, -0.18688905239105225, 0.05308666080236435, -0.048931922763586044, -0.06821029633283615, 0.07420988380908966, -0.020446015521883965, -0.0005955562810413539, 0.9999465346336365, -86.68572235107422, -9.654813766479492, -1.65406334400177, 0.0, 0.0, 0.0, 0, 0, 0, 0, 0, 0, -86.74258422851562, -9.661759376525879, -1.6552776098251343
222145, 0.05054737254977226, -0.18771027028560638, 0.053835589438676834, -0.20743636786937714, -0.055489253252744675, 0.13659603893756866, -0.020547548308968544, -0.0015347483567893505, 0.9983099699020386, -86.74258422851562, -9.661759376525879, -1.6552776098251343, 0.0, 0.0, 0.0, 0, 0, 0, 0, 0, 0, -86.7994613647461, -9.668706893920898, -1.6564922332763672
222155, 0.05080327019095421, -0.18827754259109497, 0.051686640828847885, -0.022039616480469704, 0.15463656187057495, -0.2717134952545166, -0.022083928808569908, -0.0027192069683223963, 0.9976803660392761, -86.7994613647461, -9.668706893920898, -1.6564922332763672, 0.0, 0.0, 0.0, 0, 0, 0, 0, 0, 0, -86.85636138916016, -9.675657272338867, -1.6577085256576538
222165, 0.051531918346881866, -0.1867983341217041, 0.05259602889418602, 0.21435707807540894, -0.1854223757982254, 0.170286163687706, -0.02120753563940525, -0.0025309347547590733, 0.9986118078231812, -86.85636138916016, -9.675657272338867, -1.6577085256576538, 0.0, 0.0, 0.0, 0, 0, 0, 0, 0, 0, -86.91327667236328, -9.682611465454102, -1.6589267253875732
222175, 0.05193409323692322, -0.18748295307159424, 0.05256626382470131, 0.05760171264410019, 0.14292451739311218, -0.14056523144245148, -0.021099349483847618, -0.0015142133925110102, 0.9980384111404419, -86.91327667236328, -9.682611465454102, -1.6589267253875732, 0.0, 0.0, 0.0, 0, 0, 0, 0, 0, 0, -86.97020721435547, -9.689568519592285, -1.6601463556289673
222185, 0.051598161458969116, -0.18682335317134857, 0.053651709109544754, -0.08287879079580307, 0.031651370227336884, 0.16285760700702667, -0.020312946289777756, -0.0008238934096880257, 0.996076226234436, -86.97020721435547, -9.689568519592285, -1.6601463556289673, 0.0, 0.0, 0.0, 0, 0, 0, 0, 0, 0, -87.02716064453125, -9.696527481079102, -1.661368489265442
222195, 0.051996659487485886, -0.18491612374782562, 0.053309813141822815, -0.08022700250148773, -0.15929991006851196, 0.11533423513174057, -0.02127712033689022, -0.0015971949324011803, 0.9982656836509705, -87.02716064453125, -9.696527481079102, -1.661368489265442, 0.0, 0.0, 0.0, 0, 0, 0, 0, 0, 0, -87.0841293334961, -9.70348834991455, -1.6625936031341553
222205, 0.05191165581345558, -0.1851353645324707, 0.05265496298670769, -0.0952262356877327, 0.18539512157440186, 0.0029218890704214573, -0.023052453994750977, -0.001685588271357119, 1.0015268325805664, -87.0841293334961, -9.70348834991455, -1.6625936031341553, 0.0, 0.0, 0.0, 0, 0, 0, 0, 0, 0, -87.14111328125, -9.71045207977295, -1.6638193130493164
222215, 0.05231435224413872, -0.18406470119953156, 0.05239107459783554, 0.0848226472735405, -0.13268795609474182, 0.16008257865905762, -0.02204771153628826, -0.0023756728041917086, 0.9999004006385803, -87.14111328125, -9.71045207977295, -1.6638193130493164, 0.0, 0.0, 0.0, 0, 0, 0, 0, 0, 0, -87.1981201171875, -9.717418670654297, -1.6650445461273193
222225, 0.05220997706055641, -0.18591317534446716, 0.052906230092048645, 0.023248039186000824, 0.13096678256988525, 0.18629096448421478, -0.02221292071044445, -0.002584506291896105, 0.99869304895401, -87.1981201171875, -9.717418670654297, -1.6650445461273193, 0.0, 0.0, 0.0, 0, 0, 0, 0, 0, 0, -87.25514221191406, -9.724388122558594, -1.6662704944610596
222235, 0.052896078675985336, -0.18341319262981415, 0.052615486085414886, 0.10430626571178436, -0.32039156556129456, -0.0637354701757431, -0.023089764639735222, -0.0016066536772996187, 0.9999895095825195, -87.25514221191406, -9.724388122558594, -1.6662704944610596, 0.0, 0.0, 0.0, 0, 0, 0, 0, 0, 0, -87.31218719482422, -9.73136043548584, -1.6674970388412476
222245, 0.05243543162941933, -0.18467414379119873, 0.05231883376836777, -0.24271227419376373, 0.3452628254890442, -0.18121202290058136, -0.022762298583984375, -0.0013989327708259225, 0.9983289837837219, -87.31218719482422, -9.73136043548584, -1.6674970388412476, 0.0, 0.0, 0.0, 0, 0, 0, 0, 0, 0, -87.36924743652344, -9.738335609436035, -1.6687241792678833
222255, 0.052916087210178375, -0.18464817106723785, 0.05325985699892044, -0.0031365021131932735, -0.021432623267173767, 0.004672289825975895, -0.023451343178749084, -0.0018578461604192853, 0.998908519744873, -87.36924743652344, -9.738335609436035, -1.6687241792678833, 0.0, 0.0, 0.0, 0, 0, 0, 0, 0, 0, -87.42633056640625, -9.745312690734863, -1.669952630996704
222265, 0.05387016385793686, -0.18401049077510834, 0.05262996628880501, 0.1135137528181076, -0.14691060781478882, -0.194533109664917, -0.021040918305516243, -0.0015620330814272165, 0.9986881613731384, -87.42633056640625, -9.745312690734863, -1.669952630996704, 0.0, 0.0, 0.0, 0, 0, 0, 0, 0, 0, -87.48342895507812, -9.75229263305664, -1.671182632446289
222275, 0.052662093192338943, -0.1817341446876526, 0.051325783133506775, -0.17262309789657593, -0.26747778058052063, -0.27469223737716675, -0.01988903433084488, -0.003028413513675332, 0.9978521466255188, -87.48342895507812, -9.75229263305664, -1.671182632446289, 0.0, 0.0, 0.0, 0, 0, 0, 0, 0, 0, -87.5405502319336, -9.759275436401367, -1.6724145412445068
222285, 0.05290379375219345, -0.18212081491947174, 0.05105717480182648, 0.10514955222606659, 0.04985562339425087, -0.007021533325314522, -0.02258308045566082, -0.0027787296567112207, 0.9992726445198059, -87.5405502319336, -9.759275436401367, -1.6724145412445068, 0.0, 0.0, 0.0, 0, 0, 0, 0, 0, 0, -87.59768676757812, -9.76626205444336, -1.6736481189727783
222295, 0.053030867129564285, -0.18289023637771606, 0.05165664479136467, 0.0763692781329155, 0.03537531569600105, 0.1177491694688797, -0.021152911707758904, -0.0006731930770911276, 0.997200071811676, -87.59768676757812, -9.76626205444336, -1.6736481189727783, 0.0, 0.0, 0.0, 0, 0, 0, 0, 0, 0, -87.65483856201172, -9.773250579833984, -1.674883484840393
222305, 0.0523841418325901, -0.1839030683040619, 0.05143100395798683, -0.04894895851612091, -0.026661863550543785, -0.019626228138804436, -0.021216003224253654, 0.00010749510693131015, 0.9968635439872742, -87.65483856201172, -9.773250579833984, -1.674883484840393, 0.0, 0.0, 0.0, 0, 0, 0, 0, 0, 0, -87.7120132446289, -9.780241012573242, -1.6761215925216675
222315, 0.05342812463641167, -0.18306231498718262, 0.05261818692088127, 0.22269243001937866, -0.09793657064437866, 0.1832694411277771, -0.022358130663633347, -0.00010712534276535735, 0.9994192719459534, -87.7120132446289, -9.780241012573242, -1.6761215925216675, 0.0, 0.0, 0.0, 0, 0, 0, 0, 0, 0, -87.76920318603516, -9.787232398986816, -1.6773617267608643
222325, 0.05312075838446617, -0.1835969090461731, 0.051920220255851746, -0.06517434865236282, 0.1958245486021042, 0.009248225018382072, -0.023744871839880943, -0.0007780423038639128, 1.0010292530059814, -87.76920318603516, -9.787232398986816, -1.6773617267608643, 0.0, 0.0, 0.0, 0, 0, 0, 0, 0, 0, -87.82640838623047, -9.794225692749023, -1.6786020994186401
222335, 0.05307820439338684, -0.183997243642807, 0.05023077875375748, -0.009144610725343227, 0.02686041221022606, -0.21061940491199493, -0.023693213239312172, 0.00010176203068112954, 1.0006099939346313, -87.82640838623047, -9.794225692749023, -1.6786020994186401, 0.0, 0.0, 0.0, 0, 0, 0, 0, 0, 0, -87.88363647460938, -9.801219940185547, -1.6798418760299683
222345, 0.053312528878450394, -0.183667853474617, 0.05106218159198761, 0.04931814968585968, -0.06877142190933228, 0.13410572707653046, -0.02291840873658657, 0.00021369839669205248, 1.0000529289245605, -87.88363647460938, -9.801219940185547, -1.6798418760299683, 0.0, 0.0, 0.0, 0, 0, 0, 0, 0, 0, -87.94088745117188, -9.808215141296387, -1.6810812950134277
222355, 0.05325507000088692, -0.18477526307106018, 0.0511702336370945, 0.04423663020133972, 0.09037721157073975, 0.07751480489969254, -0.022599302232265472, -0.0026218544226139784, 0.9985333681106567, -87.94088745117188, -9.808215141296387, -1.6810812950134277, 0.0, 0.0, 0.0, 0, 0, 0, 0, 0, 0, -87.99815368652344, -9.81521224975586, -1.6823214292526245
222365, 0.05337422341108322, -0.18533669412136078, 0.05113450065255165, -0.00019193434854969382, 0.049403220415115356, 0.04639866575598717, -0.02312423847615719, -0.0018277425551787019, 0.9988602995872498, -87.99815368652344, -9.81521224975586, -1.6823214292526245, 0.0, 0.0, 0.0, 0, 0, 0, 0, 0, 0, -88.0554428100586, -9.822212219238281, -1.6835628747940063
222375, 0.05289037525653839, -0.18453362584114075, 0.05243953317403793, -0.06790989637374878, -0.10730873048305511, 0.1249515488743782, -0.021629033610224724, -0.002022765576839447, 1.0010477304458618, -88.0554428100586, -9.822212219238281, -1.6835628747940063, 0.0, 0.0, 0.0, 0, 0, 0, 0, 0, 0, -88.11274719238281, -9.829215049743652, -1.6848047971725464
222385, 0.05319932848215103, -0.1873970329761505, 0.05303417146205902, -0.0055727711878716946, 0.456294447183609, 0.01299295388162136, -0.0216967836022377, -0.002256035106256604, 0.9970734715461731, -88.11274719238281, -9.829215049743652, -1.6848047971725464, 0.0, 0.0, 0.0, 0, 0, 0, 0, 0, 0, -88.17007446289062, -9.836220741271973, -1.6860475540161133
222395, 0.0526968352496624, -0.18596233427524567, 0.051459845155477524, 0.05659500136971474, -0.12031691521406174, -0.25473272800445557, -0.022477678954601288, -0.0008882578695192933, 0.9981579780578613, -88.17007446289062, -9.836220741271973, -1.6860475540161133, 0.0, 0.0, 0.0, 0, 0, 0, 0, 0, 0, -88.2274169921875, -9.843229293823242, -1.687292456626892
222405, 0.05255448818206787, -0.18474949896335602, 0.053059838712215424, -0.001498744240961969, -0.17970842123031616, 0.20111946761608124, -0.021329419687390327, -0.0018529801163822412, 0.9975763559341431, -88.2274169921875, -9.843229293823242, -1.687292456626892, 0.0, 0.0, 0.0, 0, 0, 0, 0, 0, 0, -88.28477478027344, -9.850239753723145, -1.6885393857955933
222415, 0.053205326199531555, -0.18532757461071014, 0.05407452955842018, 0.1303536593914032, 0.04429682716727257, 0.10837771743535995, -0.02215873822569847, -0.0026605771854519844, 0.9992053508758545, -88.28477478027344, -9.850239753723145, -1.6885393857955933, 0.0, 0.0, 0.0, 0, 0, 0, 0, 0, 0, -88.34215545654297, -9.857253074645996, -1.6897881031036377
222425, 0.05262087285518646, -0.18616840243339539, 0.054048728197813034, -0.03767557442188263, 0.07549092173576355, -0.0510055348277092, -0.02187083661556244, -0.0024416917003691196, 1.000578761100769, -88.34215545654297, -9.857253074645996, -1.6897881031036377, 0.0, 0.0, 0.0, 0, 0, 0, 0, 0, 0, -88.39955139160156, -9.864270210266113, -1.6910374164581299
222435, 0.05311568081378937, -0.1871909350156784, 0.0539838932454586, 0.11095435172319412, 0.2788655161857605, -0.10569901764392853, -0.021695343777537346, -0.0015244329115375876, 1.0016611814498901, -88.39955139160156, -9.864270210266113, -1.6910374164581299, 0.0, 0.0, 0.0, 0, 0, 0, 0, 0, 0, -88.45697021484375, -9.87129020690918, -1.6922861337661743
222445, 0.05296073108911514, -0.18714015185832977, 0.05344894155859947, -0.03969523683190346, 0.06740706413984299, -0.1993296593427658, -0.022916344925761223, 0.00026462096138857305, 0.9973974227905273, -88.45697021484375, -9.87129020690918, -1.6922861337661743, 0.0, 0.0, 0.0, 0, 0, 0, 0, 0, 0, -88.514404296875, -9.878311157226562, -1.693535327911377
222455, 0.053342387080192566, -0.18587663769721985, 0.05386478826403618, 0.09652149677276611, -0.1841423660516739, 0.01105111837387085, -0.021117156371474266, -0.001468359725549817, 0.997968852519989, -88.514404296875, -9.878311157226562, -1.693535327911377, 0.0, 0.0, 0.0, 0, 0, 0, 0, 0, 0, -88.57185363769531, -9.885334014892578, -1.694786787033081
222465, 0.05383438989520073, -0.18563438951969147, 0.053761936724185944, 0.17314861714839935, -0.049533743411302567, -0.013426968827843666, -0.01962251216173172, -0.0019158569630235434, 0.9986156821250916, -88.57185363769531, -9.885334014892578, -1.694786787033081, 0.0, 0.0, 0.0, 0, 0, 0, 0, 0, 0, -88.62932586669922, -9.892358779907227, -1.696040153503418
222475, 0.053671445697546005, -0.18489515781402588, 0.05317917466163635, 0.08205560594797134, -0.014743126928806305, -0.2074630707502365, -0.02073352038860321, -0.0016195692587643862, 0.999862551689148, -88.62932586669922, -9.892358779907227, -1.696040153503418, 0.0, 0.0, 0.0, 0, 0, 0, 0, 0, 0, -88.68681335449219, -9.899386405944824, -1.6972945928573608
222485, 0.05311087518930435, -0.1846650242805481, 0.05427348241209984, -0.1269770860671997, 0.07304283231496811, 0.09165801107883453, -0.02176467515528202, -0.002721007913351059, 0.9998844861984253, -88.68681335449219, -9.899386405944824, -1.6972945928573608, 0.0, 0.0, 0.0, 0, 0, 0, 0, 0, 0, -88.74431610107422, -9.906416893005371, -1.6985492706298828
222495, 0.05407363548874855, -0.1850985586643219, 0.05509607493877411, 0.1674855500459671, 0.043298762291669846, 0.2226317822933197, -0.021182242780923843, -0.0033577661961317062, 0.9992064237594604, -88.74431610107422, -9.906416893005371, -1.6985492706298828, 0.0, 0.0, 0.0, 0, 0, 0, 0, 0, 0, -88.80184173583984, -9.913451194763184, -1.6998043060302734
222505, 0.054043062031269073, -0.18686529994010925, 0.05593321472406387, -0.05950184538960457, 0.3101131319999695, 0.0723869800567627, -0.021876979619264603, -0.0038791305851191282, 1.0000261068344116, -88.80184173583984, -9.913451194763184, -1.6998043060302734, 0.0, 0.0, 0.0, 0, 0, 0, 0, 0, 0, -88.85938262939453, -9.920490264892578, -1.7010599374771118
222515, 0.05310280621051788, -0.1864096075296402, 0.05508807301521301, -0.08060913532972336, -0.09680140763521194, -0.14855198562145233, -0.021906349807977676, -0.002778429538011551, 1.0001534223556519, -88.85938262939453, -9.920490264892578, -1.7010599374771118, 0.0, 0.0, 0.0, 0, 0, 0, 0, 0, 0, -88.91693878173828, -9.927533149719238, -1.7023158073425293
222525, 0.05389323830604553, -0.1857718527317047, 0.05643081292510033, 0.10965557396411896, 0.10744113475084305, 0.26752761006355286, -0.02301013469696045, -0.0031919339671730995, 1.001899003982544, -88.91693878173828, -9.927533149719238, -1.7023158073425293, 0.0, 0.0, 0.0, 0, 0, 0, 0, 0, 0, -88.97451782226562, -9.934579849243164, -1.703571081161499
222535, 0.05475431680679321, -0.18487602472305298, 0.05816365405917168, 0.04650896415114403, 0.025217389687895775, 0.3451545834541321, -0.02205374650657177, -0.003382956376299262, 1.0013009309768677, -88.97451782226562, -9.934579849243164, -1.703571081161499, 0.0, 0.0, 0.0, 0, 0, 0, 0, 0, 0, -89.03211212158203, -9.941631317138672, -1.7048249244689941
222545, 0.055107831954956055, -0.18321575224399567, 0.05726642534136772, 0.02466260828077793, -0.18723340332508087, -0.10579626262187958, -0.021057790145277977, 0.001179948914796114, 0.9987009167671204, -89.03211212158203, -9.941631317138672, -1.7048249244689941, 0.0, 0.0, 0.0, 0, 0, 0, 0, 0, 0, -89.0897216796875, -9.948684692382812, -1.7060785293579102
222555, 0.056863170117139816, -0.18325628340244293, 0.0590369775891304, 0.16188880801200867, 0.07390689849853516, 0.0857139602303505, -0.020048130303621292, -0.0004821884795092046, 0.9980810880661011, -89.0897216796875, -9.948684692382812, -1.7060785293579102, 0.0, 0.0, 0.0, 0, 0, 0, 0, 0, 0, -89.14735412597656, -9.95573902130127, -1.7073339223861694
222565, 0.05700347572565079, -0.18560798466205597, 0.058820243924856186, -0.05458202585577965, 0.3462095558643341, -0.1386031210422516, -0.02270166203379631, -0.0037450615782290697, 0.9978286027908325, -89.14735412597656, -9.95573902130127, -1.7073339223861694, 0.0, 0.0, 0.0, 0, 0, 0, 0, 0, 0, -89.20500183105469, -9.962796211242676, -1.7085915803909302
222575, 0.05539305880665779, -0.18584774434566498, 0.059425123035907745, -0.23082013428211212, 0.10812738537788391, 0.06928624957799911, -0.02392684295773506, -0.0013881680788472295, 0.997199535369873, -89.20500183105469, -9.962796211242676, -1.7085915803909302, 0.0, 0.0, 0.0, 0, 0, 0, 0, 0, 0, -89.2626724243164, -9.969856262207031, -1.7098513841629028
222585, 0.054629139602184296, -0.18531988561153412, 0.05888628587126732, -0.03274891525506973, -0.06487707793712616, -0.15451516211032867, -0.021536964923143387, -0.0008434885530732572, 0.998843789100647, -89.2626724243164, -9.969856262207031, -1.7098513841629028, 0.0, 0.0, 0.0, 0, 0, 0, 0, 0, 0, -89.32035827636719, -9.97691822052002, -1.7111132144927979
222595, 0.05520188808441162, -0.18475119769573212, 0.06065812706947327, 0.10043888539075851, -0.010903927497565746, 0.2684929072856903, -0.020821504294872284, 0.0006671561277471483, 0.9983749389648438, -89.32035827636719, -9.97691822052002, -1.7111132144927979, 0.0, 0.0, 0.0, 0, 0, 0, 0, 0, 0, -89.37805938720703, -9.98398208618164, -1.7123768329620361
222605, 0.054666899144649506, -0.1856646090745926, 0.059808775782585144, -0.09781245142221451, 0.2554367482662201, -0.1861860752105713, -0.021167930215597153, -0.0018491895170882344, 0.9989269375801086, -89.37805938720703, -9.98398208618164, -1.7123768329620361, 0.0, 0.0, 0.0, 0, 0, 0, 0, 0, 0, -89.43578338623047, -9.991046905517578, -1.713641881942749
222615, 0.05371610447764397, -0.1866474449634552, 0.059725623577833176, -0.15536151826381683, 0.20606115460395813, -0.056050971150398254, -0.02173110656440258, -0.0012832593638449907, 1.0014115571975708, -89.43578338623047, -9.991046905517578, -1.713641881942749, 0.0, 0.0, 0.0, 0, 0, 0, 0, 0, 0, -89.49352264404297, -9.998113632202148, -1.7149070501327515
222625, 0.05396760255098343, -0.18548931181430817, 0.05784319341182709, -0.015387224033474922, -0.0762164518237114, -0.3604600429534912, -0.020953748375177383, -0.0009343783021904528, 1.000119686126709, -89.49352264404297, -9.998113632202148, -1.7149070501327515, 0.0, 0.0, 0.0, 0, 0, 0, 0, 0, 0, -89.55127716064453, -10.005183219909668, -1.716171383857727
222635, 0.053513407707214355, -0.18555280566215515, 0.05764174461364746, -0.15164445340633392, 0.11821428686380386, -0.04218384250998497, -0.024488188326358795, -0.0016411725664511323, 0.999463677406311, -89.55127716064453, -10.005183219909668, -1.716171383857727, 0.0, 0.0, 0.0, 0, 0, 0, 0, 0, 0, -89.60905456542969, -10.01225471496582, -1.7174358367919922
222645, 0.05350559577345848, -0.1853143721818924, 0.05728877708315849, -0.048922713845968246, -0.025902966037392616, -0.04718529060482979, -0.02574584074318409, -0.001042059389874339, 1.0009406805038452, -89.60905456542969, -10.01225471496582, -1.7174358367919922, 0.0, 0.0, 0.0, 0, 0, 0, 0, 0, 0, -89.66685485839844, -10.019328117370605, -1.7187002897262573
222655, 0.05479799583554268, -0.18695016205310822, 0.057951509952545166, 0.15195156633853912, 0.2608511447906494, 0.22076888382434845, -0.023884285241365433, -0.001442555570974946, 0.9996163845062256, -89.66685485839844, -10.019328117370605, -1.7187002897262573, 0.0, 0.0, 0.0, 0, 0, 0, 0, 0, 0, -89.72467041015625, -10.02640438079834, -1.719964623451233
222665, 0.0546422116458416, -0.18597529828548431, 0.05733262374997139, -0.020706959068775177, -0.03914334252476692, 0.15755297243595123, -0.022306015715003014, -0.0021643934305757284, 0.9986725449562073, -89.72467041015625, -10.02640438079834, -1.719964623451233, 0.0, 0.0, 0.0, 0, 0, 0, 0, 0, 0, -89.78250885009766, -10.033482551574707, -1.7212297916412354
222675, 0.05517362058162689, -0.18658235669136047, 0.057290028780698776, 0.0341147817671299, 0.0711541622877121, 0.06642225384712219, -0.024116098880767822, -0.0013658931711688638, 0.9995525479316711, -89.78250885009766, -10.033482551574707, -1.7212297916412354, 0.0, 0.0, 0.0, 0, 0, 0, 0, 0, 0, -89.84037017822266, -10.040563583374023, -1.7224962711334229
222685, 0.0541960634291172, -0.188649520277977, 0.05882826820015907, -0.32756245136260986, 0.25646254420280457, 0.1988631933927536, -0.02445337176322937, -0.0002103800798067823, 0.998986542224884, -89.84037017822266, -10.040563583374023, -1.7224962711334229, 0.0, 0.0, 0.0, 0, 0, 0, 0, 0, 0, -89.89824676513672, -10.047646522521973, -1.7237638235092163
222695, 0.05507249757647514, -0.18811391294002533, 0.060455914586782455, 0.05833793804049492, -0.05801534280180931, 0.2773699164390564, -0.02288723550736904, -0.002747579710558057, 0.9984543919563293, -89.89824676513672, -10.047646522521973, -1.7237638235092163, 0.0, 0.0, 0.0, 0, 0, 0, 0, 0, 0, -89.95614624023438, -10.054731369018555, -1.7250324487686157
222705, 0.05464056134223938, -0.18799664080142975, 0.06145254150032997, 0.022825179621577263, -0.03758065775036812, 0.12357714772224426, -0.021894771605730057, -0.0039611817337572575, 1.0001987218856812, -89.95614624023438, -10.054731369018555, -1.7250324487686157, 0.0, 0.0, 0.0, 0, 0, 0, 0, 0, 0, -90.0140609741211, -10.061820030212402, -1.7263020277023315
222715, 0.054908234626054764, -0.18833638727664948, 0.06175822764635086, 0.020297080278396606, -0.0925140529870987, -0.030385592952370644, -0.02256128564476967, -0.002297439845278859, 0.9981500506401062, -90.0140609741211, -10.061820030212402, -1.7263020277023315, 0.0, 0.0, 0.0, 0, 0, 0, 0, 0, 0, -90.0719985961914, -10.068913459777832, -1.7275725603103638
222725, 0.05483391880989075, -0.18683063983917236, 0.06341609358787537, 0.11624149978160858, -0.3704685568809509, 0.24828778207302094, -0.021881088614463806, -0.002767572645097971, 0.9979673027992249, -90.0719985961914, -10.068913459777832, -1.7275725603103638, 0.0, 0.0, 0.0, 0, 0, 0, 0, 0, 0, -90.12995147705078, -10.076009750366211, -1.728845238685608
222735, 0.05424824357032776, -0.1853375881910324, 0.062016841024160385, 0.07146025449037552, -0.2171144336462021, -0.20747427642345428, -0.021958986297249794, -0.000705466722138226, 1.0014504194259644, -90.12995147705078, -10.076009750366211, -1.728845238685608, 0.0, 0.0, 0.0, 0, 0, 0, 0, 0, 0, -90.18792724609375, -10.083108901977539, -1.7301185131072998
222745, 0.05331302061676979, -0.18695197999477386, 0.062127597630023956, 0.09284014999866486, 0.3302958309650421, 0.16182741522789001, -0.02060871385037899, -0.00029604064184240997, 0.9990721344947815, -90.18792724609375, -10.083108901977539, -1.7301185131072998, 0.0, 0.0, 0.0, 0, 0, 0, 0, 0, 0, -90.24591827392578, -10.090209007263184, -1.7313915491104126
222755, 0.052860505878925323, -0.18537218868732452, 0.06167269125580788, -0.0727803036570549, -0.11881068348884583, 0.07427792251110077, -0.023261308670043945, -0.0005739284679293633, 0.9979274272918701, -90.24591827392578, -10.090209007263184, -1.7313915491104126, 0.0, 0.0, 0.0, 0, 0, 0, 0, 0, 0, -90.30392456054688, -10.097311019897461, -1.7326658964157104
222765, 0.05184909701347351, -0.18495666980743408, 0.06388352066278458, -0.15651242434978485, -0.02162988856434822, 0.3472239673137665, -0.022754637524485588, -0.0010740716243162751, 1.0029352903366089, -90.30392456054688, -10.097311019897461, -1.7326658964157104, 0.0, 0.0, 0.0, 0, 0, 0, 0, 0, 0, -90.36195373535156, -10.104413986206055, -1.7339403629302979
222775, 0.05259194225072861, -0.18427541851997375, 0.06305785477161407, 0.012313873507082462, -0.15061956644058228, -0.02010219544172287, -0.02228122018277645, -0.002759209368377924, 1.0022566318511963, -90.36195373535156, -10.104413986206055, -1.7339403629302979, 0.0, 0.0, 0.0, 0, 0, 0, 0, 0, 0, -90.41999816894531, -10.111519813537598, -1.7352126836776733
222785, 0.051858700811862946, -0.18389050662517548, 0.06443003565073013, -0.011837754398584366, -0.1307864934206009, 0.10471229255199432, -0.02134043164551258, -0.002327039372175932, 1.0005956888198853, -90.41999816894531, -10.111519813537598, -1.7352126836776733, 0.0, 0.0, 0.0, 0, 0, 0, 0, 0, 0, -90.47806549072266, -10.118629455566406, -1.7364833354949951
222795, 0.05072714388370514, -0.18585039675235748, 0.06634027510881424, -0.18247470259666443, 0.14792922139167786, 0.14512225985527039, -0.02078305557370186, -0.0034183014649897814, 0.9999368190765381, -90.47806549072266, -10.118629455566406, -1.7364833354949951, 0.0, 0.0, 0.0, 0, 0, 0, 0, 0, 0, -90.53614807128906, -10.12574291229248, -1.7377533912658691
222805, 0.05159381404519081, -0.187106192111969, 0.06743740290403366, 0.19507548213005066, 0.10207085311412811, 0.05032987520098686, -0.02379627525806427, -0.0016045757802203298, 0.999902069568634, -90.53614807128906, -10.12574291229248, -1.7377533912658691, 0.0, 0.0, 0.0, 0, 0, 0, 0, 0, 0, -90.59425354003906, -10.13286018371582, -1.7390235662460327
222815, 0.05137065798044205, -0.1875605583190918, 0.06726931035518646, 0.0040728203020989895, 0.11406844109296799, -0.011066552251577377, -0.022847233340144157, -0.0017458242364227772, 0.9992126822471619, -90.59425354003906, -10.13286018371582, -1.7390235662460327, 0.0, 0.0, 0.0, 0, 0, 0, 0, 0, 0, -90.65237426757812, -10.139979362487793, -1.7402944564819336
222825, 0.05136256292462349, -0.19102485477924347, 0.06799063086509705, 0.004316032398492098, 0.401845246553421, 0.10336997359991074, -0.019953129813075066, -0.0003157700411975384, 0.9989362955093384, -90.65237426757812, -10.139979362487793, -1.7402944564819336, 0.0, 0.0, 0.0, 0, 0, 0, 0, 0, 0, -90.71051788330078, -10.147101402282715, -1.7415663003921509
222835, 0.05127033591270447, -0.1904800832271576, 0.0668708086013794, -0.011186045594513416, 0.028146812692284584, -0.05705483630299568, -0.02033879980444908, -0.00012319952656980604, 1.000386118888855, -90.71051788330078, -10.147101402282715, -1.7415663003921509, 0.0, 0.0, 0.0, 0, 0, 0, 0, 0, 0, -90.7686767578125, -10.154224395751953, -1.742838740348816
222845, 0.05164652317762375, -0.1890105903148651, 0.06647688895463943, -0.04476865381002426, -0.17078442871570587, -0.005521394778043032, -0.021659675985574722, -0.00183833425398916, 0.9999584555625916, -90.7686767578125, -10.154224395751953, -1.742838740348816, 0.0, 0.0, 0.0, 0, 0, 0, 0, 0, 0, -90.82685089111328, -10.161349296569824, -1.744111180305481
222855, 0.05129611864686012, -0.18802443146705627, 0.06572920829057693, 0.0652964785695076, -0.18737095594406128, 0.0002972683578263968, -0.022303486242890358, -0.0022728140465915203, 0.9989171028137207, -90.82685089111328, -10.161349296569824, -1.744111180305481, 0.0, 0.0, 0.0, 0, 0, 0, 0, 0, 0, -90.88504028320312, -10.168477058410645, -1.7453839778900146
222865, 0.051003169268369675, -0.18864449858665466, 0.06546284258365631, -0.02687736228108406, -0.09192561358213425, -0.017004039138555527, -0.02070208638906479, -0.00011847336281789467, 0.9999024271965027, -90.88504028320312, -10.168477058410645, -1.7453839778900146, 0.0, 0.0, 0.0, 0, 0, 0, 0, 0, 0, -90.9490737915039, -10.176319122314453, -1.7467849254608154
222875, 0.05142337828874588, -0.1908147782087326, 0.06458450108766556, 0.17330095171928406, 0.17349624633789062, -0.0877511277794838, -0.019992083311080933, -0.0017145484453067183, 1.000514268875122, -90.9490737915039, -10.176319122314453, -1.7467849254608154, 0.0, 0.0, 0.0, 0, 0, 0, 0, 0, 0, -91.0073013305664, -10.183450698852539, -1.7480586767196655
222885, 0.05018555745482445, -0.19340308010578156, 0.06392280012369156, -0.11708275973796844, 0.3482009470462799, -0.06855951994657516, -0.020634740591049194, -0.0031378616113215685, 0.998268187046051, -91.0073013305664, -10.183450698852539, -1.7480586767196655, 0.0, 0.0, 0.0, 0, 0, 0, 0, 0, 0, -91.06554412841797, -10.190585136413574, -1.7493330240249634
222895, 0.049430180341005325, -0.19567163288593292, 0.06435935199260712, -0.06608165055513382, 0.30356213450431824, 0.07661532610654831, -0.02174973301589489, -0.0001829401298891753, 1.0005407333374023, -91.06554412841797, -10.190585136413574, -1.7493330240249634, 0.0, 0.0, 0.0, 0, 0, 0, 0, 0, 0, -91.06554412841797, -10.190585136413574, -1.7493330240249634
222905, 0.04906267300248146, -0.19529661536216736, 0.06381548196077347, 0.017898699268698692, -0.06956469267606735, -0.13186445832252502, -0.024865364655852318, -0.0001549409789731726, 1.000711441040039, -91.12380981445312, -10.197722434997559, -1.7506080865859985, 0.0, 0.0, 0.0, 0, 0, 0, 0, 0, 0, -91.12380981445312, -10.197722434997559, -1.7506080865859985
222915, 0.0506223663687706, -0.19306758046150208, 0.06353713572025299, 0.3029178977012634, -0.33496102690696716, -0.06196991726756096, -0.02373030222952366, -0.0012912449892610312, 1.0013197660446167, -91.18209075927734, -10.20486068725586, -1.7518829107284546, 0.0, 0.0, 0.0, 0, 0, 0, 0, 0, 0, -91.18209075927734, -10.20486068725586, -1.7518829107284546
222925, 0.04990098252892494, -0.19416029751300812, 0.06329639256000519, -0.03705492988228798, 0.1483750194311142, 0.05775873363018036, -0.0227715652436018, -0.002919916296377778, 0.9999813437461853, -91.24039459228516, -10.211999893188477, -1.7531569004058838, 0.0, 0.0, 0.0, 0, 0, 0, 0, 0, 0, -91.24039459228516, -10.211999893188477, -1.7531569004058838
222935, 0.050050683319568634, -0.19416314363479614, 0.065299853682518, 0.10973750054836273, 0.036175720393657684, 0.40199920535087585, -0.0234542116522789, -0.0032140309922397137, 0.9998453259468079, -91.29871368408203, -10.219141960144043, -1.7544304132461548, 0.0, 0.0, 0.0, 0, 0, 0, 0, 0, 0, -91.29871368408203, -10.219141960144043, -1.7544304132461548
222945, 0.05049123242497444, -0.19265346229076385, 0.06542623043060303, 0.11104749888181686, 0.040674638003110886, 0.0904964730143547, -0.022250087931752205, -0.0005849120207130909, 1.0006928443908691, -91.3570556640625, -10.226287841796875, -1.7557040452957153, 0.0, 0.0, 0.0, 0, 0, 0, 0, 0, 0, -91.3570556640625, -10.226287841796875, -1.7557040452957153
222955, 0.05053335428237915, -0.19261042773723602, 0.06430859863758087, 0.13850952684879303, 0.023297583684325218, -0.08049540966749191, -0.02013861946761608, -0.0004786312929354608, 1.0003219842910767, -91.41541290283203, -10.233436584472656, -1.7569775581359863, 0.0, 0.0, 0.0, 0, 0, 0, 0, 0, 0, -91.41541290283203, -10.233436584472656, -1.7569775581359863
222965, 0.049663227051496506, -0.1928081065416336, 0.06473822146654129, -0.006683974992483854, 0.06807320564985275, 0.1043587476015091, -0.021967921406030655, -0.001840109471231699, 1.0017428398132324, -91.47379302978516, -10.240586280822754, -1.7582507133483887, 0.0, 0.0, 0.0, 0, 0, 0, 0, 0, 0, -91.47379302978516, -10.240586280822754, -1.7582507133483887
222975, 0.049969639629125595, -0.19294452667236328, 0.06702710688114166, 0.16511346399784088, -0.01645965687930584, 0.4029042422771454, -0.02388482727110386, -0.0037044654600322247, 0.9980661869049072, -91.53218841552734, -10.247737884521484, -1.7595233917236328, 0.0, 0.0, 0.0, 0, 0, 0, 0, 0, 0, -91.53218841552734, -10.247737884521484, -1.7595233917236328
222985, 0.04987429827451706, -0.19375677406787872, 0.06751863658428192, 0.020131563767790794, 0.3505198061466217, -0.05772870406508446, -0.01992080733180046, -0.0014816733309999108, 0.9978916049003601, -91.5905990600586, -10.25489330291748, -1.7607965469360352, 0.0, 0.0, 0.0, 0, 0, 0, 0, 0, 0, -91.5905990600586, -10.25489330291748, -1.7607965469360352
222995, 0.05004919320344925, -0.19279322028160095, 0.06692513078451157, 0.021239502355456352, -0.08539724349975586, -0.179833322763443, -0.019479768350720406, -0.0013179071247577667, 0.9996013641357422, -91.64903259277344, -10.262051582336426, -1.7620716094970703, 0.0, 0.0, 0.0, 0, 0, 0, 0, 0, 0, -91.64903259277344, -10.262051582336426, -1.7620716094970703
223005, 0.05038640648126602, -0.19394929707050323, 0.06762050092220306, 0.09112019836902618, 0.11352841556072235, 0.1955118179321289, -0.021838504821062088, -0.005210379138588905, 0.9995774030685425, -91.70748138427734, -10.26921272277832, -1.7633479833602905, 0.0, 0.0, 0.0, 0, 0, 0, 0, 0, 0, -91.70748138427734, -10.26921272277832, -1.7633479833602905
223015, 0.050404105335474014, -0.1960301697254181, 0.06744290143251419, -0.007148871198296547, 0.3283943235874176, -0.14508016407489777, -0.022795382887125015, -0.004118237178772688, 0.9984865784645081, -91.76594543457031, -10.27637767791748, -1.764624834060669, 0.0, 0.0, 0.0, 0, 0, 0, 0, 0, 0, -91.76594543457031, -10.27637767791748, -1.764624834060669
223025, 0.05011171102523804, -0.19591490924358368, 0.06602391600608826, 0.08236795663833618, -0.07758665829896927, -0.21156708896160126, -0.021020639687776566, -0.0027905579190701246, 0.9995760917663574, -91.82443237304688, -10.283547401428223, -1.7659026384353638, 0.0, 0.0, 0.0, 0, 0, 0, 0, 0, 0, -91.82443237304688, -10.283547401428223, -1.7659026384353638
223035, 0.049156829714775085, -0.19709283113479614, 0.06642837822437286, -0.07402700930833817, 0.009255506098270416, 0.05021035298705101, -0.02189781330525875, -6.004038732498884e-05, 1.0006294250488281, -91.8829345703125, -10.290721893310547, -1.7671815156936646, 0.0, 0.0, 0.0, 0, 0, 0, 0, 0, 0, -91.8829345703125, -10.290721893310547, -1.7671815156936646
223045, 0.05065057426691055, -0.19593460857868195, 0.06676748394966125, 0.26106196641921997, -0.14267361164093018, 0.007647440303117037, -0.022074338048696518, -0.0005935801891610026, 0.9981820583343506, -91.94145202636719, -10.297898292541504, -1.7684602737426758, 0.0, 0.0, 0.0, 0, 0, 0, 0, 0, 0, -91.94145202636719, -10.297898292541504, -1.7684602737426758
223055, 0.05163612961769104, -0.19675883650779724, 0.06800756603479385, 0.20364564657211304, 0.041138146072626114, 0.19765858352184296, -0.0204873476177454, -0.0011598631972447038, 0.9985877275466919, -91.99999237060547, -10.305076599121094, -1.7697395086288452, 0.0, 0.0, 0.0, 0, 0, 0, 0, 0, 0, -91.99999237060547, -10.305076599121094, -1.7697395086288452
223065, 0.05088018253445625, -0.19517260789871216, 0.06577505171298981, -0.13768646121025085, -0.16724282503128052, -0.20822279155254364, -0.020192960277199745, -0.0011578340781852603, 0.9968591332435608, -92.05854797363281, -10.312255859375, -1.7710202932357788, 0.0, 0.0, 0.0, 0, 0, 0, 0, 0, 0, -92.05854797363281, -10.312255859375, -1.7710202932357788
223075, 0.05058884993195534, -0.19487795233726501, 0.0669446811079979, -0.1177084743976593, 0.04383925721049309, 0.14406602084636688, -0.021666157990694046, -0.0011755030136555433, 0.9967042803764343, -92.11711883544922, -10.319437026977539, -1.7723034620285034, 0.0, 0.0, 0.0, 0, 0, 0, 0, 0, 0, -92.11711883544922, -10.319437026977539, -1.7723034620285034
223085, 0.0507117360830307, -0.1958029866218567, 0.06759975850582123, 0.018367882817983627, 0.2339179664850235, 0.04675256833434105, -0.020658886060118675, -0.0009527686052024364, 0.9974778294563293, -92.17570495605469, -10.326620101928711, -1.773589849472046, 0.0, 0.0, 0.0, 0, 0, 0, 0, 0, 0, -92.17570495605469, -10.326620101928711, -1.773589849472046
223095, 0.05158061161637306, -0.1968025416135788, 0.0676138699054718, 0.18379564583301544, 0.17859627306461334, 0.05948536470532417, -0.021554971113801003, 0.0010877104941755533, 0.9983023405075073, -92.23431396484375, -10.333805084228516, -1.7748792171478271, 0.0, 0.0, 0.0, 0, 0, 0, 0, 0, 0, -92.23431396484375, -10.333805084228516, -1.7748792171478271
223105, 0.051042020320892334, -0.197668194770813, 0.06619415432214737, -0.009034709073603153, 0.08801480382680893, -0.22734853625297546, -0.02279798500239849, -0.0027860875707119703, 1.0006263256072998, -92.29293823242188, -10.34099006652832, -1.7761707305908203, 0.0, 0.0, 0.0, 0, 0, 0, 0, 0, 0, -92.29293823242188, -10.34099006652832, -1.7761707305908203
223115, 0.05055142566561699, -0.1990615576505661, 0.06580697745084763, 0.01842566579580307, 0.13001149892807007, -0.19603465497493744, -0.021916314959526062, 0.0005411801976151764, 0.9990187883377075, -92.35157775878906, -10.348176956176758, -1.7774629592895508, 0.0, 0.0, 0.0, 0, 0, 0, 0, 0, 0, -92.35157775878906, -10.348176956176758, -1.7774629592895508
223125, 0.04981072247028351, -0.19985540211200714, 0.0650564506649971, 0.02394748665392399, -0.0005260124453343451, -0.03526783734560013, -0.01975398138165474, -0.0004363480256870389, 0.9994465112686157, -92.41024017333984, -10.355365753173828, -1.7787556648254395, 0.0, 0.0, 0.0, 0, 0, 0, 0, 0, 0, -92.41024017333984, -10.355365753173828, -1.7787556648254395
223135, 0.04918041080236435, -0.19925418496131897, 0.06420213729143143, -0.05021213740110397, -0.1343383640050888, -0.013815062120556831, -0.020777367055416107, -0.0026034507900476456, 0.99881511926651, -92.46891784667969, -10.362555503845215, -1.780049443244934, 0.0, 0.0, 0.0, 0, 0, 0, 0, 0, 0, -92.46891784667969, -10.362555503845215, -1.780049443244934
223145, 0.04754309356212616, -0.20066416263580322, 0.06344380229711533, -0.1836300790309906, 0.23901844024658203, 0.041756659746170044, -0.020821934565901756, -0.0014691567048430443, 0.999456524848938, -92.5276107788086, -10.369747161865234, -1.7813444137573242, 0.0, 0.0, 0.0, 0, 0, 0, 0, 0, 0, -92.5276107788086, -10.369747161865234, -1.7813444137573242
223155, 0.04786531999707222, -0.1990930736064911, 0.06409014761447906, 0.009693904779851437, -0.04236564785242081, -0.02814054675400257, -0.021896980702877045, -0.000796956941485405, 0.9991300106048584, -92.58631896972656, -10.376941680908203, -1.7826403379440308, 0.0, 0.0, 0.0, 0, 0, 0, 0, 0, 0, -92.58631896972656, -10.376941680908203, -1.7826403379440308
223165, 0.047088976949453354, -0.19907282292842865, 0.06366918236017227, -0.11150860041379929, -0.09993338584899902, -0.02423807792365551, -0.022841963917016983, -0.0013276771642267704, 0.9999299049377441, -92.64505004882812, -10.384138107299805, -1.7839370965957642, 0.0, 0.0, 0.0, 0, 0, 0, 0, 0, 0, -92.64505004882812, -10.384138107299805, -1.7839370965957642
223175, 0.047053344547748566, -0.1984843909740448, 0.06451490521430969, 0.0020004762336611748, -0.012919859029352665, 0.022929444909095764, -0.021780582144856453, -0.0007655358640477061, 0.9999797940254211, -92.70379638671875, -10.391336441040039, -1.7852345705032349, 0.0, 0.0, 0.0, 0, 0, 0, 0, 0, 0, -92.70379638671875, -10.391336441040039, -1.7852345705032349
223185, 0.04763828590512276, -0.20065531134605408, 0.06497938930988312, 0.04221392422914505, 0.37156856060028076, 0.08236251771450043, -0.020324382930994034, -0.0014151525683701038, 0.9989219903945923, -92.76256561279297, -10.398536682128906, -1.7865325212478638, 0.0, 0.0, 0.0, 0, 0, 0, 0, 0, 0, -92.76256561279297, -10.398536682128906, -1.7865325212478638
223195, 0.04722973331809044, -0.20101666450500488, 0.0644206702709198, -0.03224479407072067, -0.05635002627968788, -0.14273035526275635, -0.020510196685791016, -0.0025772671215236187, 0.9986609220504761, -92.82135009765625, -10.405738830566406, -1.78783118724823, 0.0, 0.0, 0.0, 0, 0, 0, 0, 0, 0, -92.82135009765625, -10.405738830566406, -1.78783118724823
223205, 0.04775743931531906, -0.20112955570220947, 0.06514464318752289, -0.0194040946662426, -0.008551886305212975, 0.07402119040489197, -0.022424187511205673, -0.0009508815128356218, 1.000427484512329, -92.8801498413086, -10.412943840026855, -1.7891310453414917, 0.0, 0.0, 0.0, 0, 0, 0, 0, 0, 0, -92.8801498413086, -10.412943840026855, -1.7891310453414917
223215, 0.048020076006650925, -0.19980117678642273, 0.06466741859912872, -0.006742944475263357, -0.0025149942375719547, 0.10753647238016129, -0.02368009462952614, -0.001536414842121303, 0.9992316961288452, -92.93896484375, -10.420150756835938, -1.7904316186904907, 0.0, 0.0, 0.0, 0, 0, 0, 0, 0, 0, -92.93896484375, -10.420150756835938, -1.7904316186904907
223225, 0.04766800254583359, -0.19816553592681885, 0.06402958929538727, -0.15577387809753418, -0.22153665125370026, 0.04576190188527107, -0.02331165410578251, -0.0006920699961483479, 1.0002626180648804, -92.997802734375, -10.427359580993652, -1.7917324304580688, 0.0, 0.0, 0.0, 0, 0, 0, 0, 0, 0, -92.997802734375, -10.427359580993652, -1.7917324304580688
223235, 0.04746174439787865, -0.19675780832767487, 0.06220604479312897, -0.07920657098293304, -0.07871977239847183, -0.24028466641902924, -0.023594176396727562, 0.00013258492981549352, 0.9973440170288086, -93.05665588378906, -10.4345703125, -1.7930335998535156, 0.0, 0.0, 0.0, 0, 0, 0, 0, 0, 0, -93.05665588378906, -10.4345703125, -1.7930335998535156
223245, 0.04759756475687027, -0.19834846258163452, 0.06234266236424446, 0.017991364002227783, 0.35433757305145264, -0.04873773083090782, -0.022412527352571487, -0.0020451913587749004, 0.9985859990119934, -93.11553192138672, -10.44178295135498, -1.794335961341858, 0.0, 0.0, 0.0, 0, 0, 0, 0, 0, 0, -93.11553192138672, -10.44178295135498, -1.794335961341858
223255, 0.047937847673892975, -0.19887517392635345, 0.06379520893096924, 0.03927212953567505, 0.1643952578306198, 0.27203983068466187, -0.022701624780893326, -0.0018060136353597045, 0.9992064237594604, -93.17443084716797, -10.448996543884277, -1.7956403493881226, 0.0, 0.0, 0.0, 0, 0, 0, 0, 0, 0, -93.17443084716797, -10.448996543884277, -1.7956403493881226
223265, 0.04805739223957062, -0.19704265892505646, 0.0648622140288353, 0.04104897007346153, -0.12881137430667877, 0.25423964858055115, -0.02059902809560299, -0.0008229503291659057, 0.9988766312599182, -93.23334503173828, -10.456212997436523, -1.7969462871551514, 0.0, 0.0, 0.0, 0, 0, 0, 0, 0, 0, -93.23334503173828, -10.456212997436523, -1.7969462871551514
223275, 0.04814152792096138, -0.19791996479034424, 0.06388121843338013, 0.08549658209085464, 0.06947840005159378, -0.18429230153560638, -0.02110462449491024, -0.001368316006846726, 1.0015976428985596, -93.29227447509766, -10.463431358337402, -1.7982532978057861, 0.0, 0.0, 0.0, 0, 0, 0, 0, 0, 0, -93.29227447509766, -10.463431358337402, -1.7982532978057861
223285, 0.04815163463354111, -0.2005448341369629, 0.06435900181531906, 0.03341815993189812, 0.31128403544425964, 0.25433996319770813, -0.021881500259041786, -0.002446817234158516, 1.001172423362732, -93.35122680664062, -10.470651626586914, -1.7995604276657104, 0.0, 0.0, 0.0, 0, 0, 0, 0, 0, 0, -93.35122680664062, -10.470651626586914, -1.7995604276657104
223295, 0.04787377268075943, -0.20035326480865479, 0.06241850554943085, -0.10734814405441284, 0.03352901712059975, -0.2872639298439026, -0.02014588750898838, -0.0020562931895256042, 1.0016534328460693, -93.41019439697266, -10.477873802185059, -1.800866723060608, 0.0, 0.0, 0.0, 0, 0, 0, 0, 0, 0, -93.41019439697266, -10.477873802185059, -1.800866723060608
223305, 0.04837571829557419, -0.19819991290569305, 0.0628066137433052, 0.06779803335666656, -0.20157232880592346, 0.07564378529787064, -0.021288888528943062, -0.0016765431500971317, 1.0006271600723267, -93.46917724609375, -10.485099792480469, -1.8021719455718994, 0.0, 0.0, 0.0, 0, 0, 0, 0, 0, 0, -93.46917724609375, -10.485099792480469, -1.8021719455718994
223315, 0.04772818088531494, -0.20006811618804932, 0.06340222805738449, -0.06879203021526337, 0.3245283365249634, -0.03547748923301697, -0.02207072824239731, -0.0014405872207134962, 0.9992961883544922, -93.5281753540039, -10.492328643798828, -1.803476333618164, 0.0, 0.0, 0.0, 0, 0, 0, 0, 0, 0, -93.5281753540039, -10.492328643798828, -1.803476333618164
223325, 0.04831695556640625, -0.19886605441570282, 0.06413444876670837, 0.013486404903233051, -0.16866397857666016, 0.006165890954434872, -0.02395632676780224, -0.002951731439679861, 0.9995452761650085, -93.58719635009766, -10.49955940246582, -1.8047807216644287, 0.0, 0.0, 0.0, 0, 0, 0, 0, 0, 0, -93.58719635009766, -10.49955940246582, -1.8047807216644287
223335, 0.048717278987169266, -0.1977776736021042, 0.0633268654346466, 0.057726211845874786, -0.046228960156440735, -0.17947833240032196, -0.02138492651283741, -0.002612524200230837, 0.9990484714508057, -93.64623260498047, -10.506793975830078, -1.8060857057571411, 0.0, 0.0, 0.0, 0, 0, 0, 0, 0, 0, -93.64623260498047, -10.506793975830078, -1.8060857057571411
223345, 0.049213942140340805, -0.19803400337696075, 0.06448713690042496, 0.07669103145599365, -0.03623438626527786, 0.0991811752319336, -0.021471437066793442, -0.0019409939413890243, 0.9986328482627869, -93.70529174804688, -10.514031410217285, -1.8073915243148804, 0.0, 0.0, 0.0, 0, 0, 0, 0, 0, 0, -93.70529174804688, -10.514031410217285, -1.8073915243148804
223355, 0.047629229724407196, -0.20076408982276917, 0.06573443114757538, -0.2008107602596283, 0.34132909774780273, 0.16019697487354279, -0.021631300449371338, -0.0025401937309652567, 1.00154447555542, -93.76436614990234, -10.521271705627441, -1.8086987733840942, 0.0, 0.0, 0.0, 0, 0, 0, 0, 0, 0, -93.76436614990234, -10.521271705627441, -1.8086987733840942
223365, 0.0475267730653286, -0.2008967101573944, 0.06532612442970276, -0.07391181588172913, 0.03611515462398529, -0.08928129822015762, -0.021748332306742668, 0.0008344300440512598, 0.9997099041938782, -93.82345581054688, -10.528514862060547, -1.8100061416625977, 0.0, 0.0, 0.0, 0, 0, 0, 0, 0, 0, -93.82345581054688, -10.528514862060547, -1.8100061416625977
223375, 0.04776336997747421, -0.2002476453781128, 0.06465231627225876, 0.0008119775447994471, -0.05311230197548866, -0.021398194134235382, -0.021936150267720222, -0.0011991368373855948, 0.999160885810852, -93.882568359375, -10.535759925842285, -1.8113130331039429, 0.0, 0.0, 0.0, 0, 0, 0, 0, 0, 0, -93.882568359375, -10.535759925842285, -1.8113130331039429
223385, 0.04647200554609299, -0.20080144703388214, 0.0642121285200119, -0.13458512723445892, 0.19377566874027252, 0.07042323797941208, -0.02146543562412262, -0.0030249140691012144, 0.9965115189552307, -93.94169616699219, -10.54300594329834, -1.8126206398010254, 0.0, 0.0, 0.0, 0, 0, 0, 0, 0, 0, -93.94169616699219, -10.54300594329834, -1.8126206398010254
223395, 0.04702034965157509, -0.20083653926849365, 0.06320042163133621, 0.13830892741680145, 0.08590825647115707, -0.09090963751077652, -0.021469388157129288, -0.0013345996849238873, 1.0002089738845825, -94.00083923339844, -10.550253868103027, -1.8139303922653198, 0.0, 0.0, 0.0, 0, 0, 0, 0, 0, 0, -94.00083923339844, -10.550253868103027, -1.8139303922653198
223405, 0.04677591472864151, -0.19933180510997772, 0.06223740056157112, -0.002221505157649517, -0.11223045736551285, -0.2336275279521942, -0.02161586470901966, -0.002259321277961135, 0.999546468257904, -94.06000518798828, -10.557504653930664, -1.8152419328689575, 0.0, 0.0, 0.0, 0, 0, 0, 0, 0, 0, -94.06000518798828, -10.557504653930664, -1.8152419328689575
223415, 0.04599629342556, -0.20112818479537964, 0.06253448873758316, 0.021306850016117096, 0.18733881413936615, 0.02612289972603321, -0.021044278517365456, -0.003002420999109745, 0.9997560977935791, -94.11918640136719, -10.56475830078125, -1.8165539503097534, 0.0, 0.0, 0.0, 0, 0, 0, 0, 0, 0, -94.11918640136719, -10.56475830078125, -1.8165539503097534
223425, 0.045395057648420334, -0.20373524725437164, 0.06423646211624146, -0.04606408625841141, 0.28907206654548645, 0.24882225692272186, -0.020714718848466873, -0.0034236640203744173, 1.0009338855743408, -94.17838287353516, -10.572014808654785, -1.8178660869598389, 0.0, 0.0, 0.0, 0, 0, 0, 0, 0, 0, -94.17838287353516, -10.572014808654785, -1.8178660869598389
223435, 0.04454460367560387, -0.20241457223892212, 0.06392394751310349, -0.06528487056493759, -0.09490728378295898, -0.03232409432530403, -0.021827563643455505, -0.004010649863630533, 1.0028409957885742, -94.23760223388672, -10.579275131225586, -1.8191779851913452, 0.0, 0.0, 0.0, 0, 0, 0, 0, 0, 0, -94.23760223388672, -10.579275131225586, -1.8191779851913452
223445, 0.04507357254624367, -0.20113001763820648, 0.06577636301517487, 0.08896040916442871, -0.06812352687120438, 0.21392638981342316, -0.021632598713040352, -0.0038616061210632324, 0.9987570643424988, -94.29683685302734, -10.586540222167969, -1.820488452911377, 0.0, 0.0, 0.0, 0, 0, 0, 0, 0, 0, -94.29683685302734, -10.586540222167969, -1.820488452911377
223455, 0.044634778052568436, -0.2019362598657608, 0.06630832701921463, -0.10414446890354156, 0.10694988816976547, 0.0424148254096508, -0.02322271652519703, -0.002764100208878517, 0.9986929893493652, -94.35608673095703, -10.593810081481934, -1.8217982053756714, 0.0, 0.0, 0.0, 0, 0, 0, 0, 0, 0, -94.35608673095703, -10.593810081481934, -1.8217982053756714
223465, 0.04546264559030533, -0.20115551352500916, 0.06626807153224945, 0.19335560500621796, -0.12611202895641327, 0.06976323574781418, -0.02257433347404003, -0.0026262758765369654, 0.9988680481910706, -94.41535949707031, -10.601083755493164, -1.8231092691421509, 0.0, 0.0, 0.0, 0, 0, 0, 0, 0, 0, -94.41535949707031, -10.601083755493164, -1.8231092691421509
223475, 0.046165332198143005, -0.20290875434875488, 0.06737851351499557, 0.08005475252866745, 0.3319351375102997, 0.2825223505496979, -0.023185549303889275, -0.0014627553755417466, 0.9990504384040833, -94.47464752197266, -10.60836124420166, -1.8244218826293945, 0.0, 0.0, 0.0, 0.18188421428203583, 0.12627361714839935, 0.02780264988541603, 3.001370051776304, -0.010278139644125935, -0.1458311289154608, -94.47464752197266, -10.60836124420166, -1.8244218826293945
223485, 0.0461035817861557, -0.2027929574251175, 0.06815624982118607, -0.05962907522916794, -0.056061480194330215, 0.185034841299057, -0.022121863439679146, -0.000571397366002202, 1.0011342763900757, -94.5339584350586, -10.615641593933105, -1.8257355690002441, 0.0, 0.0, 0.0, 0.1818367838859558, 0.12643617391586304, 0.0279336366802454, 2.897702213808085, -0.36507738717533084, -0.323640420525777, -94.5339584350586, -10.615641593933105, -1.8257355690002441
223495, 0.04597702622413635, -0.20339393615722656, 0.0693325623869896, -0.01912032812833786, 0.01592317968606949, 0.265461802482605, -0.020701060071587563, -0.0012018554843962193, 0.9986211657524109, -94.5932846069336, -10.622923851013184, -1.8270493745803833, 0.0, 0.0, 0.0, 0.18182845413684845, 0.12642619013786316, 0.027982058003544807, 2.879198289578832, -0.41201445490525135, -0.3208118698730118, -94.5932846069336, -10.622923851013184, -1.8270493745803833
223505, 0.04525492340326309, -0.2043328434228897, 0.06940468400716782, -0.09978877753019333, 0.08738860487937927, 0.04613529145717621, -0.024317815899848938, -6.5214899223065e-06, 0.9977978467941284, -94.65262603759766, -10.630207061767578, -1.8283634185791016, 0.0, 0.0, 0.0, 0.18175943195819855, 0.12635928392410278, 0.028241751715540886, 2.8371432426783856, -0.61319725948818, -0.5483116428751487, -94.65262603759766, -10.630207061767578, -1.8283634185791016
223515, 0.045601338148117065, -0.20449231564998627, 0.0696374848484993, 0.02901064231991768, 0.052828386425971985, 0.0037061942275613546, -0.023030640557408333, -0.003037670161575079, 0.9972909688949585, -94.71199035644531, -10.637492179870605, -1.829679012298584, 0.0, 0.0, 0.0, 0.18189166486263275, 0.12627726793289185, 0.027788246050477028, 2.9872852430062986, 0.013681864608325099, -0.14565888310633568, -94.71199035644531, -10.637492179870605, -1.829679012298584
