timeTick, roll, pitch, yaw, gyroX, gyroY, gyroZ, accX, accY, accZ, stateX, stateY, stateZ, target_x, target_y, target_z, otX, otY, otZ, otRoll, otPitch, otYaw, kalX, kalY, kalZ
33479, 0.0811062902212143, -0.08284461498260498, 0.05570019781589508, 0, 0, 0, 0, 0, 0, 0, 0, 0, 0, 0, 0, 0, 0, 0, 0, 0, 0, 0, 0, 0
33489, 0.08032495528459549, -0.086739681661129, 0.055663008242845535, -0.02980676479637623, 0.6365455985069275, 0.08300357311964035, 0.00019880211038980633, -0.0028757748659700155, 0.9981284737586975, 0.059427410364151, -19.24790382385254, -0.20845244824886322, 0.0, 0.0, 0.0, 0, 0, 0, 0, 0, 0, 0.0600760318338871, -19.260953903198242, -0.20857290923595428
33499, 0.07913146913051605, -0.08434426039457321, 0.055303264409303665, -0.28429916501045227, -0.3084567189216614, 0.02237086370587349, -0.0007059891941025853, -0.0032362656202167273, 1.0008174180984497, 0.0600760318338871, -19.260953903198242, -0.20857290923595428, 0.0, 0.0, 0.0, 0, 0, 0, 0, 0, 0, 0.06072598323225975, -19.274009704589844, -0.20869404077529907
33509, 0.07931876927614212, -0.08557240664958954, 0.056589674204587936, 0.059196069836616516, 0.13990406692028046, 0.20596100389957428, 7.238633406814188e-05, -0.003928229212760925, 1.0016251802444458, 0.06072598323225975, -19.274009704589844, -0.20869404077529907, 0.0, 0.0, 0.0, 0, 0, 0, 0, 0, 0, 0.06137728691101074, -19.28706932067871, -0.20881438255310059
33519, 0.07985052466392517, -0.08675842732191086, 0.05607639625668526, 0.06914036720991135, 0.16693167388439178, 0.06925765424966812, 0.0010425050277262926, -0.003067868761718273, 0.9988895058631897, 0.06137728691101074, -19.28706932067871, -0.20881438255310059, 0.0, 0.0, 0.0, 0, 0, 0, 0, 0, 0, 0.062030524015426636, -19.300134658813477, -0.2089339643716812
33529, 0.07975833863019943, -0.08441556990146637, 0.05489927530288696, -0.12040457874536514, -0.3830634355545044, -0.17695830762386322, 0.0004573366604745388, -0.002323469379916787, 0.9999935030937195, 0.062030524015426636, -19.300134658813477, -0.2089339643716812, 0.0, 0.0, 0.0, 0, 0, 0, 0, 0, 0, 0.0626860037446022, -19.313203811645508, -0.20905408263206482
33539, 0.0797814205288887, -0.08679930865764618, 0.055766209959983826, 0.11992359161376953, 0.3636895716190338, -0.010706497356295586, -0.0010982344392687082, -0.0021799635142087936, 1.0001537799835205, 0.0626860037446022, -19.313203811645508, -0.20905408263206482, 0.0, 0.0, 0.0, 0, 0, 0, 0, 0, 0, 0.06334321945905685, -19.326276779174805, -0.20917412638664246
33549, 0.07803138345479965, -0.08811017125844955, 0.056126076728105545, -0.268950492143631, 0.05449787154793739, -0.1429828405380249, -0.00010759977885754779, -0.0034283287823200226, 1.0013655424118042, 0.06334321945905685, -19.326276779174805, -0.20917412638664246, 0.0, 0.0, 0.0, 0, 0, 0, 0, 0, 0, 0.06400161981582642, -19.339353561401367, -0.20929332077503204
33559, 0.07693743705749512, -0.0885087177157402, 0.055860377848148346, -0.08930491656064987, 0.1094406321644783, 0.09383915364742279, -0.0006937425932846963, -0.0012342926347628236, 0.9997830986976624, 0.06400161981582642, -19.339353561401367, -0.20929332077503204, 0.0, 0.0, 0.0, 0, 0, 0, 0, 0, 0, 0.0646609514951706, -19.352434158325195, -0.20941171050071716
33569, 0.07740543782711029, -0.08992452174425125, 0.05512945353984833, 0.12421204894781113, 0.3220047652721405, -0.30718448758125305, 0.0017500993562862277, -0.0027563776820898056, 0.9982454180717468, 0.0646609514951706, -19.352434158325195, -0.20941171050071716, 0.0, 0.0, 0.0, 0, 0, 0, 0, 0, 0, 0.06532204896211624, -19.36551856994629, -0.20953023433685303
33579, 0.07705666124820709, -0.09087302535772324, 0.05425889045000076, -0.25053468346595764, 0.08370921015739441, -0.2088489681482315, -0.0013914922019466758, -0.0036753106396645308, 0.9996827244758606, 0.06532204896211624, -19.36551856994629, -0.20953023433685303, 0.0, 0.0, 0.0, 0, 0, 0, 0, 0, 0, 0.06598532944917679, -19.37860679626465, -0.2096499353647232
33589, 0.07774626463651657, -0.0892353430390358, 0.054599639028310776, 0.17086932063102722, -0.04275015741586685, 0.023489022627472878, -0.0037864528130739927, -0.005711479112505913, 0.9999902248382568, 0.06598532944917679, -19.37860679626465, -0.2096499353647232, 0.0, 0.0, 0.0, 0, 0, 0, 0, 0, 0, 0.06664857268333435, -19.391698837280273, -0.209770068526268
33599, 0.07735756784677505, -0.09012166410684586, 0.05447235330939293, 0.03899751976132393, 0.17410901188850403, -0.03180650249123573, -0.0007945587276481092, -0.003986248280853033, 0.9993131160736084, 0.06664857268333435, -19.391698837280273, -0.209770068526268, 0.0, 0.0, 0.0, 0, 0, 0, 0, 0, 0, 0.06731069087982178, -19.40479850769043, -0.20989033579826355
33609, 0.07696116715669632, -0.09004891663789749, 0.053145069628953934, -0.06509211659431458, 0.039072439074516296, -0.08276262134313583, -0.002079256810247898, -0.0040572695434093475, 0.9996830821037292, 0.06731069087982178, -19.40479850769043, -0.20989033579826355, 0.0, 0.0, 0.0, 0, 0, 0, 0, 0, 0, 0.06797260046005249, -19.417903900146484, -0.21001121401786804
33619, 0.07719294726848602, -0.09212125092744827, 0.052512217313051224, 0.07693065702915192, 0.29454779624938965, -0.08027292042970657, -0.0016659633256495, -0.0038485489785671234, 1.0026158094406128, 0.06797260046005249, -19.417903900146484, -0.21001121401786804, 0.0, 0.0, 0.0, 0, 0, 0, 0, 0, 0, 0.06863467395305634, -19.431013107299805, -0.21013157069683075
33629, 0.07871714234352112, -0.09158169478178024, 0.05277896672487259, 0.09215163439512253, -0.08341795951128006, -0.023019669577479362, -0.0003562488709576428, -0.00250648008659482, 1.0036677122116089, 0.06863467395305634, -19.431013107299805, -0.21013157069683075, 0.0, 0.0, 0.0, 0, 0, 0, 0, 0, 0, 0.06929729133844376, -19.444128036499023, -0.21024957299232483
33639, 0.0796343982219696, -0.09106183797121048, 0.053451571613550186, 0.1858581155538559, -0.15429449081420898, -0.0321456715464592, -0.00044563107076101005, -0.0023413565941154957, 1.0000245571136475, 0.06929729133844376, -19.444128036499023, -0.21024957299232483, 0.0, 0.0, 0.0, 0, 0, 0, 0, 0, 0, 0.06996104121208191, -19.457246780395508, -0.21036534011363983
33649, 0.08071596920490265, -0.09015176445245743, 0.05326239764690399, 0.2530743181705475, -0.06273113191127777, -0.24782811105251312, 0.00038831846904940903, -0.0030483873561024666, 1.0000804662704468, 0.06996104121208191, -19.457246780395508, -0.21036534011363983, 0.0, 0.0, 0.0, 0, 0, 0, 0, 0, 0, 0.06996104121208191, -19.457246780395508, -0.21036534011363983
33659, 0.08166845142841339, -0.08882502466440201, 0.05341523513197899, 0.1024942696094513, -0.20410369336605072, 0.06841256469488144, -0.002692663110792637, -0.0030446273740381002, 1.0010266304016113, 0.07069308310747147, -19.471681594848633, -0.2104920744895935, 0.0, 0.0, 0.0, 0, 0, 0, 0, 0, 0, 0.07069308310747147, -19.471681594848633, -0.2104920744895935
33669, 0.08297231048345566, -0.08968434482812881, 0.0539107583463192, 0.23383118212223053, 0.14475582540035248, 0.19315670430660248, -0.001660574460402131, -0.00423214677721262, 1.0022847652435303, 0.07142600417137146, -19.486122131347656, -0.2106183022260666, 0.0, 0.0, 0.0, 0, 0, 0, 0, 0, 0, 0.07142600417137146, -19.486122131347656, -0.2106183022260666
33679, 0.082753986120224, -0.08997678011655807, 0.05478338152170181, 0.016090642660856247, 0.004864156246185303, 0.09927998483181, -0.0021322595421224833, -0.0034250870812684298, 1.000799298286438, 0.07209183275699615, -19.49925422668457, -0.2107313573360443, 0.0, 0.0, 0.0, 0, 0, 0, 0, 0, 0, 0.07209183275699615, -19.49925422668457, -0.2107313573360443
33689, 0.08221011608839035, -0.09139654040336609, 0.05398568883538246, 0.02524997666478157, 0.2562427222728729, -0.11312597990036011, -0.001201142556965351, -0.002253893529996276, 1.0004466772079468, 0.07275731861591339, -19.512392044067383, -0.2108428180217743, 0.0, 0.0, 0.0, 0, 0, 0, 0, 0, 0, 0.07275731861591339, -19.512392044067383, -0.2108428180217743
33699, 0.08275730162858963, -0.0924450233578682, 0.053605012595653534, 0.05317486822605133, 0.06280185282230377, -0.160704106092453, -0.0002909866743721068, -0.0038166658487170935, 1.0015556812286377, 0.07342279702425003, -19.52553367614746, -0.21095356345176697, 0.0, 0.0, 0.0, 0, 0, 0, 0, 0, 0, 0.07342279702425003, -19.52553367614746, -0.21095356345176697
33709, 0.08274191617965698, -0.09390412271022797, 0.0538712814450264, -0.009170991368591785, 0.11074081063270569, 0.06456950306892395, 0.0005537776742130518, -0.0016902852803468704, 0.9993162751197815, 0.07408900558948517, -19.538679122924805, -0.2110634595155716, 0.0, 0.0, 0.0, 0, 0, 0, 0, 0, 0, 0.07408900558948517, -19.538679122924805, -0.2110634595155716
33719, 0.08255179226398468, -0.09527426213026047, 0.05418570712208748, 0.07571011036634445, 0.06894140690565109, 0.04133233428001404, 0.00027539118309505284, -0.0004060249775648117, 1.000972032546997, 0.07475696504116058, -19.551828384399414, -0.21117278933525085, 0.0, 0.0, 0.0, 0, 0, 0, 0, 0, 0, 0.07475696504116058, -19.551828384399414, -0.21117278933525085
33729, 0.08205354958772659, -0.0943395271897316, 0.05375217646360397, -0.07161857187747955, -0.12699586153030396, 0.07907061278820038, -0.0010452455608174205, 0.0009538697777315974, 1.0001486539840698, 0.07542698085308075, -19.56498146057129, -0.21128174662590027, 0.0, 0.0, 0.0, 0, 0, 0, 0, 0, 0, 0.07542698085308075, -19.56498146057129, -0.21128174662590027
33739, 0.08112875372171402, -0.09453676640987396, 0.05271856486797333, -0.07392415404319763, 0.12431100010871887, 0.040727730840444565, -0.0007532143499702215, -0.0031649835873395205, 0.9994856715202332, 0.07609812915325165, -19.578136444091797, -0.21139009296894073, 0.0, 0.0, 0.0, 0, 0, 0, 0, 0, 0, 0.07609812915325165, -19.578136444091797, -0.21139009296894073
33749, 0.08189582824707031, -0.09529583156108856, 0.052755288779735565, 0.13736075162887573, 0.14136633276939392, -0.054423194378614426, 0.00169329100754112, -0.0022541051730513573, 0.999795138835907, 0.0767698734998703, -19.591293334960938, -0.21149827539920807, 0.0, 0.0, 0.0, 0, 0, 0, 0, 0, 0, 0.0767698734998703, -19.591293334960938, -0.21149827539920807
33759, 0.08141010254621506, -0.09615891426801682, 0.052771907299757004, -0.1462165266275406, 0.08560263365507126, -0.019961629062891006, 0.0006853826926089823, -0.0045135426335036755, 0.9986129999160767, 0.07744336128234863, -19.604454040527344, -0.21160683035850525, 0.0, 0.0, 0.0, 0, 0, 0, 0, 0, 0, 0.07744336128234863, -19.604454040527344, -0.21160683035850525
33769, 0.08146122843027115, -0.09610052406787872, 0.05018414556980133, 0.022003427147865295, 0.16022168099880219, -0.3367134630680084, -0.001287356368266046, -0.004300418309867382, 0.9998916387557983, 0.078119195997715, -19.61762046813965, -0.21171632409095764, 0.0, 0.0, 0.0, 0, 0, 0, 0, 0, 0, 0.078119195997715, -19.61762046813965, -0.21171632409095764
33779, 0.08049833029508591, -0.09540887922048569, 0.04944669082760811, -0.12349119782447815, -0.0851391851902008, 0.13248388469219208, -0.0005506317247636616, -0.002773355459794402, 0.998701274394989, 0.07879630476236343, -19.63079071044922, -0.21182675659656525, 0.0, 0.0, 0.0, 0, 0, 0, 0, 0, 0, 0.07879630476236343, -19.63079071044922, -0.21182675659656525
33789, 0.08050487190485, -0.09602905809879303, 0.048683661967515945, 0.06524386256933212, 0.05162426456809044, 0.045677926391363144, -0.001046249526552856, -0.0035114597994834185, 1.0001670122146606, 0.07947427779436111, -19.643966674804688, -0.21193799376487732, 0.0, 0.0, 0.0, 0, 0, 0, 0, 0, 0, 0.07947427779436111, -19.643966674804688, -0.21193799376487732
33799, 0.07984672486782074, -0.09577000886201859, 0.04828803241252899, -0.15602385997772217, -0.05566881597042084, -0.12320456653833389, -0.0021700835786759853, -0.0015807623276486993, 1.001222014427185, 0.0801531970500946, -19.657146453857422, -0.21204952895641327, 0.0, 0.0, 0.0, 0, 0, 0, 0, 0, 0, 0.0801531970500946, -19.657146453857422, -0.21204952895641327
33809, 0.08026949316263199, -0.09439318627119064, 0.04729428514838219, 0.02024686150252819, -0.21281203627586365, -0.15172070264816284, -0.0010207011364400387, -0.002275645500048995, 1.0020109415054321, 0.08083231002092361, -19.670330047607422, -0.21216028928756714, 0.0, 0.0, 0.0, 0, 0, 0, 0, 0, 0, 0.08083231002092361, -19.670330047607422, -0.21216028928756714
33819, 0.0811089277267456, -0.09452984482049942, 0.04780701920390129, 0.09951138496398926, 0.040595024824142456, 0.137993723154068, -0.0003729994932655245, -0.002856196602806449, 1.000588059425354, 0.08151140064001083, -19.683517456054688, -0.21226952970027924, 0.0, 0.0, 0.0, 0, 0, 0, 0, 0, 0, 0.08151140064001083, -19.683517456054688, -0.21226952970027924
33829, 0.0799759179353714, -0.0927414819598198, 0.046705473214387894, -0.24491749703884125, -0.34112802147865295, -0.20363064110279083, -0.0012738615041598678, -0.004378725308924913, 0.9984598755836487, 0.08219129592180252, -19.69670867919922, -0.21237756311893463, 0.0, 0.0, 0.0, 0, 0, 0, 0, 0, 0, 0.08219129592180252, -19.69670867919922, -0.21237756311893463
33839, 0.08063819259405136, -0.09334370493888855, 0.04838401824235916, 0.047818779945373535, 0.03536723181605339, 0.13482528924942017, -0.0033107916824519634, -0.0026014584582298994, 0.998386800289154, 0.08287204802036285, -19.70990562438965, -0.21248604357242584, 0.0, 0.0, 0.0, 0, 0, 0, 0, 0, 0, 0.08287204802036285, -19.70990562438965, -0.21248604357242584
33849, 0.07978548854589462, -0.0946585163474083, 0.04876738786697388, -0.1636515110731125, 0.17041093111038208, 0.06202736496925354, -0.0022955492604523897, -0.00182089873123914, 1.0004048347473145, 0.08355225622653961, -19.723108291625977, -0.2125958949327469, 0.0, 0.0, 0.0, 0, 0, 0, 0, 0, 0, 0.08355225622653961, -19.723108291625977, -0.2125958949327469
33859, 0.08012352138757706, -0.09362354874610901, 0.04832884669303894, 0.12838228046894073, -0.1397603452205658, -0.007937340997159481, -0.001747792586684227, -0.00174092932138592, 0.9995014667510986, 0.08423131704330444, -19.736312866210938, -0.21270638704299927, 0.0, 0.0, 0.0, 0, 0, 0, 0, 0, 0, 0.08423131704330444, -19.736312866210938, -0.21270638704299927
33869, 0.07964969426393509, -0.09352638572454453, 0.04718337953090668, -0.011605487205088139, 0.037910133600234985, -0.09217838943004608, -0.0013547070557251573, -0.003550110384821892, 1.0035221576690674, 0.08490996807813644, -19.749521255493164, -0.21281689405441284, 0.0, 0.0, 0.0, 0, 0, 0, 0, 0, 0, 0.08490996807813644, -19.749521255493164, -0.21281689405441284
33879, 0.07952352613210678, -0.09314124286174774, 0.047791313380002975, -0.10038372874259949, -0.023588424548506737, 0.009968461468815804, 0.0001572506153024733, -0.0031116956379264593, 1.001060962677002, 0.085588738322258, -19.762733459472656, -0.21292607486248016, 0.0, 0.0, 0.0, 0, 0, 0, 0, 0, 0, 0.085588738322258, -19.762733459472656, -0.21292607486248016
33889, 0.08084174990653992, -0.09336996078491211, 0.048998940736055374, 0.2682601511478424, 0.0760381892323494, 0.1685253083705902, -0.0006208634003996849, -0.004395519383251667, 0.999797523021698, 0.08626840263605118, -19.775951385498047, -0.21303319931030273, 0.0, 0.0, 0.0, 0, 0, 0, 0, 0, 0, 0.08626840263605118, -19.775951385498047, -0.21303319931030273
33899, 0.08073825389146805, -0.0946388691663742, 0.049268320202827454, -0.04994119331240654, 0.23323167860507965, -0.06284300982952118, -0.0009631665889173746, -0.004279303830116987, 1.0004119873046875, 0.08694932609796524, -19.789173126220703, -0.21313966810703278, 0.0, 0.0, 0.0, 0, 0, 0, 0, 0, 0, 0.08694932609796524, -19.789173126220703, -0.21313966810703278
33909, 0.0816238671541214, -0.09619220346212387, 0.050596192479133606, 0.17625418305397034, 0.2204713076353073, 0.2870728373527527, 0.00011842445383081213, -0.003369792364537716, 1.0008348226547241, 0.08763107657432556, -19.802400588989258, -0.21324607729911804, 0.0, 0.0, 0.0, 0, 0, 0, 0, 0, 0, 0.08763107657432556, -19.802400588989258, -0.21324607729911804
33919, 0.0823315903544426, -0.09612566977739334, 0.05057593435049057, -0.0468437559902668, 0.09114711731672287, 0.05303464084863663, -7.800084858899936e-05, -0.0014452706091105938, 1.0019824504852295, 0.08831404149532318, -19.81563377380371, -0.21335181593894958, 0.0, 0.0, 0.0, 0, 0, 0, 0, 0, 0, 0.08831404149532318, -19.81563377380371, -0.21335181593894958
33929, 0.0809907466173172, -0.0966719537973404, 0.050484780222177505, -0.22515100240707397, -0.10899781435728073, 0.1548129767179489, -0.0004292030062060803, -0.0028040444012731314, 1.0013431310653687, 0.0889987200498581, -19.82887077331543, -0.21345584094524384, 0.0, 0.0, 0.0, 0, 0, 0, 0, 0, 0, 0.0889987200498581, -19.82887077331543, -0.21345584094524384
33939, 0.08075574040412903, -0.09813686460256577, 0.0509912334382534, 0.08072374016046524, 0.19075709581375122, 0.20901072025299072, -0.0009710280573926866, -0.005244588945060968, 1.0003210306167603, 0.08968482911586761, -19.842111587524414, -0.21355806291103363, 0.0, 0.0, 0.0, 0, 0, 0, 0, 0, 0, 0.08968482911586761, -19.842111587524414, -0.21355806291103363
33949, 0.08082082122564316, -0.09499924629926682, 0.04978558421134949, 0.01034941803663969, -0.46319401264190674, -0.01869562827050686, -0.0011488526361063123, -0.004663678351789713, 1.000777006149292, 0.09037188440561295, -19.855356216430664, -0.21365933120250702, 0.0, 0.0, 0.0, 0, 0, 0, 0, 0, 0, 0.09037188440561295, -19.855356216430664, -0.21365933120250702
33959, 0.08034607023000717, -0.09462209045886993, 0.04977862536907196, -0.05906713753938675, -0.04212210699915886, 0.16716516017913818, -0.000566575035918504, -0.003133445279672742, 1.000540018081665, 0.09105952829122543, -19.868608474731445, -0.2137601673603058, 0.0, 0.0, 0.0, 0, 0, 0, 0, 0, 0, 0.09105952829122543, -19.868608474731445, -0.2137601673603058
33969, 0.08091356605291367, -0.09416148066520691, 0.05018499121069908, 0.10042855143547058, 0.02377438172698021, 0.02180313691496849, -0.0011719154426828027, -0.0029026505071669817, 0.9993593692779541, 0.09174799919128418, -19.881864547729492, -0.21386045217514038, 0.0, 0.0, 0.0, 0, 0, 0, 0, 0, 0, 0.09174799919128418, -19.881864547729492, -0.21386045217514038
33979, 0.08047064393758774, -0.09308170527219772, 0.04963872209191322, -0.039409149438142776, -0.12738817930221558, -0.024462604895234108, -0.0018401275156065822, -0.0022176376078277826, 1.0002431869506836, 0.092437244951725, -19.895126342773438, -0.213960662484169, 0.0, 0.0, 0.0, 0, 0, 0, 0, 0, 0, 0.092437244951725, -19.895126342773438, -0.213960662484169
33989, 0.08121870458126068, -0.09240604192018509, 0.05022220313549042, 0.13466776907444, -0.14561541378498077, 0.011218885891139507, -0.001081483787856996, -0.0012153147254139185, 0.9994102120399475, 0.09312663227319717, -19.90839195251465, -0.21406103670597076, 0.0, 0.0, 0.0, 0, 0, 0, 0, 0, 0, 0.09312663227319717, -19.90839195251465, -0.21406103670597076
33999, 0.08052937686443329, -0.09251626580953598, 0.051597580313682556, -0.07011839747428894, 0.011831352487206459, 0.1912315934896469, -0.003406687406823039, -0.0017522438429296017, 1.000419020652771, 0.09381616860628128, -19.921659469604492, -0.21416142582893372, 0.0, 0.0, 0.0, 0, 0, 0, 0, 0, 0, 0.09381616860628128, -19.921659469604492, -0.21416142582893372
34009, 0.08108369261026382, -0.09182167798280716, 0.05168448016047478, 0.19121715426445007, 0.10352528840303421, -0.09506581723690033, -0.002697854768484831, -0.00422359025105834, 1.0012754201889038, 0.09450531005859375, -19.9349308013916, -0.2142617553472519, 0.0, 0.0, 0.0, 0, 0, 0, 0, 0, 0, 0.09450531005859375, -19.9349308013916, -0.2142617553472519
34019, 0.08041568845510483, -0.09096522629261017, 0.05274587869644165, 0.014919695444405079, 0.017646776512265205, -0.009850624017417431, -0.001857726601883769, -0.003926509991288185, 1.0003902912139893, 0.09519334882497787, -19.948205947875977, -0.2143612802028656, 0.0, 0.0, 0.0, 0, 0, 0, 0, 0, 0, 0.09519334882497787, -19.948205947875977, -0.2143612802028656
34029, 0.07938676327466965, -0.09229142963886261, 0.05477941408753395, -0.09195519983768463, 0.2259209305047989, 0.10543019324541092, -0.0006035888800397515, -0.003856644732877612, 1.0011242628097534, 0.09588070213794708, -19.96148681640625, -0.21446013450622559, 0.0, 0.0, 0.0, 0, 0, 0, 0, 0, 0, 0.09588070213794708, -19.96148681640625, -0.21446013450622559
34039, 0.07928012311458588, -0.09292346239089966, 0.05280006304383278, 0.0007869491819292307, 0.168813556432724, -0.23038433492183685, 0.0006862027221359313, -0.003446219488978386, 1.0001966953277588, 0.09656839817762375, -19.97477149963379, -0.2145584672689438, 0.0, 0.0, 0.0, 0, 0, 0, 0, 0, 0, 0.09656839817762375, -19.97477149963379, -0.2145584672689438
34049, 0.07881879061460495, -0.09267622977495193, 0.052962638437747955, -0.048437170684337616, -0.054103538393974304, -0.049332037568092346, 0.0008609878714196384, -0.003923187498003244, 1.0011229515075684, 0.09725778549909592, -19.988061904907227, -0.2146560102701187, 0.0, 0.0, 0.0, 0, 0, 0, 0, 0, 0, 0.09725778549909592, -19.988061904907227, -0.2146560102701187
34059, 0.07928723096847534, -0.09250469505786896, 0.05303756147623062, 0.09752542525529861, 0.09635980427265167, 0.09748093038797379, -0.0020350543782114983, -0.003110043704509735, 0.999578595161438, 0.09794943034648895, -20.001358032226562, -0.21475277841091156, 0.0, 0.0, 0.0, 0, 0, 0, 0, 0, 0, 0.09794943034648895, -20.001358032226562, -0.21475277841091156
34069, 0.07971929758787155, -0.09203905612230301, 0.05141614004969597, -0.012682300992310047, 0.21926815807819366, -0.25698596239089966, -0.0016341123264282942, -0.003492237301543355, 0.9999973773956299, 0.09864211082458496, -20.014657974243164, -0.2148490846157074, 0.0, 0.0, 0.0, 0, 0, 0, 0, 0, 0, 0.09864211082458496, -20.014657974243164, -0.2148490846157074
34079, 0.08042352646589279, -0.09185314923524857, 0.0517757274210453, 0.06338746845722198, 0.039649348706007004, 0.0640861913561821, -0.0017093319911509752, -0.004105099011212587, 0.9982665181159973, 0.09933473914861679, -20.027963638305664, -0.21494567394256592, 0.0, 0.0, 0.0, 0, 0, 0, 0, 0, 0, 0.09933473914861679, -20.027963638305664, -0.21494567394256592
34089, 0.08086250722408295, -0.09442280977964401, 0.05211609974503517, -0.02120392769575119, 0.3942820429801941, -0.00460414681583643, -0.002857586834579706, -0.0009379888069815934, 1.0002979040145874, 0.10002733767032623, -20.04127311706543, -0.21504323184490204, 0.0, 0.0, 0.0, 0, 0, 0, 0, 0, 0, 0.10002733767032623, -20.04127311706543, -0.21504323184490204
34099, 0.08176771551370621, -0.0956573635339737, 0.053872570395469666, -0.0011237007565796375, 0.1964411586523056, 0.19161595404148102, -0.0021119732409715652, -0.004027101211249828, 1.000828504562378, 0.1007194072008133, -20.05458641052246, -0.21514128148555756, 0.0, 0.0, 0.0, 0, 0, 0, 0, 0, 0, 0.1007194072008133, -20.05458641052246, -0.21514128148555756
34109, 0.0821552574634552, -0.09553410857915878, 0.05334675312042236, -0.03931869566440582, 0.03215009346604347, -0.0511709526181221, -0.0009978862944990396, -0.0021636730525642633, 0.9991079568862915, 0.10141065716743469, -20.067903518676758, -0.2152387797832489, 0.0, 0.0, 0.0, 0, 0, 0, 0, 0, 0, 0.10141065716743469, -20.067903518676758, -0.2152387797832489
34119, 0.08253465592861176, -0.09584387391805649, 0.05393591150641441, -0.0049230074509978294, 0.03600391000509262, 0.01032230257987976, -0.0015036182012408972, -0.00401935214176774, 0.9997116923332214, 0.10210186243057251, -20.081226348876953, -0.21533624827861786, 0.0, 0.0, 0.0, 0, 0, 0, 0, 0, 0, 0.10210186243057251, -20.081226348876953, -0.21533624827861786
34129, 0.08139591664075851, -0.09475114941596985, 0.05241886153817177, -0.15038378536701202, -0.15675993263721466, -0.2959117591381073, -0.001598056871443987, -0.0054229735396802425, 0.9993467926979065, 0.10279347002506256, -20.094552993774414, -0.21543428301811218, 0.0, 0.0, 0.0, 0, 0, 0, 0, 0, 0, 0.10279347002506256, -20.094552993774414, -0.21543428301811218
34139, 0.08170457929372787, -0.0954594686627388, 0.053011056035757065, 0.12921221554279327, 0.09424605220556259, 0.07971276342868805, -0.0009039653232321143, -0.0035866086836904287, 0.999335765838623, 0.10348527133464813, -20.107885360717773, -0.21553273499011993, 0.0, 0.0, 0.0, 0, 0, 0, 0, 0, 0, 0.10348527133464813, -20.107885360717773, -0.21553273499011993
34149, 0.0813794881105423, -0.09641706943511963, 0.05299755185842514, 0.030620628967881203, 0.07410722970962524, -0.054640866816043854, -0.0009232511511072516, -0.0026850709691643715, 0.9997577667236328, 0.10417748987674713, -20.12122344970703, -0.21563152968883514, 0.0, 0.0, 0.0, 0, 0, 0, 0, 0, 0, 0.10417748987674713, -20.12122344970703, -0.21563152968883514
34159, 0.08091378957033157, -0.09765207022428513, 0.05158216133713722, 0.06726184487342834, 0.043341945856809616, -0.16416144371032715, -7.998539513209835e-05, -0.0026408073026686907, 0.9998210668563843, 0.10487050563097, -20.134567260742188, -0.21573080122470856, 0.0, 0.0, 0.0, 0, 0, 0, 0, 0, 0, 0.10487050563097, -20.134567260742188, -0.21573080122470856
34169, 0.0806121677160263, -0.0988585576415062, 0.050989311188459396, -0.03754656761884689, 0.11270424723625183, -0.023701917380094528, -3.496226781862788e-05, -0.001949839759618044, 1.002061367034912, 0.10556471347808838, -20.14791488647461, -0.21583035588264465, 0.0, 0.0, 0.0, 0, 0, 0, 0, 0, 0, 0.10556471347808838, -20.14791488647461, -0.21583035588264465
34179, 0.0796150490641594, -0.09893826395273209, 0.05013072490692139, -0.14439167082309723, 0.05546259135007858, 0.014872057363390923, -0.0008607477648183703, -0.003522467566654086, 1.0007429122924805, 0.10626031458377838, -20.161266326904297, -0.21592910587787628, 0.0, 0.0, 0.0, 0, 0, 0, 0, 0, 0, 0.10626031458377838, -20.161266326904297, -0.21592910587787628
34189, 0.08014429360628128, -0.09844768047332764, 0.050245169550180435, 0.09537702798843384, -0.07014619559049606, 0.10269423574209213, -0.0023493641056120396, -0.00495799770578742, 0.9996677041053772, 0.10695692896842957, -20.17462158203125, -0.21602654457092285, 0.0, 0.0, 0.0, 0, 0, 0, 0, 0, 0, 0.10695692896842957, -20.17462158203125, -0.21602654457092285
34199, 0.07935667037963867, -0.09770119190216064, 0.0496661476790905, -0.0748336985707283, -0.08568209409713745, -0.045714620500802994, 0.00042881848639808595, -0.0038511131424456835, 1.0013296604156494, 0.10765382647514343, -20.1879825592041, -0.2161235511302948, 0.0, 0.0, 0.0, 0, 0, 0, 0, 0, 0, 0.10765382647514343, -20.1879825592041, -0.2161235511302948
34209, 0.07953251898288727, -0.09672822058200836, 0.04990610107779503, 0.1925741285085678, -0.19336354732513428, 0.016741033643484116, 0.0021625349763780832, -0.0027348101139068604, 1.0000200271606445, 0.10835148394107819, -20.20134925842285, -0.2162202000617981, 0.0, 0.0, 0.0, 0, 0, 0, 0, 0, 0, 0.10835148394107819, -20.20134925842285, -0.2162202000617981
34219, 0.07981088757514954, -0.09591203182935715, 0.05016123875975609, 0.13013124465942383, -0.13381752371788025, -0.028739534318447113, 0.0012420723214745522, -0.0010464278748258948, 1.0003130435943604, 0.1090516448020935, -20.214719772338867, -0.2163163125514984, 0.0, 0.0, 0.0, 0, 0, 0, 0, 0, 0, 0.1090516448020935, -20.214719772338867, -0.2163163125514984
34229, 0.07833993434906006, -0.0956985354423523, 0.05076516792178154, -0.14814873039722443, 0.13233648240566254, 0.10467704385519028, -0.0010608549928292632, -0.0027106371708214283, 1.001134991645813, 0.10975489020347595, -20.22809410095215, -0.2164122462272644, 0.0, 0.0, 0.0, 0, 0, 0, 0, 0, 0, 0.10975489020347595, -20.22809410095215, -0.2164122462272644
34239, 0.07895289361476898, -0.09766069054603577, 0.050757817924022675, 0.06944826990365982, 0.2901614010334015, -0.04662686958909035, -0.0011858801590278745, -0.0034811405930668116, 1.0003459453582764, 0.11046008765697479, -20.241470336914062, -0.21650755405426025, 0.0, 0.0, 0.0, 0, 0, 0, 0, 0, 0, 0.11046008765697479, -20.241470336914062, -0.21650755405426025
34249, 0.07838206738233566, -0.09884172677993774, 0.05216187983751297, -0.2108747661113739, 0.1349288821220398, 0.2917947769165039, 0.00025826352066360414, -0.004325090441852808, 1.0007174015045166, 0.11116606742143631, -20.254852294921875, -0.21660205721855164, 0.0, 0.0, 0.0, 0, 0, 0, 0, 0, 0, 0.11116606742143631, -20.254852294921875, -0.21660205721855164
34259, 0.07801619172096252, -0.09931406378746033, 0.05269043147563934, -0.06801392138004303, 0.026581013575196266, 0.1839456409215927, -0.0010767672210931778, -0.0035660036373883486, 0.9989966750144958, 0.11187313497066498, -20.268238067626953, -0.2166961282491684, 0.0, 0.0, 0.0, 0, 0, 0, 0, 0, 0, 0.11187313497066498, -20.268238067626953, -0.2166961282491684
34269, 0.07737590372562408, -0.09989294409751892, 0.05256910249590874, -0.02567269653081894, 0.011578879319131374, 0.0019729514606297016, -0.0024782493710517883, -0.0037738685496151447, 1.0008258819580078, 0.11258135735988617, -20.28162956237793, -0.21679013967514038, 0.0, 0.0, 0.0, 0, 0, 0, 0, 0, 0, 0.11258135735988617, -20.28162956237793, -0.21679013967514038
34279, 0.07652922719717026, -0.09955757856369019, 0.053102947771549225, 0.010238886810839176, -0.09686202555894852, 0.16548754274845123, -0.0022163460962474346, -0.0025813321117311716, 0.9991623163223267, 0.11328952759504318, -20.295026779174805, -0.21688403189182281, 0.0, 0.0, 0.0, 0, 0, 0, 0, 0, 0, 0.11328952759504318, -20.295026779174805, -0.21688403189182281
34289, 0.07620260119438171, -0.10165969282388687, 0.05449719354510307, 0.03569652885198593, 0.19486184418201447, 0.2963159680366516, -0.0006439951248466969, -0.0029156880918890238, 1.0007213354110718, 0.11399710178375244, -20.308427810668945, -0.21697789430618286, 0.0, 0.0, 0.0, 0, 0, 0, 0, 0, 0, 0.11399710178375244, -20.308427810668945, -0.21697789430618286
34299, 0.07638225704431534, -0.10032760351896286, 0.054170478135347366, -0.00047613208880648017, -0.1346324384212494, -0.1305479258298874, 0.0001258725969819352, -0.002477882197126746, 1.0003108978271484, 0.11470501124858856, -20.32183265686035, -0.21707165241241455, 0.0, 0.0, 0.0, 0, 0, 0, 0, 0, 0, 0.11470501124858856, -20.32183265686035, -0.21707165241241455
34309, 0.07659566402435303, -0.09944435954093933, 0.0535290353000164, 0.007778367027640343, -0.006292311009019613, -0.18557952344417572, -0.0027880927082151175, -0.001558707095682621, 1.0003935098648071, 0.11541427671909332, -20.335241317749023, -0.21716488897800446, 0.0, 0.0, 0.0, 0, 0, 0, 0, 0, 0, 0.11541427671909332, -20.335241317749023, -0.21716488897800446
34319, 0.07800959050655365, -0.09828225523233414, 0.053998224437236786, 0.20913435518741608, -0.14342227578163147, -0.05406307801604271, -0.0026465223636478186, -0.0027453205548226833, 1.0004280805587769, 0.1161239743232727, -20.34865379333496, -0.21725763380527496, 0.0, 0.0, 0.0, 0, 0, 0, 0, 0, 0, 0.1161239743232727, -20.34865379333496, -0.21725763380527496
34329, 0.07808434963226318, -0.09954042732715607, 0.05392174422740936, 0.047319166362285614, 0.16414664685726166, 0.008637319318950176, -0.00017114692309405655, -0.0035831816494464874, 1.0002291202545166, 0.11683286726474762, -20.362070083618164, -0.2173498123884201, 0.0, 0.0, 0.0, 0, 0, 0, 0, 0, 0, 0.11683286726474762, -20.362070083618164, -0.2173498123884201
34339, 0.07786953449249268, -0.0993211567401886, 0.05411560833454132, -0.000555223785340786, -0.11786424368619919, 0.08262940496206284, 2.2145746697788127e-05, -0.0032889386638998985, 1.0029455423355103, 0.11754195392131805, -20.375490188598633, -0.2174416333436966, 0.0, 0.0, 0.0, 0, 0, 0, 0, 0, 0, 0.11754195392131805, -20.375490188598633, -0.2174416333436966
34349, 0.07920388877391815, -0.09692254662513733, 0.05369313433766365, 0.15993846952915192, -0.30648359656333923, -0.009659907780587673, -0.0012828819453716278, -0.005150925368070602, 1.0007387399673462, 0.11825243383646011, -20.388916015625, -0.21753205358982086, 0.0, 0.0, 0.0, 0, 0, 0, 0, 0, 0, 0.11825243383646011, -20.388916015625, -0.21753205358982086
34359, 0.07955435663461685, -0.09616421908140182, 0.05419418588280678, 0.0800810232758522, -0.13529063761234283, 0.20685765147209167, -0.001582384924404323, -0.005280268844217062, 0.9982215762138367, 0.11896407604217529, -20.402345657348633, -0.21762096881866455, 0.0, 0.0, 0.0, 0, 0, 0, 0, 0, 0, 0.11896407604217529, -20.402345657348633, -0.21762096881866455
34369, 0.07886919379234314, -0.09890704602003098, 0.05427487567067146, 0.0023855369072407484, 0.4252110719680786, 0.16384702920913696, -0.002446772065013647, -0.002680955920368433, 1.0012682676315308, 0.11967631429433823, -20.415782928466797, -0.21771040558815002, 0.0, 0.0, 0.0, 0, 0, 0, 0, 0, 0, 0.11967631429433823, -20.415782928466797, -0.21771040558815002
34379, 0.07844105362892151, -0.0974712148308754, 0.05384455621242523, -0.046012066304683685, -0.2597431242465973, 0.034841250628232956, -0.0032861281652003527, -0.0015735216438770294, 0.9997479319572449, 0.1203884407877922, -20.42922592163086, -0.21780021488666534, 0.0, 0.0, 0.0, 0, 0, 0, 0, 0, 0, 0.1203884407877922, -20.42922592163086, -0.21780021488666534
34389, 0.07808119058609009, -0.09684661775827408, 0.05297679081559181, 0.002151524182409048, -0.08493257313966751, -0.24543949961662292, -0.003499002195894718, -0.004776899702847004, 1.0012162923812866, 0.12109959125518799, -20.442670822143555, -0.21788974106311798, 0.0, 0.0, 0.0, 0, 0, 0, 0, 0, 0, 0.12109959125518799, -20.442670822143555, -0.21788974106311798
34399, 0.07879102230072021, -0.09589086472988129, 0.05476664379239082, 0.12828917801380157, -0.07220476120710373, 0.2854062020778656, 0.00277895200997591, -0.0042293984442949295, 1.0010302066802979, 0.12180926650762558, -20.45612144470215, -0.21797877550125122, 0.0, 0.0, 0.0, 0, 0, 0, 0, 0, 0, 0.12180926650762558, -20.45612144470215, -0.21797877550125122
34409, 0.07918158173561096, -0.09705062955617905, 0.05513165146112442, 0.055637478828430176, 0.17849169671535492, -0.026788970455527306, -0.00039917201502248645, -0.005766970571130514, 1.0001989603042603, 0.12251967936754227, -20.46957778930664, -0.21806688606739044, 0.0, 0.0, 0.0, 0, 0, 0, 0, 0, 0, 0.12251967936754227, -20.46957778930664, -0.21806688606739044
34419, 0.07936270534992218, -0.09608282148838043, 0.05505506321787834, 0.10916493833065033, -0.01931101828813553, 0.10551616549491882, -0.0013206845615059137, -0.00391931040212512, 1.000648856163025, 0.12323261797428131, -20.48303985595703, -0.21815432608127594, 0.0, 0.0, 0.0, 0, 0, 0, 0, 0, 0, 0.12323261797428131, -20.48303985595703, -0.21815432608127594
34429, 0.07946000248193741, -0.095863938331604, 0.055292658507823944, 0.04442146047949791, 0.05478617548942566, 0.018722133710980415, -0.002055129036307335, -0.0012990809045732021, 1.0000332593917847, 0.12394669651985168, -20.49650764465332, -0.21824103593826294, 0.0, 0.0, 0.0, 0, 0, 0, 0, 0, 0, 0.12394669651985168, -20.49650764465332, -0.21824103593826294
34439, 0.07979388535022736, -0.09743396192789078, 0.05650191009044647, 0.15064223110675812, 0.20854057371616364, 0.1796143352985382, -0.002625362714752555, -0.0022096510510891676, 0.9993326663970947, 0.1246609017252922, -20.509979248046875, -0.21832746267318726, 0.0, 0.0, 0.0, 0, 0, 0, 0, 0, 0, 0.1246609017252922, -20.509979248046875, -0.21832746267318726
34449, 0.07884213328361511, -0.09451200813055038, 0.05653975531458855, -0.09120359271764755, -0.2603917717933655, 0.04972286522388458, -0.002213618252426386, -0.003508588531985879, 1.0009841918945312, 0.12544602155685425, -20.52480125427246, -0.2184227705001831, 0.0, 0.0, 0.0, 0, 0, 0, 0, 0, 0, 0.12544602155685425, -20.52480125427246, -0.2184227705001831
34459, 0.07935313880443573, -0.09355159103870392, 0.05711973458528519, 0.03430933132767677, 0.008873887360095978, 0.07740724831819534, -0.002445886842906475, -0.0033408000599592924, 0.9974172711372375, 0.12615911662578583, -20.538280487060547, -0.21850928664207458, 0.0, 0.0, 0.0, 0, 0, 0, 0, 0, 0, 0.12615911662578583, -20.538280487060547, -0.21850928664207458
34469, 0.07906527817249298, -0.0932769924402237, 0.056330107152462006, 0.005542326252907515, -0.043325748294591904, -0.11474276334047318, -0.0009902173187583685, -0.0033615585416555405, 0.9987971782684326, 0.1268715113401413, -20.55176544189453, -0.21859662234783173, 0.0, 0.0, 0.0, 0, 0, 0, 0, 0, 0, 0.1268715113401413, -20.55176544189453, -0.21859662234783173
34479, 0.08020314574241638, -0.09143657237291336, 0.05766754969954491, 0.13625195622444153, -0.18182462453842163, 0.08913508802652359, -0.001281566102989018, -0.0035477231722325087, 1.0004057884216309, 0.12758369743824005, -20.56525421142578, -0.21868547797203064, 0.0, 0.0, 0.0, 0, 0, 0, 0, 0, 0, 0.12758369743824005, -20.56525421142578, -0.21868547797203064
34489, 0.08010528981685638, -0.09172727912664413, 0.058058273047208786, -0.09793730825185776, 0.1498739868402481, 0.05127783119678497, -1.2326544492680114e-05, -0.003723352449014783, 1.001677393913269, 0.1282963752746582, -20.57874870300293, -0.21877464652061462, 0.0, 0.0, 0.0, 0, 0, 0, 0, 0, 0, 0.1282963752746582, -20.57874870300293, -0.21877464652061462
34499, 0.07972937077283859, -0.0915307030081749, 0.058409933000802994, -0.048585444688797, 0.10287955403327942, -0.02381044439971447, -0.00028358527924865484, -0.0008544465526938438, 0.9999746084213257, 0.12901000678539276, -20.592247009277344, -0.21886304020881653, 0.0, 0.0, 0.0, 0, 0, 0, 0, 0, 0, 0.12901000678539276, -20.592247009277344, -0.21886304020881653
34509, 0.08009636402130127, -0.09016933292150497, 0.06013365462422371, 0.0625193640589714, -0.10126134008169174, 0.07978829741477966, -0.0006500092567875981, -0.0030000514816492796, 0.9974741339683533, 0.12972503900527954, -20.605749130249023, -0.21895109117031097, 0.0, 0.0, 0.0, 0, 0, 0, 0, 0, 0, 0.12972503900527954, -20.605749130249023, -0.21895109117031097
34519, 0.08058175444602966, -0.08986273407936096, 0.060401201248168945, 0.002388621214777231, 0.09107843041419983, -0.0718536376953125, 0.0003508797090034932, -0.0038802954368293285, 0.9983736872673035, 0.1304413080215454, -20.61925506591797, -0.21904043853282928, 0.0, 0.0, 0.0, 0, 0, 0, 0, 0, 0, 0.1304413080215454, -20.61925506591797, -0.21904043853282928
34529, 0.08015355467796326, -0.09020636230707169, 0.059982478618621826, -0.036431506276130676, -0.03745049238204956, -0.03252599015831947, 0.0002456853981129825, -0.0029553049243986607, 0.9983465671539307, 0.13115905225276947, -20.63276481628418, -0.219131737947464, 0.0, 0.0, 0.0, 0, 0, 0, 0, 0, 0, 0.13115905225276947, -20.63276481628418, -0.219131737947464
34539, 0.08007083088159561, -0.08764366805553436, 0.059184059500694275, 0.0514257438480854, -0.313782274723053, -0.1034930944442749, -0.0005650623352266848, 0.00026482512475922704, 0.9998762011528015, 0.13187868893146515, -20.64628028869629, -0.2192244529724121, 0.0, 0.0, 0.0, 0, 0, 0, 0, 0, 0, 0.13187868893146515, -20.64628028869629, -0.2192244529724121
34549, 0.07933226227760315, -0.08737606555223465, 0.059113048017024994, -0.14558760821819305, 0.1021580845117569, 0.1847255825996399, 0.0028572159353643656, -0.001820441335439682, 0.9988234639167786, 0.13259992003440857, -20.65979766845703, -0.21931780874729156, 0.0, 0.0, 0.0, 0, 0, 0, 0, 0, 0, 0.13259992003440857, -20.65979766845703, -0.21931780874729156
34559, 0.07986132055521011, -0.08843446522951126, 0.059844426810741425, 0.023582346737384796, 0.31673815846443176, 0.1225103810429573, 0.0014317347668111324, -0.002666889689862728, 0.999384343624115, 0.1333237588405609, -20.67331886291504, -0.21941189467906952, 0.0, 0.0, 0.0, 0, 0, 0, 0, 0, 0, 0.1333237588405609, -20.67331886291504, -0.21941189467906952
34569, 0.07995375990867615, -0.0880810096859932, 0.06067250669002533, 0.07887651771306992, 0.03563161939382553, 0.2814868092536926, 0.001084997202269733, -0.004016664810478687, 1.0001486539840698, 0.1340511292219162, -20.68684196472168, -0.2195068895816803, 0.0, 0.0, 0.0, 0, 0, 0, 0, 0, 0, 0.1340511292219162, -20.68684196472168, -0.2195068895816803
34579, 0.0801350548863411, -0.0887879803776741, 0.06130709499120712, 0.08826173096895218, -0.13865989446640015, 0.09117662906646729, -0.0022684724535793066, -0.005950727965682745, 0.996886670589447, 0.1347811073064804, -20.70037078857422, -0.21960242092609406, 0.0, 0.0, 0.0, 0, 0, 0, 0, 0, 0, 0.1347811073064804, -20.70037078857422, -0.21960242092609406
34589, 0.08064373582601547, -0.08922120183706284, 0.06243464723229408, 0.055505458265542984, 0.057648297399282455, 0.1830296814441681, -0.0009798852261155844, -0.004114271607249975, 0.9974842667579651, 0.1355118304491043, -20.713905334472656, -0.21969956159591675, 0.0, 0.0, 0.0, 0, 0, 0, 0, 0, 0, 0.1355118304491043, -20.713905334472656, -0.21969956159591675
34599, 0.07976388931274414, -0.08882192522287369, 0.06175113096833229, -0.03560885787010193, -0.09076438099145889, -0.18426497280597687, -0.00013349474465940148, -0.0034900514874607325, 0.9993633031845093, 0.13624243438243866, -20.727445602416992, -0.21979929506778717, 0.0, 0.0, 0.0, 0, 0, 0, 0, 0, 0, 0.13624243438243866, -20.727445602416992, -0.21979929506778717
34609, 0.07897087186574936, -0.0910954624414444, 0.06229306384921074, -0.008565520867705345, 0.3018614947795868, 0.02256438508629799, -0.001542624901048839, -0.0019383953185752034, 0.9974271655082703, 0.13697370886802673, -20.740991592407227, -0.21990063786506653, 0.0, 0.0, 0.0, 0, 0, 0, 0, 0, 0, 0.13697370886802673, -20.740991592407227, -0.21990063786506653
34619, 0.078917495906353, -0.09218210726976395, 0.06273270398378372, -0.10112947225570679, 0.08883968740701675, -0.027001241222023964, -0.002972343470901251, -0.002817148808389902, 0.9998812079429626, 0.13770540058612823, -20.754541397094727, -0.2200034260749817, 0.0, 0.0, 0.0, 0, 0, 0, 0, 0, 0, 0.13770540058612823, -20.754541397094727, -0.2200034260749817
34629, 0.07881420850753784, -0.09165941178798676, 0.06334664672613144, -0.041871435940265656, -0.1928568184375763, 0.08045993000268936, 3.479893712210469e-05, -0.0038707733619958162, 1.0002875328063965, 0.13843657076358795, -20.768095016479492, -0.22010736167430878, 0.0, 0.0, 0.0, 0, 0, 0, 0, 0, 0, 0.13843657076358795, -20.768095016479492, -0.22010736167430878
34639, 0.0779772475361824, -0.0927949920296669, 0.06379087269306183, -0.013107189908623695, 0.1556972712278366, 0.007220793049782515, -0.0010572003666311502, -0.004008732736110687, 0.9989081621170044, 0.13916802406311035, -20.781652450561523, -0.22021126747131348, 0.0, 0.0, 0.0, 0, 0, 0, 0, 0, 0, 0.13916802406311035, -20.781652450561523, -0.22021126747131348
34649, 0.07866156846284866, -0.0916527807712555, 0.06363315880298615, 0.06599178910255432, -0.31925684213638306, -0.059129320085048676, 0.0002734332229010761, -0.0058460598811507225, 1.0013599395751953, 0.1399005949497223, -20.795215606689453, -0.22031547129154205, 0.0, 0.0, 0.0, 0, 0, 0, 0, 0, 0, 0.1399005949497223, -20.795215606689453, -0.22031547129154205
34659, 0.0791025310754776, -0.09116174280643463, 0.06277614086866379, 0.05641503632068634, 0.08196379989385605, -0.0701238289475441, 0.0009946333011612296, -0.004516892600804567, 1.0000205039978027, 0.14063449203968048, -20.80878448486328, -0.22041958570480347, 0.0, 0.0, 0.0, 0, 0, 0, 0, 0, 0, 0.14063449203968048, -20.80878448486328, -0.22041958570480347
34669, 0.08017284423112869, -0.09217029809951782, 0.06216773763298988, 0.009567739441990852, -0.027723047882318497, -0.08109727501869202, -0.00039193412521854043, -0.00316205364651978, 1.0017075538635254, 0.14137043058872223, -20.822359085083008, -0.22052302956581116, 0.0, 0.0, 0.0, 0, 0, 0, 0, 0, 0, 0.14137043058872223, -20.822359085083008, -0.22052302956581116
34679, 0.07913541048765182, -0.09159813076257706, 0.06163807213306427, 0.009021652862429619, -0.1547495424747467, 0.17074915766716003, 0.000828971154987812, -0.002179504372179508, 0.9998992085456848, 0.1421080380678177, -20.835939407348633, -0.22062580287456512, 0.0, 0.0, 0.0, 0, 0, 0, 0, 0, 0, 0.1421080380678177, -20.835939407348633, -0.22062580287456512
34689, 0.07992707937955856, -0.0907726138830185, 0.061684221029281616, 0.23752081394195557, -0.25446656346321106, 0.19284914433956146, 0.000639508303720504, -0.0038138560485094786, 0.9991655945777893, 0.14284716546535492, -20.849523544311523, -0.2207280695438385, 0.0, 0.0, 0.0, 0, 0, 0, 0, 0, 0, 0.14284716546535492, -20.849523544311523, -0.2207280695438385
34699, 0.08019473403692245, -0.09107199311256409, 0.061938993632793427, -0.10839060693979263, 0.12824662029743195, 0.1645292192697525, 0.0010042700450867414, -0.0042059351690113544, 1.000494360923767, 0.14358846843242645, -20.86311149597168, -0.2208307683467865, 0.0, 0.0, 0.0, 0, 0, 0, 0, 0, 0, 0.14358846843242645, -20.86311149597168, -0.2208307683467865
34709, 0.0805056244134903, -0.09335662424564362, 0.06283240020275116, 0.14828205108642578, 0.35077089071273804, 0.20846344530582428, -0.0034343269653618336, -0.0016575667541474104, 0.997750461101532, 0.1443318873643875, -20.876705169677734, -0.220933735370636, 0.0, 0.0, 0.0, 0, 0, 0, 0, 0, 0, 0.1443318873643875, -20.876705169677734, -0.220933735370636
34719, 0.0792587473988533, -0.09284918010234833, 0.0624641589820385, -0.18078766763210297, -0.05997590348124504, -0.06687063723802567, -0.002895226003602147, -0.0026951697655022144, 1.0014880895614624, 0.14507539570331573, -20.890302658081055, -0.22103722393512726, 0.0, 0.0, 0.0, 0, 0, 0, 0, 0, 0, 0.14507539570331573, -20.890302658081055, -0.22103722393512726
34729, 0.07917516678571701, -0.09292007237672806, 0.06221599504351616, 0.052241116762161255, -0.006675895303487778, 0.10102140158414841, -0.0031032804399728775, -0.0037630475126206875, 1.0010108947753906, 0.1458173543214798, -20.90390396118164, -0.2211408168077469, 0.0, 0.0, 0.0, 0, 0, 0, 0, 0, 0, 0.1458173543214798, -20.90390396118164, -0.2211408168077469
34739, 0.07861530035734177, -0.09297940880060196, 0.06100590527057648, 0.16185681521892548, 0.09590913355350494, -0.05165523663163185, -0.0013909072149544954, -0.0032419946510344744, 0.9989115595817566, 0.14655786752700806, -20.917509078979492, -0.22124338150024414, 0.0, 0.0, 0.0, 0, 0, 0, 0, 0, 0, 0.14655786752700806, -20.917509078979492, -0.22124338150024414
34749, 0.07818245887756348, -0.09114076942205429, 0.06095592677593231, -0.1041216030716896, -0.26754799485206604, 0.07985108345746994, -0.00016472878633067012, -0.004238460212945938, 1.0000722408294678, 0.14729775488376617, -20.931119918823242, -0.22134582698345184, 0.0, 0.0, 0.0, 0, 0, 0, 0, 0, 0, 0.14729775488376617, -20.931119918823242, -0.22134582698345184
34759, 0.0782344862818718, -0.09204969555139542, 0.06193186342716217, 0.056775983422994614, 0.04958517104387283, 0.0004035965248476714, -0.003412459744140506, -0.004499752540141344, 0.9989820122718811, 0.14803823828697205, -20.94473648071289, -0.22144870460033417, 0.0, 0.0, 0.0, 0, 0, 0, 0, 0, 0, 0.14803823828697205, -20.94473648071289, -0.22144870460033417
34769, 0.07861567288637161, -0.09245017170906067, 0.06225510314106941, -0.041216712445020676, 0.09584241360425949, -0.1326000690460205, -0.0030386031139642, -0.00397223187610507, 0.9990978240966797, 0.1487782597541809, -20.958358764648438, -0.22155220806598663, 0.0, 0.0, 0.0, 0, 0, 0, 0, 0, 0, 0.1487782597541809, -20.958358764648438, -0.22155220806598663
34779, 0.07770828902721405, -0.09272703528404236, 0.06206941232085228, -0.03398542478680611, 0.14955802261829376, 0.0494554378092289, -0.0005368625861592591, -0.0027889686170965433, 1.0017917156219482, 0.1495167762041092, -20.97198486328125, -0.2216567099094391, 0.0, 0.0, 0.0, 0, 0, 0, 0, 0, 0, 0.1495167762041092, -20.97198486328125, -0.2216567099094391
34789, 0.07765210419893265, -0.09162291884422302, 0.06173069775104523, 0.03737187385559082, -0.35943883657455444, -0.22528180480003357, 0.00032541193650104105, -0.004079943057149649, 1.0006059408187866, 0.1502552330493927, -20.98561668395996, -0.22176077961921692, 0.0, 0.0, 0.0, 0, 0, 0, 0, 0, 0, 0.1502552330493927, -20.98561668395996, -0.22176077961921692
34799, 0.07782015204429626, -0.09118037670850754, 0.06218015030026436, -0.012059804983437061, -0.10005642473697662, -0.02768433466553688, -1.7602627849555574e-05, -0.0027510905638337135, 0.9987990856170654, 0.150995135307312, -20.999252319335938, -0.22186371684074402, 0.0, 0.0, 0.0, 0, 0, 0, 0, 0, 0, 0.150995135307312, -20.999252319335938, -0.22186371684074402
34809, 0.0770849734544754, -0.09167155623435974, 0.06320127844810486, 0.0840945690870285, -0.009149407967925072, 0.061923690140247345, -0.00014073446800466627, -0.0033531158696860075, 0.9970670342445374, 0.15173673629760742, -21.012893676757812, -0.22196689248085022, 0.0, 0.0, 0.0, 0, 0, 0, 0, 0, 0, 0.15173673629760742, -21.012893676757812, -0.22196689248085022
34819, 0.07778320461511612, -0.09333956241607666, 0.0627191960811615, 0.12271694093942642, -0.034980129450559616, -0.0573585219681263, -0.0004026270180474967, -0.003037733491510153, 1.0000789165496826, 0.15247994661331177, -21.026538848876953, -0.2220718115568161, 0.0, 0.0, 0.0, 0, 0, 0, 0, 0, 0, 0.15247994661331177, -21.026538848876953, -0.2220718115568161
34829, 0.0779675841331482, -0.09400266408920288, 0.06293564289808273, -0.006485161371529102, -0.13666848838329315, -0.09257728606462479, -0.0006983050843700767, -0.002625549677759409, 1.0010672807693481, 0.15322457253932953, -21.04018783569336, -0.22217796742916107, 0.0, 0.0, 0.0, 0, 0, 0, 0, 0, 0, 0.15322457253932953, -21.04018783569336, -0.22217796742916107
34839, 0.07761211693286896, -0.09520018845796585, 0.06300695985555649, 0.020975280553102493, 0.29372039437294006, -0.08281386643648148, -0.00018758703663479537, -0.004756254144012928, 0.9999316334724426, 0.15397027134895325, -21.053842544555664, -0.22228367626667023, 0.0, 0.0, 0.0, 0, 0, 0, 0, 0, 0, 0.15397027134895325, -21.053842544555664, -0.22228367626667023
34849, 0.07788306474685669, -0.09677501022815704, 0.06383009254932404, -0.006001110654324293, 0.04956956207752228, 0.07342114299535751, -0.0008209776133298874, -0.0024530915543437004, 1.002770185470581, 0.15471723675727844, -21.067501068115234, -0.2223888486623764, 0.0, 0.0, 0.0, 0, 0, 0, 0, 0, 0, 0.15471723675727844, -21.067501068115234, -0.2223888486623764
34859, 0.07711954414844513, -0.09600263088941574, 0.0632200837135315, -0.03977978974580765, -0.15021361410617828, -0.10579982399940491, -0.003328250255435705, -0.002127350540831685, 1.0007798671722412, 0.15546520054340363, -21.081165313720703, -0.2224927842617035, 0.0, 0.0, 0.0, 0, 0, 0, 0, 0, 0, 0.15546520054340363, -21.081165313720703, -0.2224927842617035
34869, 0.0779072493314743, -0.09737706184387207, 0.06308381259441376, 0.12887972593307495, 0.03547748550772667, 0.0501297302544117, -0.0028055172879248857, -0.0031443280167877674, 1.0004253387451172, 0.15621262788772583, -21.094833374023438, -0.22259512543678284, 0.0, 0.0, 0.0, 0, 0, 0, 0, 0, 0, 0.15621262788772583, -21.094833374023438, -0.22259512543678284
34879, 0.07781680673360825, -0.09643302857875824, 0.06367933750152588, 0.038554515689611435, -0.24468880891799927, 0.19278860092163086, -0.0024220424238592386, -0.003850566688925028, 0.9994585514068604, 0.15695859491825104, -21.108505249023438, -0.22269698977470398, 0.0, 0.0, 0.0, 0, 0, 0, 0, 0, 0, 0.15695859491825104, -21.108505249023438, -0.22269698977470398
34889, 0.07869334518909454, -0.09661343693733215, 0.06322883069515228, 0.32721906900405884, 0.15500561892986298, -0.016341092064976692, 0.000410303968237713, -0.0026387327816337347, 1.0020073652267456, 0.15770378708839417, -21.122180938720703, -0.2227989286184311, 0.0, 0.0, 0.0, 0, 0, 0, 0, 0, 0, 0.15770378708839417, -21.122180938720703, -0.2227989286184311
34899, 0.07905760407447815, -0.09656303375959396, 0.06357977539300919, -0.02360931783914566, -0.08636702597141266, 0.18959467113018036, -0.001015755464322865, -0.003908200189471245, 1.0020588636398315, 0.1584497094154358, -21.135862350463867, -0.22290004789829254, 0.0, 0.0, 0.0, 0, 0, 0, 0, 0, 0, 0.1584497094154358, -21.135862350463867, -0.22290004789829254
34909, 0.0784258246421814, -0.0963134691119194, 0.06493750959634781, -0.09963736683130264, 0.11381850391626358, 0.18148605525493622, -0.0032677913550287485, -0.0038694271352142096, 0.9991165995597839, 0.15919660031795502, -21.149547576904297, -0.2229994237422943, 0.0, 0.0, 0.0, 0, 0, 0, 0, 0, 0, 0.15919660031795502, -21.149547576904297, -0.2229994237422943
34919, 0.07982640713453293, -0.09633783251047134, 0.0661439374089241, 0.18973147869110107, 0.041650526225566864, 0.08699117600917816, -0.0016207314329221845, -0.00467679463326931, 0.9994520545005798, 0.15994282066822052, -21.163238525390625, -0.22309817373752594, 0.0, 0.0, 0.0, 0, 0, 0, 0, 0, 0, 0.15994282066822052, -21.163238525390625, -0.22309817373752594
34929, 0.08008874952793121, -0.09601064771413803, 0.06677822023630142, -0.03193018212914467, -0.17162933945655823, -0.057538267225027084, -0.0012613366125151515, -0.0030429502949118614, 0.9976021647453308, 0.16068829596042633, -21.17693519592285, -0.22319777309894562, 0.0, 0.0, 0.0, 0, 0, 0, 0, 0, 0, 0.16068829596042633, -21.17693519592285, -0.22319777309894562
34939, 0.0794992446899414, -0.09916996955871582, 0.06574399769306183, -0.017444944009184837, 0.36658036708831787, -0.034449975937604904, -0.0017895274795591831, -0.0034885553177446127, 1.0007648468017578, 0.16143418848514557, -21.190635681152344, -0.22329893708229065, 0.0, 0.0, 0.0, 0, 0, 0, 0, 0, 0, 0.16143418848514557, -21.190635681152344, -0.22329893708229065
34949, 0.07941212505102158, -0.10007120668888092, 0.065641388297081, -0.02854003757238388, -0.0558696910738945, 0.14973530173301697, -0.003649802878499031, -0.003198044141754508, 1.000457763671875, 0.16218027472496033, -21.204341888427734, -0.2234007716178894, 0.0, 0.0, 0.0, 0, 0, 0, 0, 0, 0, 0.16218027472496033, -21.204341888427734, -0.2234007716178894
34959, 0.07961849868297577, -0.09984645992517471, 0.06580112874507904, -0.02704906277358532, -0.14923197031021118, 0.08573956042528152, -0.002567311516031623, -0.001406078808940947, 0.9992111325263977, 0.16292528808116913, -21.21805191040039, -0.2235022634267807, 0.0, 0.0, 0.0, 0, 0, 0, 0, 0, 0, 0.16292528808116913, -21.21805191040039, -0.2235022634267807
34969, 0.08005018532276154, -0.10128409415483475, 0.06617224216461182, 0.009602054953575134, 0.040868088603019714, -0.01576884090900421, -0.0012685355031862855, -0.001505897380411625, 0.9994113445281982, 0.16366899013519287, -21.231765747070312, -0.2236039638519287, 0.0, 0.0, 0.0, 0, 0, 0, 0, 0, 0, 0.16366899013519287, -21.231765747070312, -0.2236039638519287
34979, 0.07936470210552216, -0.09790199995040894, 0.06658396869897842, -0.08635073900222778, -0.391769677400589, -0.0582876019179821, -0.002595918020233512, -0.0029903771355748177, 0.9995533227920532, 0.16441243886947632, -21.2454833984375, -0.22370624542236328, 0.0, 0.0, 0.0, 0, 0, 0, 0, 0, 0, 0.16441243886947632, -21.2454833984375, -0.22370624542236328
34989, 0.08088941872119904, -0.09692248702049255, 0.06558270007371902, 0.1941252499818802, 0.11008220911026001, -0.10641653835773468, -0.00020161828433629125, -0.0026574113871902227, 0.9975652694702148, 0.165155827999115, -21.259204864501953, -0.22380906343460083, 0.0, 0.0, 0.0, 0, 0, 0, 0, 0, 0, 0.165155827999115, -21.259204864501953, -0.22380906343460083
34999, 0.08116395771503448, -0.09659632295370102, 0.0643523558974266, -0.09980916976928711, -0.03339708596467972, -0.1361834853887558, -0.0013938779011368752, -0.00342073873616755, 0.9999107718467712, 0.1658995896577835, -21.272930145263672, -0.22391319274902344, 0.0, 0.0, 0.0, 0, 0, 0, 0, 0, 0, 0.1658995896577835, -21.272930145263672, -0.22391319274902344
35009, 0.08110073953866959, -0.09795553237199783, 0.06314392387866974, 0.055529527366161346, 0.09421124309301376, -0.10885205119848251, 2.92044769594213e-05, -0.004679907113313675, 1.0001723766326904, 0.1666441708803177, -21.286659240722656, -0.2240183800458908, 0.0, 0.0, 0.0, 0, 0, 0, 0, 0, 0, 0.1666441708803177, -21.286659240722656, -0.2240183800458908
35019, 0.08098439127206802, -0.09676772356033325, 0.06275060772895813, -0.05357563868165016, 0.0028793441597372293, 0.0802013948559761, -0.0011774861486628652, -0.004670233931392431, 1.0019941329956055, 0.16738981008529663, -21.30039405822754, -0.22412334382534027, 0.0, 0.0, 0.0, 0, 0, 0, 0, 0, 0, 0.16738981008529663, -21.30039405822754, -0.22412334382534027
35029, 0.0801173746585846, -0.09357310831546783, 0.06182776764035225, -0.14325404167175293, -0.4946110248565674, -0.1385948359966278, -0.0012035350082442164, -0.0022405183408409357, 0.9990060925483704, 0.1681365668773651, -21.31413459777832, -0.22422745823860168, 0.0, 0.0, 0.0, 0, 0, 0, 0, 0, 0, 0.1681365668773651, -21.31413459777832, -0.22422745823860168
35039, 0.08116631954908371, -0.09445153176784515, 0.06314562261104584, 0.17219115793704987, -0.03048684261739254, 0.07040399312973022, -0.0006867707706987858, -0.0034784176386892796, 1.001542568206787, 0.1688840091228485, -21.327878952026367, -0.22433118522167206, 0.0, 0.0, 0.0, 0, 0, 0, 0, 0, 0, 0.1688840091228485, -21.327878952026367, -0.22433118522167206
35049, 0.08111884444952011, -0.09810794144868851, 0.0640731081366539, -0.15563753247261047, 0.5087932348251343, 0.06413624435663223, -0.0018255580216646194, -0.006380276754498482, 1.0017675161361694, 0.1696321964263916, -21.341629028320312, -0.22443445026874542, 0.0, 0.0, 0.0, 0, 0, 0, 0, 0, 0, 0.1696321964263916, -21.341629028320312, -0.22443445026874542
35059, 0.08164161443710327, -0.0969821959733963, 0.06372525542974472, 0.05742322653532028, -0.1871652454137802, -0.11904795467853546, -0.003679803339764476, -0.001813197392039001, 0.9985170364379883, 0.1703805774450302, -21.355384826660156, -0.22453626990318298, 0.0, 0.0, 0.0, 0, 0, 0, 0, 0, 0, 0.1703805774450302, -21.355384826660156, -0.22453626990318298
35069, 0.08088493347167969, -0.09672147035598755, 0.06406295299530029, -0.08408180624246597, -0.025591319426894188, 0.01751457341015339, -0.0031482416670769453, -0.0005679046735167503, 0.9999284744262695, 0.1711277961730957, -21.3691463470459, -0.22463779151439667, 0.0, 0.0, 0.0, 0, 0, 0, 0, 0, 0, 0.1711277961730957, -21.3691463470459, -0.22463779151439667
35079, 0.08185700327157974, -0.09648780524730682, 0.0640883594751358, 0.18944022059440613, 0.018865538761019707, 0.10354235768318176, -0.0005593536188825965, -0.0029831561259925365, 0.9990279078483582, 0.17187345027923584, -21.382909774780273, -0.22474004328250885, 0.0, 0.0, 0.0, 0, 0, 0, 0, 0, 0, 0.17187345027923584, -21.382909774780273, -0.22474004328250885
35089, 0.0813191756606102, -0.09650496393442154, 0.0642121285200119, 0.04269230738282204, 0.1234762966632843, 0.059462931007146835, -0.0005175864789634943, -0.004476552829146385, 0.9997032284736633, 0.17261897027492523, -21.396677017211914, -0.22484278678894043, 0.0, 0.0, 0.0, 0, 0, 0, 0, 0, 0, 0.17261897027492523, -21.396677017211914, -0.22484278678894043
35099, 0.08063801378011703, -0.09508011490106583, 0.06343216449022293, -0.062191519886255264, -0.23648042976856232, -0.2113742232322693, -0.0017128450563177466, -0.003810097463428974, 1.0002872943878174, 0.17336535453796387, -21.41044807434082, -0.2249457985162735, 0.0, 0.0, 0.0, 0, 0, 0, 0, 0, 0, 0.17336535453796387, -21.41044807434082, -0.2249457985162735
35109, 0.0808706060051918, -0.09513626247644424, 0.06428471952676773, 0.09574674069881439, 0.09156294167041779, 0.2836581766605377, 0.0002169646177208051, -0.0048603578470647335, 0.9977330565452576, 0.1741122156381607, -21.424224853515625, -0.2250487357378006, 0.0, 0.0, 0.0, 0, 0, 0, 0, 0, 0, 0.1741122156381607, -21.424224853515625, -0.2250487357378006
35119, 0.07953733205795288, -0.09605152159929276, 0.06343249976634979, -0.1170010045170784, 0.03479073569178581, -0.09233573079109192, 0.0007426310330629349, -0.004314982332289219, 0.9989324808120728, 0.17485997080802917, -21.438007354736328, -0.22515244781970978, 0.0, 0.0, 0.0, 0, 0, 0, 0, 0, 0, 0.17485997080802917, -21.438007354736328, -0.22515244781970978
35129, 0.07978645712137222, -0.0946548581123352, 0.06438995152711868, -0.04768604412674904, -0.187087282538414, 0.14438481628894806, 0.0004477111215237528, -0.00392132718116045, 0.9983452558517456, 0.17560963332653046, -21.45179557800293, -0.2252577543258667, 0.0, 0.0, 0.0, 0, 0, 0, 0, 0, 0, 0.17560963332653046, -21.45179557800293, -0.2252577543258667
35139, 0.08036208152770996, -0.09566211700439453, 0.06440049409866333, 0.07047019898891449, 0.09985881298780441, 0.06224098056554794, -0.00027102979947812855, -0.0027007325552403927, 0.9978558421134949, 0.17636144161224365, -21.46558952331543, -0.22536474466323853, 0.0, 0.0, 0.0, 0, 0, 0, 0, 0, 0, 0.17636144161224365, -21.46558952331543, -0.22536474466323853
35149, 0.08079349994659424, -0.09438341856002808, 0.06420136988162994, 0.11076995730400085, -0.06518857926130295, 0.1913558840751648, -0.001157915685325861, -0.004704051185399294, 1.0010426044464111, 0.17711500823497772, -21.479389190673828, -0.2254735678434372, 0.0, 0.0, 0.0, 0, 0, 0, 0, 0, 0, 0.17711500823497772, -21.479389190673828, -0.2254735678434372
35159, 0.08065629005432129, -0.09362824261188507, 0.06438365578651428, 0.013657442294061184, -0.16398191452026367, 0.01952841505408287, -0.000639211037196219, -0.003296168288215995, 0.9990972280502319, 0.17786945402622223, -21.493192672729492, -0.22558321058750153, 0.0, 0.0, 0.0, 0, 0, 0, 0, 0, 0, 0.17786945402622223, -21.493192672729492, -0.22558321058750153
35169, 0.08006328344345093, -0.09403740614652634, 0.06301915645599365, -0.13950929045677185, 0.10518629848957062, -0.09522941708564758, -0.0006752159679308534, -0.003910329192876816, 1.0014455318450928, 0.17862465977668762, -21.507001876831055, -0.22569306194782257, 0.0, 0.0, 0.0, 0, 0, 0, 0, 0, 0, 0.17862465977668762, -21.507001876831055, -0.22569306194782257
35179, 0.08097536861896515, -0.09322120994329453, 0.06365397572517395, 0.10356754809617996, -0.20707663893699646, 0.18231002986431122, -0.0018224128289148211, -0.0030130099039524794, 0.9998183846473694, 0.179380863904953, -21.520816802978516, -0.22580261528491974, 0.0, 0.0, 0.0, 0, 0, 0, 0, 0, 0, 0.179380863904953, -21.520816802978516, -0.22580261528491974
35189, 0.08163035660982132, -0.09295715391635895, 0.06488984823226929, 0.17649337649345398, -0.027508743107318878, 0.23317259550094604, -0.0012389433104544878, -0.002648263005539775, 1.0010874271392822, 0.18013761937618256, -21.534635543823242, -0.22591152787208557, 0.0, 0.0, 0.0, 0, 0, 0, 0, 0, 0, 0.18013761937618256, -21.534635543823242, -0.22591152787208557
35199, 0.08267229050397873, -0.09193084388971329, 0.06535439938306808, 0.2021915465593338, -0.26208341121673584, 0.058895543217659, -0.0006422655424103141, -0.002618089783936739, 0.9979016184806824, 0.18089473247528076, -21.548458099365234, -0.2260199338197708, 0.0, 0.0, 0.0, 0, 0, 0, 0, 0, 0, 0.18089473247528076, -21.548458099365234, -0.2260199338197708
35209, 0.08264026045799255, -0.0918593555688858, 0.0653296411037445, 0.026417512446641922, -0.016039708629250526, 0.050919536501169205, 0.0016828274819999933, -0.0023846877738833427, 0.997183620929718, 0.18172860145568848, -21.563669204711914, -0.2261398732662201, 0.0, 0.0, 0.0, 0, 0, 0, 0, 0, 0, 0.18172860145568848, -21.563669204711914, -0.2261398732662201
35219, 0.08264026045799255, -0.0918593555688858, 0.0653296411037445, 0.16817817091941833, -0.04855295270681381, -0.05403900146484375, -0.00015906117914710194, -0.0008985871681943536, 1.001112699508667, 0.18248866498470306, -21.57750129699707, -0.22625108063220978, 0.0, 0.0, 0.0, 0, 0, 0, 0, 0, 0, 0.18248866498470306, -21.57750129699707, -0.22625108063220978
35229, 0.08344937115907669, -0.09160160273313522, 0.0648174062371254, -0.2779836654663086, 0.15259955823421478, 0.036693546921014786, 0.0013216921361163259, -0.0018956747371703386, 1.0018408298492432, 0.18325088918209076, -21.591337203979492, -0.22636300325393677, 0.0, 0.0, 0.0, 0, 0, 0, 0, 0, 0, 0.18325088918209076, -21.591337203979492, -0.22636300325393677
35239, 0.08265265822410583, -0.09301965683698654, 0.06530182808637619, 0.05999278649687767, 0.017743119969964027, 0.00872538611292839, 7.003503560554236e-05, -0.00272625801153481, 0.99896240234375, 0.18401527404785156, -21.605175018310547, -0.22647376358509064, 0.0, 0.0, 0.0, 0, 0, 0, 0, 0, 0, 0.18401527404785156, -21.605175018310547, -0.22647376358509064
35249, 0.08256325870752335, -0.09216812252998352, 0.06522186845541, -0.042598117142915726, -0.06335778534412384, 0.05625906214118004, 0.00030119935399852693, -0.0051912288181483746, 0.9970601201057434, 0.18478168547153473, -21.619016647338867, -0.22658459842205048, 0.0, 0.0, 0.0, 0, 0, 0, 0, 0, 0, 0.18478168547153473, -21.619016647338867, -0.22658459842205048
35259, 0.08281627297401428, -0.09389586001634598, 0.06521831452846527, -0.10466662049293518, -0.28052443265914917, 0.04971640184521675, -0.0013734239619225264, -0.0050481208600103855, 0.9979073405265808, 0.1855495274066925, -21.632863998413086, -0.22669760882854462, 0.0, 0.0, 0.0, 0, 0, 0, 0, 0, 0, 0.1855495274066925, -21.632863998413086, -0.22669760882854462
35269, 0.08103290945291519, -0.09251947700977325, 0.06630584597587585, 0.13982762396335602, 0.07514624297618866, -0.022565368562936783, 0.0007074499153532088, -0.0021307156421244144, 0.999968409538269, 0.1863185167312622, -21.646717071533203, -0.22681263089179993, 0.0, 0.0, 0.0, 0, 0, 0, 0, 0, 0, 0.1863185167312622, -21.646717071533203, -0.22681263089179993
35279, 0.08173931390047073, -0.09319676458835602, 0.06727558374404907, -0.06425505131483078, -0.15761569142341614, 0.04634377732872963, 0.0006790133775211871, -0.002154070185497403, 0.9994229078292847, 0.1870889514684677, -21.660573959350586, -0.22692838311195374, 0.0, 0.0, 0.0, 0, 0, 0, 0, 0, 0, 0.1870889514684677, -21.660573959350586, -0.22692838311195374
35289, 0.0812133401632309, -0.09291262924671173, 0.06760295480489731, 0.09908226877450943, 0.0494152270257473, 0.15817375481128693, -0.00149367970880121, -0.005819978658109903, 1.001845121383667, 0.187861368060112, -21.674434661865234, -0.22704406082630157, 0.0, 0.0, 0.0, 0, 0, 0, 0, 0, 0, 0.187861368060112, -21.674434661865234, -0.22704406082630157
35299, 0.08133479207754135, -0.09273966401815414, 0.0694916844367981, -0.09623384475708008, -0.3285296857357025, -0.028333371505141258, 0.00015542491746600717, -0.00417317496612668, 1.0010125637054443, 0.18863488733768463, -21.68830108642578, -0.22715896368026733, 0.0, 0.0, 0.0, 0, 0, 0, 0, 0, 0, 0.18863488733768463, -21.68830108642578, -0.22715896368026733
35309, 0.08175574988126755, -0.09248573333024979, 0.06979470700025558, -0.027080686762928963, -0.151658833026886, -0.1783549040555954, -0.002596954582259059, -0.0019485807279124856, 1.0007469654083252, 0.18940916657447815, -21.702173233032227, -0.22727283835411072, 0.0, 0.0, 0.0, 0, 0, 0, 0, 0, 0, 0.18940916657447815, -21.702173233032227, -0.22727283835411072
35319, 0.08032375574111938, -0.09263183176517487, 0.06914366781711578, 0.0006583282956853509, -0.048822540789842606, -0.020087093114852905, -0.0006431298679672182, -0.0023887453135102987, 1.0004823207855225, 0.1901838332414627, -21.71605110168457, -0.22738587856292725, 0.0, 0.0, 0.0, 0, 0, 0, 0, 0, 0, 0.1901838332414627, -21.71605110168457, -0.22738587856292725
35329, 0.08036063611507416, -0.09162731468677521, 0.068763367831707, -0.026762111112475395, -0.09353385865688324, -0.11112350970506668, 0.0003699583758134395, -0.001928674872033298, 0.9976404905319214, 0.19095881283283234, -21.729930877685547, -0.22749866545200348, 0.0, 0.0, 0.0, 0, 0, 0, 0, 0, 0, 0.19095881283283234, -21.729930877685547, -0.22749866545200348
35339, 0.08014515042304993, -0.09188125282526016, 0.06772666424512863, 0.057259511202573776, -0.11224742978811264, 0.10690974444150925, -0.002261161105707288, -0.0038745880592614412, 1.0011367797851562, 0.19173495471477509, -21.74381446838379, -0.22761234641075134, 0.0, 0.0, 0.0, 0, 0, 0, 0, 0, 0, 0.19173495471477509, -21.74381446838379, -0.22761234641075134
35349, 0.08044955134391785, -0.08920770138502121, 0.06775297969579697, 0.00941781047731638, 0.001047824858687818, -0.08632874488830566, -0.002329456154257059, -0.0027756865601986647, 1.001079797744751, 0.19251121580600739, -21.757701873779297, -0.22772638499736786, 0.0, 0.0, 0.0, 0, 0, 0, 0, 0, 0, 0.19251121580600739, -21.757701873779297, -0.22772638499736786
35359, 0.08041443675756454, -0.08878663927316666, 0.06768465787172318, -0.09648215025663376, 0.0563189834356308, -0.08863792568445206, -0.0013545595575124025, -0.005855988711118698, 0.9978838562965393, 0.1932864934206009, -21.771595001220703, -0.22783976793289185, 0.0, 0.0, 0.0, 0, 0, 0, 0, 0, 0, 0.1932864934206009, -21.771595001220703, -0.22783976793289185
35369, 0.0786425843834877, -0.08869656175374985, 0.0670834630727768, -0.034574463963508606, -0.25094735622406006, -0.040003757923841476, 0.00011231879761908203, -0.0035753226839005947, 0.999958336353302, 0.19406147301197052, -21.785493850708008, -0.2279537320137024, 0.0, 0.0, 0.0, 0, 0, 0, 0, 0, 0, 0.19406147301197052, -21.785493850708008, -0.2279537320137024
35379, 0.07821065187454224, -0.0872955322265625, 0.06674694269895554, -0.05417131632566452, -0.3139967620372772, -0.04360826686024666, -0.0007247499306686223, -0.0034567946568131447, 0.9997020363807678, 0.19483740627765656, -21.79939842224121, -0.2280687689781189, 0.0, 0.0, 0.0, 0, 0, 0, 0, 0, 0, 0.19483740627765656, -21.79939842224121, -0.2280687689781189
35389, 0.07785899937152863, -0.0853244960308075, 0.06641564518213272, 0.10707110166549683, -0.06422940641641617, 0.14568151533603668, -0.0010293677914887667, -0.0035724106710404158, 0.9997513890266418, 0.1956145316362381, -21.81330680847168, -0.22818411886692047, 0.0, 0.0, 0.0, 0, 0, 0, 0, 0, 0, 0.1956145316362381, -21.81330680847168, -0.22818411886692047
35399, 0.07748574763536453, -0.08520126342773438, 0.0661349892616272, -0.016687020659446716, 0.210683673620224, 0.025591805577278137, -0.0009546192013658583, -0.006437233183532953, 0.9990391731262207, 0.19639228284358978, -21.827220916748047, -0.22829964756965637, 0.0, 0.0, 0.0, 0, 0, 0, 0, 0, 0, 0.19639228284358978, -21.827220916748047, -0.22829964756965637
35409, 0.07746078073978424, -0.08688073605298996, 0.06569770723581314, 0.17805208265781403, -0.29572904109954834, 0.16429352760314941, -0.0018478581914678216, -0.0021342369727790356, 0.9996341466903687, 0.1971704065799713, -21.841140747070312, -0.2284155935049057, 0.0, 0.0, 0.0, 0, 0, 0, 0, 0, 0, 0.1971704065799713, -21.841140747070312, -0.2284155935049057
35419, 0.07850116491317749, -0.08495990186929703, 0.06730205565690994, 0.09872716665267944, 0.189644917845726, -0.08781743049621582, -0.002536208601668477, -0.0025383462198078632, 0.9994556903839111, 0.19794851541519165, -21.855066299438477, -0.22853213548660278, 0.0, 0.0, 0.0, 0, 0, 0, 0, 0, 0, 0.19794851541519165, -21.855066299438477, -0.22853213548660278
35429, 0.07858715206384659, -0.08524398505687714, 0.06735797971487045, 0.11035318672657013, -0.1891907900571823, 0.3239162266254425, -0.0019147362327203155, -0.0025336206890642643, 1.000855803489685, 0.1987258344888687, -21.868995666503906, -0.2286490947008133, 0.0, 0.0, 0.0, 0, 0, 0, 0, 0, 0, 0.1987258344888687, -21.868995666503906, -0.2286490947008133
35439, 0.07850848138332367, -0.08468301594257355, 0.06845169514417648, 0.15748511254787445, 0.3919886648654938, 0.1600133180618286, -0.0014239548472687602, -0.003538949880748987, 0.9985522627830505, 0.19950225949287415, -21.8829288482666, -0.2287658303976059, 0.0, 0.0, 0.0, 0, 0, 0, 0, 0, 0, 0.19950225949287415, -21.8829288482666, -0.2287658303976059
35449, 0.07955759018659592, -0.08674436062574387, 0.06918332725763321, 0.08833717554807663, -0.2757859528064728, 0.007802160922437906, 0.00023998937103897333, -0.0026291722897440195, 0.9999155402183533, 0.20027855038642883, -21.896865844726562, -0.22888287901878357, 0.0, 0.0, 0.0, 0, 0, 0, 0, 0, 0, 0.20027855038642883, -21.896865844726562, -0.22888287901878357
35459, 0.08031696081161499, -0.08422235399484634, 0.06894775480031967, -0.20121048390865326, -0.16598713397979736, 0.015200159512460232, 0.0009539814782328904, -0.0017563875298947096, 0.9983433485031128, 0.20105606317520142, -21.91080665588379, -0.22900082170963287, 0.0, 0.0, 0.0, 0, 0, 0, 0, 0, 0, 0.20105606317520142, -21.91080665588379, -0.22900082170963287
35469, 0.0790027379989624, -0.08230430632829666, 0.06814204901456833, -0.10687969624996185, 0.12271866202354431, -0.021277455613017082, 0.0004982391255907714, -0.0006782818236388266, 1.000203013420105, 0.20183582603931427, -21.92475128173828, -0.22911964356899261, 0.0, 0.0, 0.0, 0, 0, 0, 0, 0, 0, 0.20183582603931427, -21.92475128173828, -0.22911964356899261
35479, 0.07852434366941452, -0.08283384144306183, 0.06810645014047623, 0.007791232783347368, -0.032229650765657425, -0.1348600536584854, -0.0005496994126588106, -0.0045466371811926365, 1.0006542205810547, 0.2026176154613495, -21.938697814941406, -0.2292390912771225, 0.0, 0.0, 0.0, 0, 0, 0, 0, 0, 0, 0.2026176154613495, -21.938697814941406, -0.2292390912771225
35489, 0.07811526954174042, -0.08329657465219498, 0.06804827600717545, -0.07616230100393295, 0.19399768114089966, 0.015654468908905983, -0.0014078523963689804, -0.0033187393564730883, 1.000035047531128, 0.20340053737163544, -21.95265007019043, -0.22935812175273895, 0.0, 0.0, 0.0, 0, 0, 0, 0, 0, 0, 0.20340053737163544, -21.95265007019043, -0.22935812175273895
35499, 0.07746550440788269, -0.08394352346658707, 0.06893575191497803, -0.1743651032447815, -0.0727618858218193, 0.03313985839486122, -0.0020667973440140486, -0.00231744977645576, 0.9994766712188721, 0.20418384671211243, -21.96660614013672, -0.22947697341442108, 0.0, 0.0, 0.0, 0, 0, 0, 0, 0, 0, 0.20418384671211243, -21.96660614013672, -0.22947697341442108
35509, 0.07674374431371689, -0.08368042856454849, 0.0686631128191948, -0.003968212753534317, 0.17768439650535583, 0.11075989156961441, -0.003180022118613124, -0.0034131533466279507, 0.9989048838615417, 0.20496684312820435, -21.980566024780273, -0.22959625720977783, 0.0, 0.0, 0.0, 0, 0, 0, 0, 0, 0, 0.20496684312820435, -21.980566024780273, -0.22959625720977783
35519, 0.0767335593700409, -0.08493886142969131, 0.06924062222242355, 0.16561949253082275, -0.039703503251075745, -0.27745017409324646, -0.0008974890224635601, -0.0019614126067608595, 1.001405119895935, 0.20574869215488434, -21.994531631469727, -0.22971612215042114, 0.0, 0.0, 0.0, 0, 0, 0, 0, 0, 0, 0.20574869215488434, -21.994531631469727, -0.22971612215042114
35529, 0.07815829664468765, -0.08520760387182236, 0.06789567321538925, 0.044283293187618256, -0.11102224141359329, -0.03293108940124512, -0.0007639399846084416, -0.002198833739385009, 1.0017998218536377, 0.20653003454208374, -22.008499145507812, -0.22983570396900177, 0.0, 0.0, 0.0, 0, 0, 0, 0, 0, 0, 0.20653003454208374, -22.008499145507812, -0.22983570396900177
35539, 0.07779774069786072, -0.08389938622713089, 0.06771740317344666, 0.29688334465026855, -0.09224428236484528, -0.16857928037643433, -0.001387680065818131, -0.005595522001385689, 1.0016590356826782, 0.20731212198734283, -22.022470474243164, -0.22995348274707794, 0.0, 0.0, 0.0, 0, 0, 0, 0, 0, 0, 0.20731212198734283, -22.022470474243164, -0.22995348274707794
35549, 0.07930970937013626, -0.08334080874919891, 0.06696915626525879, 0.03240344673395157, -0.09691869467496872, 0.030700482428073883, -0.0005067947204224765, -0.004998168908059597, 1.0010029077529907, 0.2080947458744049, -22.036447525024414, -0.23006947338581085, 0.0, 0.0, 0.0, 0, 0, 0, 0, 0, 0, 0.2080947458744049, -22.036447525024414, -0.23006947338581085
35559, 0.0796954333782196, -0.0828193873167038, 0.06765426695346832, -0.05868111178278923, 0.05009262636303902, 0.07557869702577591, -0.0012068082578480244, -0.0018764428095892072, 0.9987172484397888, 0.2088777869939804, -22.050432205200195, -0.23018449544906616, 0.0, 0.0, 0.0, 0, 0, 0, 0, 0, 0, 0.2088777869939804, -22.050432205200195, -0.23018449544906616
35569, 0.07911442220211029, -0.08353716880083084, 0.06809975951910019, 0.09214606136083603, -0.42622143030166626, -0.09192130714654922, -0.0008749845437705517, -0.0011249701492488384, 1.0002366304397583, 0.2096613645553589, -22.064420700073242, -0.23029987514019012, 0.0, 0.0, 0.0, 0, 0, 0, 0, 0, 0, 0.2096613645553589, -22.064420700073242, -0.23029987514019012
35579, 0.07868404686450958, -0.08159445226192474, 0.0672878623008728, 0.059230778366327286, 0.21018581092357635, -0.03446798026561737, -0.00430689612403512, -0.002032971940934658, 1.0011022090911865, 0.21044501662254333, -22.078411102294922, -0.23041576147079468, 0.0, 0.0, 0.0, 0, 0, 0, 0, 0, 0, 0.21044501662254333, -22.078411102294922, -0.23041576147079468
35589, 0.07898131757974625, -0.08402102440595627, 0.0674215704202652, -0.2218632698059082, 0.3154882490634918, 0.006675511132925749, -0.0024232983123511076, -0.0035073913168162107, 1.0007096529006958, 0.2112274169921875, -22.092405319213867, -0.23053082823753357, 0.0, 0.0, 0.0, 0, 0, 0, 0, 0, 0, 0.2112274169921875, -22.092405319213867, -0.23053082823753357
35599, 0.07755240797996521, -0.08550833910703659, 0.06726031750440598, 0.06772977113723755, -0.17580445110797882, 0.2342900186777115, -0.00012708512076642364, -0.0012020831927657127, 0.999799907207489, 0.21200820803642273, -22.106403350830078, -0.23064519464969635, 0.0, 0.0, 0.0, 0, 0, 0, 0, 0, 0, 0.21200820803642273, -22.106403350830078, -0.23064519464969635
35609, 0.07793790102005005, -0.0856543704867363, 0.06812252849340439, 0.025288287550210953, 0.04780415818095207, -0.06087373569607735, 0.0015443882439285517, -0.00334482965990901, 0.9994060397148132, 0.212789386510849, -22.120405197143555, -0.23075969517230988, 0.0, 0.0, 0.0, 0, 0, 0, 0, 0, 0, 0.212789386510849, -22.120405197143555, -0.23075969517230988
35619, 0.0777502954006195, -0.08555790781974792, 0.0675603598356247, -0.0931091234087944, 0.3596816956996918, 0.16367821395397186, 8.745002560317516e-05, -0.003756187856197357, 1.0019598007202148, 0.21357284486293793, -22.134410858154297, -0.23087435960769653, 0.0, 0.0, 0.0, 0, 0, 0, 0, 0, 0, 0.21357284486293793, -22.134410858154297, -0.23087435960769653
35629, 0.07696080952882767, -0.08801721781492233, 0.06713931262493134, 0.015319199301302433, 0.12195419520139694, -0.1731167435646057, -0.0009591466514393687, -0.002920844592154026, 1.0008474588394165, 0.21435831487178802, -22.148420333862305, -0.23098817467689514, 0.0, 0.0, 0.0, 0, 0, 0, 0, 0, 0, 0.21435831487178802, -22.148420333862305, -0.23098817467689514
35639, 0.07637360692024231, -0.08747892826795578, 0.06654021143913269, 0.048028599470853806, -0.017116175964474678, 0.11493539810180664, -0.0004784482589457184, -0.003751832526177168, 0.9997542500495911, 0.2151447832584381, -22.16243553161621, -0.23110079765319824, 0.0, 0.0, 0.0, 0, 0, 0, 0, 0, 0, 0.2151447832584381, -22.16243553161621, -0.23110079765319824
35649, 0.07695167511701584, -0.08646652847528458, 0.06931204348802567, -0.00452025281265378, -0.2030225694179535, -0.002177343936637044, -0.0012417236575856805, -0.002781433053314686, 1.0001366138458252, 0.2159321904182434, -22.176454544067383, -0.2312132567167282, 0.0, 0.0, 0.0, 0, 0, 0, 0, 0, 0, 0.2159321904182434, -22.176454544067383, -0.2312132567167282
35659, 0.07781112194061279, -0.08559669554233551, 0.06937564164400101, -0.03937012702226639, -0.35260286927223206, -0.14784502983093262, -0.002068841829895973, -0.004303175490349531, 0.9985944628715515, 0.21672038733959198, -22.190479278564453, -0.23132599890232086, 0.0, 0.0, 0.0, 0, 0, 0, 0, 0, 0, 0.21672038733959198, -22.190479278564453, -0.23132599890232086
35669, 0.07707943767309189, -0.08356185257434845, 0.06802025437355042, 0.130668506026268, 0.016725942492485046, 0.04393085837364197, -0.001428157789632678, -0.0037997616454958916, 1.0009413957595825, 0.21750852465629578, -22.20450782775879, -0.23143920302391052, 0.0, 0.0, 0.0, 0, 0, 0, 0, 0, 0, 0.21750852465629578, -22.20450782775879, -0.23143920302391052
35679, 0.07835198193788528, -0.08372481912374496, 0.06905490905046463, -0.18937061727046967, -0.033125851303339005, 1.3846977708453778e-05, -0.0009974429849535227, -0.0034897804725915194, 0.9991962909698486, 0.21829628944396973, -22.218542098999023, -0.23155245184898376, 0.0, 0.0, 0.0, 0, 0, 0, 0, 0, 0, 0.21829628944396973, -22.218542098999023, -0.23155245184898376
35689, 0.07736655324697495, -0.08269790560007095, 0.06961901485919952, 0.06800249218940735, 0.1901726871728897, 0.03507629409432411, -0.002263794420287013, -0.0032347049564123154, 0.9985833764076233, 0.2190842181444168, -22.232582092285156, -0.23166565597057343, 0.0, 0.0, 0.0, 0, 0, 0, 0, 0, 0, 0.2190842181444168, -22.232582092285156, -0.23166565597057343
35699, 0.07785479724407196, -0.08479107916355133, 0.07059948146343231, -0.12499628216028214, -0.17225965857505798, -0.1576271802186966, 0.0015433048829436302, -0.003496809396892786, 1.0011401176452637, 0.2198721468448639, -22.246625900268555, -0.23177969455718994, 0.0, 0.0, 0.0, 0, 0, 0, 0, 0, 0, 0.2198721468448639, -22.246625900268555, -0.23177969455718994
35709, 0.07733538746833801, -0.08382469415664673, 0.06965123116970062, -0.05907636880874634, -0.23582406342029572, 0.28749266266822815, -0.00046398528502322733, -0.003705457551404834, 0.9997199773788452, 0.22066137194633484, -22.26067352294922, -0.23189380764961243, 0.0, 0.0, 0.0, 0, 0, 0, 0, 0, 0, 0.22066137194633484, -22.26067352294922, -0.23189380764961243
35719, 0.07684961706399918, -0.08165055513381958, 0.06897430121898651, 0.041101496666669846, -0.18965588510036469, -0.19322289526462555, -9.391995263285935e-05, -0.0018236369360238314, 1.0035903453826904, 0.22145268321037292, -22.27472686767578, -0.23200702667236328, 0.0, 0.0, 0.0, 0, 0, 0, 0, 0, 0, 0.22145268321037292, -22.27472686767578, -0.23200702667236328
35729, 0.07676763087511063, -0.08232075721025467, 0.06889156252145767, -0.0567733459174633, -0.02448897436261177, 0.0732516273856163, -0.0006282678223215044, -0.0036625529173761606, 1.0003433227539062, 0.22224514186382294, -22.28878402709961, -0.23211851716041565, 0.0, 0.0, 0.0, 0, 0, 0, 0, 0, 0, 0.22224514186382294, -22.28878402709961, -0.23211851716041565
35739, 0.0769154280424118, -0.08337046951055527, 0.06788145750761032, 0.107310451567173, 0.13065244257450104, -0.019916675984859467, -0.0017708137165755033, -0.004112329799681902, 1.002029299736023, 0.22303836047649384, -22.302845001220703, -0.23222842812538147, 0.0, 0.0, 0.0, 0, 0, 0, 0, 0, 0, 0.22303836047649384, -22.302845001220703, -0.23222842812538147
35749, 0.07679957151412964, -0.08404289186000824, 0.06838980317115784, -0.29591819643974304, -0.08801939338445663, -0.14193430542945862, -0.0038394611328840256, -0.004233710002154112, 1.0018118619918823, 0.22383134067058563, -22.316911697387695, -0.23233716189861298, 0.0, 0.0, 0.0, 0, 0, 0, 0, 0, 0, 0.22383134067058563, -22.316911697387695, -0.23233716189861298
35759, 0.07512125372886658, -0.0832490473985672, 0.06754599511623383, -0.053273849189281464, 0.0199523214250803, 0.23492686450481415, -0.0025252741761505604, -0.0030628663953393698, 0.9977474808692932, 0.22462278604507446, -22.330984115600586, -0.23244430124759674, 0.0, 0.0, 0.0, 0, 0, 0, 0, 0, 0, 0.22462278604507446, -22.330984115600586, -0.23244430124759674
35769, 0.07458791881799698, -0.08245153725147247, 0.06826743483543396, 0.15246036648750305, 0.13295678794384003, -0.16692635416984558, -0.0011896186042577028, -0.002420994685962796, 0.9990462064743042, 0.22541260719299316, -22.345060348510742, -0.23255173861980438, 0.0, 0.0, 0.0, 0, 0, 0, 0, 0, 0, 0.22541260719299316, -22.345060348510742, -0.23255173861980438
35779, 0.0755147784948349, -0.08261613547801971, 0.06730671972036362, -0.07845097780227661, -0.17292673885822296, -0.32267120480537415, 0.00028321388526819646, -0.0020904848352074623, 0.9992105960845947, 0.22620229423046112, -22.359140396118164, -0.23266078531742096, 0.0, 0.0, 0.0, 0, 0, 0, 0, 0, 0, 0.22620229423046112, -22.359140396118164, -0.23266078531742096
35789, 0.07492672652006149, -0.08069416880607605, 0.06546658277511597, 0.06473203003406525, 0.10738619416952133, 0.06396466493606567, -0.0031078713946044445, -0.005132253281772137, 1.0003066062927246, 0.22699286043643951, -22.37322425842285, -0.23277059197425842, 0.0, 0.0, 0.0, 0, 0, 0, 0, 0, 0, 0.22699286043643951, -22.37322425842285, -0.23277059197425842
35799, 0.07525977492332458, -0.08104857057332993, 0.0661412850022316, -0.1771300584077835, 0.12937664985656738, -0.0891539454460144, -0.001580329262651503, -0.005674197804182768, 1.003126621246338, 0.22778312861919403, -22.387313842773438, -0.2328801155090332, 0.0, 0.0, 0.0, 0, 0, 0, 0, 0, 0, 0.22778312861919403, -22.387313842773438, -0.2328801155090332
35809, 0.0745595172047615, -0.08281782269477844, 0.06533964723348618, 0.13083656132221222, 0.1383207142353058, 0.18621468544006348, -0.0009131848928518593, -0.0022126915864646435, 0.9996899366378784, 0.22857262194156647, -22.401409149169922, -0.23298794031143188, 0.0, 0.0, 0.0, 0, 0, 0, 0, 0, 0, 0.22857262194156647, -22.401409149169922, -0.23298794031143188
35819, 0.0749695748090744, -0.08319828659296036, 0.0661173090338707, -0.10477162897586823, 0.362304151058197, -0.08758702874183655, -0.001444056280888617, -0.0019609360024333, 1.0005532503128052, 0.22936221957206726, -22.415510177612305, -0.23309442400932312, 0.0, 0.0, 0.0, 0, 0, 0, 0, 0, 0, 0.22936221957206726, -22.415510177612305, -0.23309442400932312
35829, 0.07428868860006332, -0.08522633463144302, 0.0655515193939209, -0.09901820868253708, -0.16900472342967987, 0.22931602597236633, -0.0008854400366544724, -0.0014221073361113667, 0.9996448755264282, 0.23015205562114716, -22.42961311340332, -0.23320072889328003, 0.0, 0.0, 0.0, 0, 0, 0, 0, 0, 0, 0.23015205562114716, -22.42961311340332, -0.23320072889328003
35839, 0.07341219484806061, -0.08295378088951111, 0.06560889631509781, 0.014528014697134495, -0.049689169973134995, 0.3233010172843933, -0.0005600364529527724, -0.0021069443318992853, 0.9979097843170166, 0.23094230890274048, -22.4437198638916, -0.23330707848072052, 0.0, 0.0, 0.0, 0, 0, 0, 0, 0, 0, 0.23094230890274048, -22.4437198638916, -0.23330707848072052
35849, 0.07297079265117645, -0.0834309309720993, 0.0671943873167038, -0.04796816036105156, -0.1373915821313858, 0.0057965731248259544, 7.820685277692974e-05, -0.0033603915944695473, 1.0001704692840576, 0.2317333072423935, -22.45783042907715, -0.23341448605060577, 0.0, 0.0, 0.0, 0, 0, 0, 0, 0, 0, 0.2317333072423935, -22.45783042907715, -0.23341448605060577
35859, 0.07301411032676697, -0.08298012614250183, 0.06776025891304016, 0.33979561924934387, -0.28644442558288574, 0.17050504684448242, 0.0012711059534922242, -0.0027805515564978123, 0.9982372522354126, 0.23252572119235992, -22.47194480895996, -0.23352283239364624, 0.0, 0.0, 0.0, 0, 0, 0, 0, 0, 0, 0.23252572119235992, -22.47194480895996, -0.23352283239364624
35869, 0.07381010055541992, -0.08177155256271362, 0.0682826042175293, 0.16241054236888885, -0.21466833353042603, 0.08766903728246689, -0.0007393815903924406, -0.004629563074558973, 1.002321720123291, 0.2333201915025711, -22.48606300354004, -0.23363187909126282, 0.0, 0.0, 0.0, 0, 0, 0, 0, 0, 0, 0.2333201915025711, -22.48606300354004, -0.23363187909126282
35879, 0.07517250627279282, -0.08027932792901993, 0.06869646906852722, 0.035870444029569626, -0.08631093055009842, 0.17122620344161987, -0.0012136425357311964, -0.003983011469244957, 0.9989891052246094, 0.2341160625219345, -22.500186920166016, -0.23374079167842865, 0.0, 0.0, 0.0, 0, 0, 0, 0, 0, 0, 0.2341160625219345, -22.500186920166016, -0.23374079167842865
35889, 0.07528556883335114, -0.07918716967105865, 0.06845740228891373, 0.14534658193588257, -0.057626474648714066, -0.07347168028354645, -0.0006204483797773719, -0.004181036725640297, 0.9995892643928528, 0.2349124252796173, -22.51431655883789, -0.23384930193424225, 0.0, 0.0, 0.0, 0, 0, 0, 0, 0, 0, 0.2349124252796173, -22.51431655883789, -0.23384930193424225
35899, 0.07669690996408463, -0.07832817733287811, 0.06917618960142136, 0.01713632047176361, 0.11318355053663254, 0.2922978401184082, 0.0002974049421027303, -0.004368623252958059, 0.9984879493713379, 0.23570944368839264, -22.528451919555664, -0.233958438038826, 0.0, 0.0, 0.0, 0, 0, 0, 0, 0, 0, 0.23570944368839264, -22.528451919555664, -0.233958438038826
35909, 0.07633714377880096, -0.07820993661880493, 0.06917067617177963, -0.02106303907930851, 0.09707458317279816, -0.11019820719957352, -0.0014218399301171303, -0.0029719206504523754, 0.9967663288116455, 0.2365076243877411, -22.542591094970703, -0.23406866192817688, 0.0, 0.0, 0.0, 0, 0, 0, 0, 0, 0, 0.2365076243877411, -22.542591094970703, -0.23406866192817688
35919, 0.07730038464069366, -0.07697263360023499, 0.0686265081167221, 0.04922165349125862, -0.20069940388202667, -0.11230038851499557, 9.810109986574389e-06, -0.0030017613898962736, 1.0017445087432861, 0.23730666935443878, -22.55673599243164, -0.23418089747428894, 0.0, 0.0, 0.0, 0, 0, 0, 0, 0, 0, 0.23730666935443878, -22.55673599243164, -0.23418089747428894
35929, 0.0769444927573204, -0.07677360624074936, 0.0679946169257164, -0.07410847395658493, 0.17269957065582275, -0.318731427192688, 7.320012082345784e-05, -0.0018082850147038698, 1.0007612705230713, 0.23810651898384094, -22.570884704589844, -0.23429352045059204, 0.0, 0.0, 0.0, 0, 0, 0, 0, 0, 0, 0.23810651898384094, -22.570884704589844, -0.23429352045059204
35939, 0.07742978632450104, -0.07758321613073349, 0.06772071123123169, 0.07922130078077316, 0.21070235967636108, -0.0869155302643776, -0.0025630141608417034, -0.00397820258513093, 0.999570369720459, 0.2389075607061386, -22.585037231445312, -0.234405055642128, 0.0, 0.0, 0.0, 0, 0, 0, 0, 0, 0, 0.2389075607061386, -22.585037231445312, -0.234405055642128
35949, 0.0779954195022583, -0.07787131518125534, 0.06675499677658081, 0.13218672573566437, -0.005508169066160917, -0.1828569769859314, -0.00014572098734788597, -0.00356364157050848, 0.9982187747955322, 0.2397087663412094, -22.599193572998047, -0.23451656103134155, 0.0, 0.0, 0.0, 0, 0, 0, 0, 0, 0, 0.2397087663412094, -22.599193572998047, -0.23451656103134155
35959, 0.07754837721586227, -0.07748761028051376, 0.06639768928289413, 0.04395674169063568, 0.10559207946062088, -0.07407321035861969, -0.001088240765966475, -0.0027183988131582737, 1.0006002187728882, 0.24051012098789215, -22.61335563659668, -0.2346287965774536, 0.0, 0.0, 0.0, 0, 0, 0, 0, 0, 0, 0.24051012098789215, -22.61335563659668, -0.2346287965774536
35969, 0.0777883529663086, -0.07775247097015381, 0.06748701632022858, 0.04356662184000015, 0.0770644098520279, 0.1125670075416565, -0.0017809005221351981, -0.0027118257712572813, 1.0015887022018433, 0.24131208658218384, -22.627521514892578, -0.23474101722240448, 0.0, 0.0, 0.0, 0, 0, 0, 0, 0, 0, 0.24131208658218384, -22.627521514892578, -0.23474101722240448
35979, 0.0777883529663086, -0.07775247097015381, 0.06748701632022858, 0.04838714376091957, -0.005175473168492317, 0.01299656368792057, -0.0005520835402421653, -0.0032953033223748207, 1.001050353050232, 0.2421141117811203, -22.641691207885742, -0.2348521202802658, 0.0, 0.0, 0.0, 0, 0, 0, 0, 0, 0, 0.2421141117811203, -22.641691207885742, -0.2348521202802658
35989, 0.07782852649688721, -0.0783034935593605, 0.0691433921456337, 0.07017344981431961, 0.11032111197710037, 0.016774460673332214, 0.000270268035819754, -0.0030171724501997232, 0.9997788667678833, 0.2429969310760498, -22.657283782958984, -0.23497284948825836, 0.0, 0.0, 0.0, 0, 0, 0, 0, 0, 0, 0.2429969310760498, -22.657283782958984, -0.23497284948825836
35999, 0.07835518568754196, -0.07915526628494263, 0.06958846747875214, -0.18772810697555542, -0.2143295258283615, -0.02911810204386711, 0.00011800947686424479, -0.0024127154611051083, 0.9992743730545044, 0.24380087852478027, -22.671463012695312, -0.2350824773311615, 0.0, 0.0, 0.0, 0, 0, 0, 0, 0, 0, 0.24380087852478027, -22.671463012695312, -0.2350824773311615
36009, 0.07741035521030426, -0.07888759672641754, 0.07019554078578949, -0.11463455110788345, 0.182939812541008, 0.18689289689064026, -0.0022854681592434645, -0.0020243714097887278, 1.0001510381698608, 0.24468635022640228, -22.68706512451172, -0.23520387709140778, 0.0, 0.0, 0.0, 0, 0, 0, 0, 0, 0, 0.24468635022640228, -22.68706512451172, -0.23520387709140778
36019, 0.07585747539997101, -0.07913605868816376, 0.07010747492313385, 0.09258271753787994, -0.09555327147245407, -0.12946397066116333, -0.0012206751853227615, -0.0025882371701300144, 0.9989556670188904, 0.24549132585525513, -22.701251983642578, -0.235314279794693, 0.0, 0.0, 0.0, 0, 0, 0, 0, 0, 0, 0.24549132585525513, -22.701251983642578, -0.235314279794693
36029, 0.07636571675539017, -0.0791260153055191, 0.070254847407341, -0.12890374660491943, -0.0058243051171302795, 0.11113975942134857, 0.0007208511815406382, -0.0018551115645095706, 0.9974531531333923, 0.24629652500152588, -22.715442657470703, -0.23542563617229462, 0.0, 0.0, 0.0, 0, 0, 0, 0, 0, 0, 0.24629652500152588, -22.715442657470703, -0.23542563617229462
36039, 0.07617400586605072, -0.07849834114313126, 0.07009472697973251, -0.16336703300476074, 0.20368479192256927, 0.033396054059267044, 0.0002042554842773825, -0.003653060644865036, 0.998537540435791, 0.2471030056476593, -22.729637145996094, -0.23553875088691711, 0.0, 0.0, 0.0, 0, 0, 0, 0, 0, 0, 0.2471030056476593, -22.729637145996094, -0.23553875088691711
36049, 0.07520187646150589, -0.08127959072589874, 0.07044564932584763, -0.06933489441871643, 0.17322145402431488, -0.06510177999734879, -0.000764138123486191, -0.004469000268727541, 0.9981101155281067, 0.24791081249713898, -22.74383544921875, -0.23565343022346497, 0.0, 0.0, 0.0, 0, 0, 0, 0, 0, 0, 0.24791081249713898, -22.74383544921875, -0.23565343022346497
36059, 0.07532447576522827, -0.08143685758113861, 0.0695064589381218, 0.06888877600431442, 0.02339860424399376, -0.0364634208381176, -0.0020671982783824205, -0.0015339277451857924, 0.998450517654419, 0.2487189918756485, -22.758039474487305, -0.2357700914144516, 0.0, 0.0, 0.0, 0, 0, 0, 0, 0, 0, 0.2487189918756485, -22.758039474487305, -0.2357700914144516
36069, 0.07462604343891144, -0.07817234843969345, 0.06880579888820648, -0.007790781557559967, -0.2860127091407776, -0.04674983397126198, -8.21863068267703e-05, -0.002494947984814644, 1.0006059408187866, 0.24952715635299683, -22.772247314453125, -0.23588809370994568, 0.0, 0.0, 0.0, 0, 0, 0, 0, 0, 0, 0.24952715635299683, -22.772247314453125, -0.23588809370994568
36079, 0.07490069419145584, -0.08030885457992554, 0.0684422105550766, -0.03746141120791435, 0.23801498115062714, -0.1640467494726181, -6.252130697248504e-05, -0.0036811367608606815, 0.9994540810585022, 0.25033602118492126, -22.78645896911621, -0.236006498336792, 0.0, 0.0, 0.0, 0, 0, 0, 0, 0, 0, 0.25033602118492126, -22.78645896911621, -0.236006498336792
36089, 0.07351713627576828, -0.08070594817399979, 0.06848502159118652, 0.13918650150299072, -0.04791562631726265, -0.06463034451007843, 0.00041435466846451163, -0.004815985914319754, 1.0003899335861206, 0.25114643573760986, -22.800674438476562, -0.2361249476671219, 0.0, 0.0, 0.0, 0, 0, 0, 0, 0, 0, 0.25114643573760986, -22.800674438476562, -0.2361249476671219
36099, 0.07275562733411789, -0.08108887821435928, 0.06799787282943726, -0.22580507397651672, 0.042715102434158325, -0.15813209116458893, -0.0023452851455658674, -0.0032000739593058825, 0.9999990463256836, 0.2519581615924835, -22.814895629882812, -0.23624317348003387, 0.0, 0.0, 0.0, 0, 0, 0, 0, 0, 0, 0.2519581615924835, -22.814895629882812, -0.23624317348003387
36109, 0.07236049324274063, -0.08213450759649277, 0.068851999938488, 0.06308700144290924, 0.11542487144470215, 0.17076577246189117, -0.0009482023888267577, -0.0033279978670179844, 0.9988604784011841, 0.25276994705200195, -22.82912254333496, -0.23636136949062347, 0.0, 0.0, 0.0, 0, 0, 0, 0, 0, 0, 0.25276994705200195, -22.82912254333496, -0.23636136949062347
36119, 0.07177160680294037, -0.08214695006608963, 0.0693826749920845, 0.12699134647846222, -0.06402085721492767, 0.12591804563999176, -8.516865636920556e-05, -0.0041756764985620975, 0.9997075200080872, 0.2535819113254547, -22.843353271484375, -0.23648031055927277, 0.0, 0.0, 0.0, 0, 0, 0, 0, 0, 0, 0.2535819113254547, -22.843353271484375, -0.23648031055927277
36129, 0.07275883108377457, -0.0801774263381958, 0.06965244561433792, 0.09442383795976639, -0.014232068322598934, -0.11116227507591248, -0.0012458430137485266, -0.00285571301355958, 1.000382661819458, 0.2543947100639343, -22.857589721679688, -0.23659999668598175, 0.0, 0.0, 0.0, 0, 0, 0, 0, 0, 0, 0.2543947100639343, -22.857589721679688, -0.23659999668598175
36139, 0.07302052527666092, -0.07896103709936142, 0.06805166602134705, -0.032966289669275284, 0.09601284563541412, 0.0023504432756453753, -0.0015503228642046452, -0.003690095851197839, 1.000680923461914, 0.25520777702331543, -22.871829986572266, -0.23671910166740417, 0.0, 0.0, 0.0, 0, 0, 0, 0, 0, 0, 0.25520777702331543, -22.871829986572266, -0.23671910166740417
36149, 0.07313212752342224, -0.07807184755802155, 0.0693555548787117, -0.05743696913123131, 0.10424212366342545, -0.006265248171985149, 0.0004525407566688955, -0.004269489087164402, 1.0006989240646362, 0.25602099299430847, -22.88607406616211, -0.23683767020702362, 0.0, 0.0, 0.0, 0, 0, 0, 0, 0, 0, 0.25602099299430847, -22.88607406616211, -0.23683767020702362
36159, 0.07413304597139359, -0.07695993036031723, 0.06923440098762512, -0.023788684979081154, -0.3461797833442688, 0.010465619154274464, -0.0006417347467504442, -0.002533324994146824, 1.0003656148910522, 0.25683534145355225, -22.90032386779785, -0.23695601522922516, 0.0, 0.0, 0.0, 0, 0, 0, 0, 0, 0, 0.25683534145355225, -22.90032386779785, -0.23695601522922516
36169, 0.07400894165039062, -0.07809269428253174, 0.06984332948923111, 0.13155342638492584, 0.04941230267286301, 0.13780154287815094, 0.0014835919719189405, -0.0022479454055428505, 1.0006388425827026, 0.25765112042427063, -22.91457748413086, -0.23707357048988342, 0.0, 0.0, 0.0, 0, 0, 0, 0, 0, 0, 0.25765112042427063, -22.91457748413086, -0.23707357048988342
36179, 0.07371077686548233, -0.0771159827709198, 0.07053332030773163, -0.0732051357626915, 0.041042305529117584, 0.010604367591440678, 0.001306078745983541, -0.003644058248028159, 0.9988201856613159, 0.258468896150589, -22.928834915161133, -0.23719090223312378, 0.0, 0.0, 0.0, 0, 0, 0, 0, 0, 0, 0.258468896150589, -22.928834915161133, -0.23719090223312378
36189, 0.072969451546669, -0.07634113729000092, 0.06958477944135666, 0.09167978167533875, -0.0387912318110466, -0.3017629086971283, 0.0003436164406593889, -0.0014448626898229122, 1.0024429559707642, 0.2592891454696655, -22.943096160888672, -0.2373080998659134, 0.0, 0.0, 0.0, 0, 0, 0, 0, 0, 0, 0.2592891454696655, -22.943096160888672, -0.2373080998659134
36199, 0.07303579896688461, -0.07603760808706284, 0.06913904845714569, 0.06539615988731384, -0.2560698986053467, -0.02119290642440319, -0.00026653133681975305, -0.0015095943817868829, 1.0002152919769287, 0.2601110637187958, -22.957361221313477, -0.2374243587255478, 0.0, 0.0, 0.0, 0, 0, 0, 0, 0, 0, 0.2601110637187958, -22.957361221313477, -0.2374243587255478
36209, 0.07312822341918945, -0.07537752389907837, 0.0678287222981453, 0.06546161323785782, 0.36293983459472656, -0.10267956554889679, -0.0026914409827440977, -0.00344194401986897, 0.9975269436836243, 0.26093387603759766, -22.971630096435547, -0.2375400960445404, 0.0, 0.0, 0.0, 0, 0, 0, 0, 0, 0, 0.26093387603759766, -22.971630096435547, -0.2375400960445404
36219, 0.07208575308322906, -0.07605163007974625, 0.06716796010732651, -0.016221147030591965, 0.480745792388916, -0.10272660106420517, 8.618811261840165e-05, -0.003516188822686672, 0.9981414675712585, 0.2617565095424652, -22.98590087890625, -0.23765721917152405, 0.0, 0.0, 0.0, 0, 0, 0, 0, 0, 0, 0.2617565095424652, -22.98590087890625, -0.23765721917152405
36229, 0.0730927363038063, -0.07666623592376709, 0.06631934642791748, 0.06852990388870239, -0.13033443689346313, -0.057784393429756165, -0.0010987611021846533, -0.0060302275232970715, 1.0009346008300781, 0.26257964968681335, -23.00017738342285, -0.23777617514133453, 0.0, 0.0, 0.0, 0, 0, 0, 0, 0, 0, 0.26257964968681335, -23.00017738342285, -0.23777617514133453
36239, 0.07365459203720093, -0.07619047164916992, 0.06511940062046051, 0.07810042053461075, 0.0036044518928974867, 0.16006247699260712, -0.0010734469396993518, -0.004575232043862343, 1.0026257038116455, 0.26340362429618835, -23.01445960998535, -0.23789463937282562, 0.0, 0.0, 0.0, 0, 0, 0, 0, 0, 0, 0.26340362429618835, -23.01445960998535, -0.23789463937282562
36249, 0.07161837071180344, -0.07549881190061569, 0.06436609476804733, -0.25396931171417236, -0.11262454837560654, -0.15872180461883545, -0.0007888643885962665, -0.0019547692500054836, 0.9995912909507751, 0.2642276883125305, -23.02874755859375, -0.23801124095916748, 0.0, 0.0, 0.0, 0, 0, 0, 0, 0, 0, 0.2642276883125305, -23.02874755859375, -0.23801124095916748
36259, 0.07167548686265945, -0.0753900334239006, 0.06468488276004791, 0.0778755247592926, -0.21172989904880524, -0.08907818049192429, -0.0007345853373408318, -0.0021045159082859755, 0.9997362494468689, 0.2650519907474518, -23.043039321899414, -0.2381272315979004, 0.0, 0.0, 0.0, 0, 0, 0, 0, 0, 0, 0.2650519907474518, -23.043039321899414, -0.2381272315979004
36269, 0.07147052884101868, -0.07588185369968414, 0.065739206969738, 0.0977039635181427, 0.14375995099544525, 0.1282036155462265, -0.000385654071578756, -0.0032072789035737514, 1.0001797676086426, 0.2658767104148865, -23.057334899902344, -0.23824366927146912, 0.0, 0.0, 0.0, 0, 0, 0, 0, 0, 0, 0.2658767104148865, -23.057334899902344, -0.23824366927146912
36279, 0.07208117842674255, -0.07504105567932129, 0.06666269153356552, 0.14854003489017487, 0.0010295409010723233, 0.11817744374275208, -0.0017387968255206943, -0.0037094196304678917, 0.9998454451560974, 0.26670175790786743, -23.07163429260254, -0.23836052417755127, 0.0, 0.0, 0.0, 0, 0, 0, 0, 0, 0, 0.26670175790786743, -23.07163429260254, -0.23836052417755127
36289, 0.07270530611276627, -0.07487802952528, 0.06793331354856491, 0.10759472846984863, 0.2023082971572876, -0.08439229428768158, -0.0003761789412237704, -0.0028913733549416065, 1.0006405115127563, 0.2675268352031708, -23.085939407348633, -0.2384774088859558, 0.0, 0.0, 0.0, 0, 0, 0, 0, 0, 0, 0.2675268352031708, -23.085939407348633, -0.2384774088859558
36299, 0.07373284548521042, -0.07537928968667984, 0.06843376904726028, 0.09212099015712738, -0.011663361452519894, 0.1486375480890274, -0.0011636008275672793, -0.004679866135120392, 1.0012871026992798, 0.2683524489402771, -23.100248336791992, -0.23859387636184692, 0.0, 0.0, 0.0, 0, 0, 0, 0, 0, 0, 0.2683524489402771, -23.100248336791992, -0.23859387636184692
36309, 0.07409527897834778, -0.07659420371055603, 0.06898469477891922, 0.05187629908323288, -0.2387101650238037, 0.2451992630958557, -0.0029407981783151627, -0.002304712776094675, 0.9991660714149475, 0.2691784203052521, -23.11456298828125, -0.23870980739593506, 0.0, 0.0, 0.0, 0, 0, 0, 0, 0, 0, 0.2691784203052521, -23.11456298828125, -0.23870980739593506
36319, 0.0734005942940712, -0.07398836314678192, 0.06951814144849777, 0.03416145592927933, -0.09304223209619522, 0.0913539007306099, -0.0016108021372929215, -0.0018862230936065316, 0.9998714327812195, 0.2700037360191345, -23.128881454467773, -0.23882615566253662, 0.0, 0.0, 0.0, 0, 0, 0, 0, 0, 0, 0.2700037360191345, -23.128881454467773, -0.23882615566253662
36329, 0.07422628998756409, -0.07246795296669006, 0.06897228211164474, 0.020924163982272148, -0.17958536744117737, 0.10321216285228729, -0.0008788890554569662, -0.0029837063048034906, 0.999890923500061, 0.2708287835121155, -23.143203735351562, -0.23894280195236206, 0.0, 0.0, 0.0, 0, 0, 0, 0, 0, 0, 0.2708287835121155, -23.143203735351562, -0.23894280195236206
36339, 0.07420683652162552, -0.07170996069908142, 0.07029411196708679, 0.18523915112018585, 0.039743080735206604, 0.022869909182190895, -0.0038597481325268745, -0.002774216467514634, 1.0008286237716675, 0.27165350317955017, -23.157529830932617, -0.23905879259109497, 0.0, 0.0, 0.0, 0, 0, 0, 0, 0, 0, 0.27165350317955017, -23.157529830932617, -0.23905879259109497
36349, 0.07449667900800705, -0.07095556706190109, 0.07084687054157257, -0.033198289573192596, -0.2093493938446045, -0.01701621524989605, -0.00228292727842927, -0.004861933644860983, 1.0009721517562866, 0.2724764049053192, -23.171859741210938, -0.23917444050312042, 0.0, 0.0, 0.0, 0, 0, 0, 0, 0, 0, 0.2724764049053192, -23.171859741210938, -0.23917444050312042
36359, 0.07437104731798172, -0.07049424946308136, 0.07076399773359299, -0.0823340117931366, -0.005330406595021486, -0.19384537637233734, 0.00015433710359502584, -0.003843887010589242, 0.9997677206993103, 0.2732979655265808, -23.186195373535156, -0.23928941786289215, 0.0, 0.0, 0.0, 0, 0, 0, 0, 0, 0, 0.2732979655265808, -23.186195373535156, -0.23928941786289215
36369, 0.07392416894435883, -0.06976265460252762, 0.07002892345190048, 0.1205928698182106, 0.09078636020421982, 0.13107243180274963, -0.002243748400360346, -0.003860804019495845, 1.000964641571045, 0.27411991357803345, -23.200536727905273, -0.23940351605415344, 0.0, 0.0, 0.0, 0, 0, 0, 0, 0, 0, 0.27411991357803345, -23.200536727905273, -0.23940351605415344
36379, 0.07524359226226807, -0.0726282149553299, 0.07094558328390121, -0.08572719246149063, 0.05966750904917717, -0.22666198015213013, -0.0010118787176907063, -0.003214034717530012, 0.997742235660553, 0.2749418020248413, -23.214881896972656, -0.2395174503326416, 0.0, 0.0, 0.0, 0, 0, 0, 0, 0, 0, 0.2749418020248413, -23.214881896972656, -0.2395174503326416
36389, 0.07446891814470291, -0.07313486933708191, 0.07113979756832123, -0.0012689734576269984, 0.16988638043403625, -0.011944077908992767, -0.0007050601998344064, -0.0048446934670209885, 0.9989288449287415, 0.2757633626461029, -23.229232788085938, -0.2396324723958969, 0.0, 0.0, 0.0, 0, 0, 0, 0, 0, 0, 0.2757633626461029, -23.229232788085938, -0.2396324723958969
36399, 0.07419247180223465, -0.07458009570837021, 0.07099355757236481, 0.1768401563167572, -0.09298492968082428, -0.03133738040924072, -0.0002639539015945047, -0.003483246546238661, 1.000997543334961, 0.27658531069755554, -23.243589401245117, -0.23974870145320892, 0.0, 0.0, 0.0, 0, 0, 0, 0, 0, 0, 0.27658531069755554, -23.243589401245117, -0.23974870145320892
36409, 0.07489347457885742, -0.07383811473846436, 0.07101040333509445, -0.08302483707666397, -0.07538709044456482, -0.11735083907842636, -0.0007765506161376834, -0.0008571647340431809, 0.9992443919181824, 0.2774078845977783, -23.257951736450195, -0.23986443877220154, 0.0, 0.0, 0.0, 0, 0, 0, 0, 0, 0, 0.2774078845977783, -23.257951736450195, -0.23986443877220154
36419, 0.07360440492630005, -0.07495908439159393, 0.07098041474819183, 0.11945135146379471, -0.008483843877911568, 0.2663137912750244, 0.00025637407088652253, -0.002473246306180954, 0.9995334148406982, 0.27823129296302795, -23.272315979003906, -0.2399800568819046, 0.0, 0.0, 0.0, 0, 0, 0, 0, 0, 0, 0.27823129296302795, -23.272315979003906, -0.2399800568819046
36429, 0.07369179278612137, -0.07487176358699799, 0.07109104841947556, -0.15495482087135315, 0.15248706936836243, 0.13850241899490356, -0.0011098022805526853, -0.002363306237384677, 0.9981549978256226, 0.279055655002594, -23.286684036254883, -0.24009673297405243, 0.0, 0.0, 0.0, 0, 0, 0, 0, 0, 0, 0.279055655002594, -23.286684036254883, -0.24009673297405243
36439, 0.07351646572351456, -0.07518117129802704, 0.0715237408876419, 0.03411602973937988, 0.04699494317173958, 0.13198243081569672, -0.0007123870891518891, -0.0018292871536687016, 0.9996376037597656, 0.2798808813095093, -23.301055908203125, -0.2402142733335495, 0.0, 0.0, 0.0, 0, 0, 0, 0, 0, 0, 0.2798808813095093, -23.301055908203125, -0.2402142733335495
36449, 0.07335943728685379, -0.07583826035261154, 0.07195785641670227, -0.0262294914573431, 0.16875483095645905, -0.06983042508363724, -0.0017022673273459077, -0.0022335120011121035, 1.0008431673049927, 0.2807064652442932, -23.3154296875, -0.24033254384994507, 0.0, 0.0, 0.0, 0, 0, 0, 0, 0, 0, 0.2807064652442932, -23.3154296875, -0.24033254384994507
36459, 0.07377058267593384, -0.07655686885118484, 0.07165855169296265, 0.03146950900554657, 0.31729522347450256, 0.02824682556092739, -0.001461503328755498, -0.0009942506439983845, 1.0001081228256226, 0.28153204917907715, -23.32980728149414, -0.24045036733150482, 0.0, 0.0, 0.0, 0, 0, 0, 0, 0, 0, 0.28153204917907715, -23.32980728149414, -0.24045036733150482
36469, 0.07341014593839645, -0.07663828134536743, 0.07101187855005264, 0.03556562215089798, -0.1377054750919342, -0.10025998950004578, -0.0012569122482091188, -0.0039222934283316135, 0.9990798234939575, 0.2823576033115387, -23.344186782836914, -0.24056753516197205, 0.0, 0.0, 0.0, 0, 0, 0, 0, 0, 0, 0.2823576033115387, -23.344186782836914, -0.24056753516197205
36479, 0.07367102801799774, -0.07698705792427063, 0.07055433839559555, -0.18504737317562103, 0.037053629755973816, 0.2388419806957245, -0.0007556577911600471, -0.00262382160872221, 0.9992526173591614, 0.28318333625793457, -23.358570098876953, -0.2406855672597885, 0.0, 0.0, 0.0, 0, 0, 0, 0, 0, 0, 0.28318333625793457, -23.358570098876953, -0.2406855672597885
36489, 0.07384578883647919, -0.07776414602994919, 0.07160923629999161, 0.08838807791471481, 0.22945737838745117, -0.024055838584899902, -0.002043260959908366, -0.0025082158390432596, 1.0000044107437134, 0.2840093672275543, -23.37295913696289, -0.24080431461334229, 0.0, 0.0, 0.0, 0, 0, 0, 0, 0, 0, 0.2840093672275543, -23.37295913696289, -0.24080431461334229
36499, 0.07371417433023453, -0.07805626094341278, 0.07160545140504837, -0.10210727900266647, 0.20389482378959656, -0.03920114412903786, -0.0031547483522444963, -0.004992220550775528, 0.999730110168457, 0.28483495116233826, -23.387351989746094, -0.24092335999011993, 0.0, 0.0, 0.0, 0, 0, 0, 0, 0, 0, 0.28483495116233826, -23.387351989746094, -0.24092335999011993
36509, 0.07356253266334534, -0.07921518385410309, 0.07117629796266556, -0.04416842386126518, -0.029107382521033287, -0.22567866742610931, -0.003129415214061737, -0.003768111579120159, 0.9996633529663086, 0.2856588661670685, -23.401750564575195, -0.2410425990819931, 0.0, 0.0, 0.0, 0, 0, 0, 0, 0, 0, 0.2856588661670685, -23.401750564575195, -0.2410425990819931
36519, 0.07236931473016739, -0.07965493202209473, 0.07154812663793564, -0.07674957811832428, 0.2359364777803421, 0.1803133487701416, 0.0003416919207666069, -0.0038030778523534536, 1.0018750429153442, 0.2864812910556793, -23.416152954101562, -0.24116137623786926, 0.0, 0.0, 0.0, 0, 0, 0, 0, 0, 0, 0.2864812910556793, -23.416152954101562, -0.24116137623786926
36529, 0.07243933528661728, -0.08175118267536163, 0.07148319482803345, -0.07208025455474854, 0.04732314869761467, 0.11078892648220062, -0.0011353890877217054, -0.003846257459372282, 1.0007456541061401, 0.2873040437698364, -23.430561065673828, -0.2412792593240738, 0.0, 0.0, 0.0, 0, 0, 0, 0, 0, 0, 0.2873040437698364, -23.430561065673828, -0.2412792593240738
36539, 0.07243620604276657, -0.08227424323558807, 0.07168266177177429, 0.04196348786354065, 0.1634858250617981, -0.12107673287391663, -0.0010659476974979043, -0.004042078275233507, 1.0008695125579834, 0.2881275415420532, -23.44497299194336, -0.24139606952667236, 0.0, 0.0, 0.0, 0, 0, 0, 0, 0, 0, 0.2881275415420532, -23.44497299194336, -0.24139606952667236
36549, 0.07189787179231644, -0.0835486501455307, 0.07187796384096146, 0.0025939331389963627, -0.033011190593242645, 0.04652058333158493, -0.0011833622120320797, -0.001806922140531242, 1.0008326768875122, 0.2889511287212372, -23.45939064025879, -0.24151194095611572, 0.0, 0.0, 0.0, 0, 0, 0, 0, 0, 0, 0.2889511287212372, -23.45939064025879, -0.24151194095611572
36559, 0.07173151522874832, -0.08452896773815155, 0.07201217114925385, 0.013727117329835892, 0.24154384434223175, 0.03452399745583534, -0.000959038850851357, -0.0006800235714763403, 0.9982988238334656, 0.2897750437259674, -23.473812103271484, -0.2416272610425949, 0.0, 0.0, 0.0, 0, 0, 0, 0, 0, 0, 0.2897750437259674, -23.473812103271484, -0.2416272610425949
36569, 0.07095377147197723, -0.08544284850358963, 0.07205255329608917, 0.028921274468302727, -0.20299848914146423, -0.12174495309591293, -0.0019903352949768305, -0.0011607669293880463, 0.9995335340499878, 0.2905993163585663, -23.488235473632812, -0.24174317717552185, 0.0, 0.0, 0.0, 0, 0, 0, 0, 0, 0, 0.2905993163585663, -23.488235473632812, -0.24174317717552185
36579, 0.07065115869045258, -0.08652163296937943, 0.06963489204645157, -0.1498887687921524, 0.03453774005174637, -0.039564553648233414, -0.0024553898256272078, -0.0016888573300093412, 1.00046968460083, 0.2914235591888428, -23.502660751342773, -0.2418598085641861, 0.0, 0.0, 0.0, 0, 0, 0, 0, 0, 0, 0.2914235591888428, -23.502660751342773, -0.2418598085641861
36589, 0.07129783183336258, -0.08696722984313965, 0.06936252862215042, 0.10321339964866638, 0.35752907395362854, 0.19534023106098175, -0.0019158323993906379, -0.00295606954023242, 1.0012991428375244, 0.2922472059726715, -23.51708984375, -0.241975799202919, 0.0, 0.0, 0.0, 0, 0, 0, 0, 0, 0, 0.2922472059726715, -23.51708984375, -0.241975799202919
36599, 0.07183089107275009, -0.08731670677661896, 0.06923701614141464, -0.1331728845834732, 0.12819145619869232, -0.057671189308166504, -0.0004694871313404292, -0.0016223479760810733, 1.000671148300171, 0.2930704653263092, -23.53152084350586, -0.24209073185920715, 0.0, 0.0, 0.0, 0, 0, 0, 0, 0, 0, 0.2930704653263092, -23.53152084350586, -0.24209073185920715
36609, 0.07173413038253784, -0.08795348554849625, 0.06960318237543106, -0.08349283039569855, 0.03806542232632637, -0.07815703749656677, -0.0010102711385115981, -0.0018145096255466342, 0.9995521306991577, 0.2938942313194275, -23.545955657958984, -0.24220502376556396, 0.0, 0.0, 0.0, 0, 0, 0, 0, 0, 0, 0.2938942313194275, -23.545955657958984, -0.24220502376556396
36619, 0.07172048836946487, -0.08781363070011139, 0.06895217299461365, 0.0059523070231080055, 0.09149825572967529, -0.20646072924137115, -0.0011949366889894009, -0.003100160975009203, 0.9998581409454346, 0.2947184145450592, -23.560394287109375, -0.24231939017772675, 0.0, 0.0, 0.0, 0, 0, 0, 0, 0, 0, 0.2947184145450592, -23.560394287109375, -0.24231939017772675
36629, 0.07268106937408447, -0.08753255009651184, 0.06885059177875519, -0.12789519131183624, -0.16772177815437317, 0.2263873666524887, -0.0006856731488369405, -0.004363951273262501, 0.999244213104248, 0.29554298520088196, -23.57483673095703, -0.24243420362472534, 0.0, 0.0, 0.0, 0, 0, 0, 0, 0, 0, 0.29554298520088196, -23.57483673095703, -0.24243420362472534
36639, 0.07212105393409729, -0.08673130720853806, 0.06848887354135513, 0.01753731071949005, -0.18320144712924957, -0.10722846537828445, -0.0008023327682167292, -0.003847261192277074, 0.9973171353340149, 0.29636847972869873, -23.589282989501953, -0.2425495982170105, 0.0, 0.0, 0.0, 0, 0, 0, 0, 0, 0, 0.29636847972869873, -23.589282989501953, -0.2425495982170105
36649, 0.07166791707277298, -0.08461681753396988, 0.0689556747674942, -0.126881405711174, -0.16827361285686493, -0.0748300775885582, -0.0021210946142673492, -0.004192401189357042, 0.998140275478363, 0.29719454050064087, -23.603734970092773, -0.24266694486141205, 0.0, 0.0, 0.0, 0, 0, 0, 0, 0, 0, 0.29719454050064087, -23.603734970092773, -0.24266694486141205
36659, 0.07100965827703476, -0.08337606489658356, 0.06862832605838776, 0.057060398161411285, -8.790427818894386e-05, 0.3642704486846924, -0.003341060597449541, -0.004656553268432617, 0.9986359477043152, 0.2980199158191681, -23.618192672729492, -0.24278618395328522, 0.0, 0.0, 0.0, 0, 0, 0, 0, 0, 0, 0.2980199158191681, -23.618192672729492, -0.24278618395328522
36669, 0.07022173702716827, -0.08374927937984467, 0.0702321007847786, -0.048467401415109634, 0.10436788946390152, -0.015438335947692394, -0.001353579806163907, -0.0024887812323868275, 0.9993316531181335, 0.29884418845176697, -23.63265609741211, -0.242906391620636, 0.0, 0.0, 0.0, 0, 0, 0, 0, 0, 0, 0.29884418845176697, -23.63265609741211, -0.242906391620636
36679, 0.07066304236650467, -0.08532543480396271, 0.07194121181964874, -0.06972086429595947, 0.037866611033678055, 0.11035501956939697, -0.0008054306381382048, -0.0010218411916866899, 1.0003076791763306, 0.2996681332588196, -23.647123336791992, -0.2430276870727539, 0.0, 0.0, 0.0, 0, 0, 0, 0, 0, 0, 0.2996681332588196, -23.647123336791992, -0.2430276870727539
36689, 0.07007241249084473, -0.08698543906211853, 0.07245726883411407, 0.02798827923834324, 0.13527384400367737, 0.09018658101558685, -0.0001205050284625031, -0.0019146730192005634, 1.0006606578826904, 0.3004927337169647, -23.661592483520508, -0.24314895272254944, 0.0, 0.0, 0.0, 0, 0, 0, 0, 0, 0, 0.3004927337169647, -23.661592483520508, -0.24314895272254944
36699, 0.07011531293392181, -0.08690523356199265, 0.07302405685186386, -0.0757874846458435, -0.019032198935747147, -0.2791927754878998, -0.0005352312000468373, -0.0021255614701658487, 1.0005881786346436, 0.30131861567497253, -23.67606544494629, -0.2432693988084793, 0.0, 0.0, 0.0, 0, 0, 0, 0, 0, 0, 0.30131861567497253, -23.67606544494629, -0.2432693988084793
36709, 0.07084396481513977, -0.08789903670549393, 0.07155390083789825, 0.2811591327190399, 0.05512320250272751, 0.038034938275814056, -0.0013014153810217977, -0.0031916662119328976, 1.0006015300750732, 0.30214545130729675, -23.690542221069336, -0.24338944256305695, 0.0, 0.0, 0.0, 0, 0, 0, 0, 0, 0, 0.30214545130729675, -23.690542221069336, -0.24338944256305695
36719, 0.0714176669716835, -0.08836668729782104, 0.07232067734003067, -0.006351737771183252, 0.2992119789123535, -0.12284824252128601, -0.001954447478055954, -0.005206945817917585, 1.0010552406311035, 0.302972674369812, -23.70502281188965, -0.24350868165493011, 0.0, 0.0, 0.0, 0, 0, 0, 0, 0, 0, 0.302972674369812, -23.70502281188965, -0.24350868165493011
36729, 0.07198239117860794, -0.09080424159765244, 0.07253876328468323, -0.04818057641386986, 0.23482422530651093, 0.10096032172441483, -1.9640774553408846e-05, -0.0031535823363810778, 0.9969743490219116, 0.3038000166416168, -23.71950912475586, -0.2436274141073227, 0.0, 0.0, 0.0, 0, 0, 0, 0, 0, 0, 0.3038000166416168, -23.71950912475586, -0.2436274141073227
36739, 0.07148446887731552, -0.08996221423149109, 0.07210713624954224, 0.2026677280664444, 0.1628209501504898, -0.026944423094391823, -0.0008243184420280159, -0.0028752577491104603, 0.9992368817329407, 0.3046279847621918, -23.733999252319336, -0.2437475025653839, 0.0, 0.0, 0.0, 0, 0, 0, 0, 0, 0, 0.3046279847621918, -23.733999252319336, -0.2437475025653839
36749, 0.07215989381074905, -0.08935533463954926, 0.07167933136224747, -0.03655450418591499, -0.016573423519730568, -0.07143016159534454, -0.001836681622080505, -0.0019190830644220114, 0.9988158345222473, 0.3054567575454712, -23.748493194580078, -0.2438691407442093, 0.0, 0.0, 0.0, 0, 0, 0, 0, 0, 0, 0.3054567575454712, -23.748493194580078, -0.2438691407442093
36759, 0.07209719717502594, -0.08933325111865997, 0.07227189093828201, 0.0766940712928772, -0.025231443345546722, -0.08859927207231522, -0.0017999622505158186, -0.0033906553871929646, 0.9971104860305786, 0.30628570914268494, -23.762990951538086, -0.2439921349287033, 0.0, 0.0, 0.0, 0, 0, 0, 0, 0, 0, 0.30628570914268494, -23.762990951538086, -0.2439921349287033
36769, 0.07162299752235413, -0.08887606859207153, 0.07181589305400848, -0.07914979755878448, -0.1057065948843956, -0.14498117566108704, -0.0017949026077985764, -0.0023516686633229256, 0.9998946785926819, 0.30711451172828674, -23.77749252319336, -0.24411708116531372, 0.0, 0.0, 0.0, 0, 0, 0, 0, 0, 0, 0.30711451172828674, -23.77749252319336, -0.24411708116531372
36779, 0.07186327874660492, -0.09022719413042068, 0.07046892493963242, -0.11048741638660431, 0.27161771059036255, -5.676180080627091e-05, -0.0018054682295769453, -0.0033664386719465256, 0.9973642230033875, 0.30794283747673035, -23.79199981689453, -0.24424339830875397, 0.0, 0.0, 0.0, 0, 0, 0, 0, 0, 0, 0.30794283747673035, -23.79199981689453, -0.24424339830875397
36789, 0.07193515449762344, -0.09057831019163132, 0.07068423926830292, -0.003414781531319022, -0.03280327841639519, -0.16014118492603302, -0.0020838496275246143, -0.0032638367265462875, 0.9982425570487976, 0.3087707459926605, -23.80651092529297, -0.24437136948108673, 0.0, 0.0, 0.0, 0, 0, 0, 0, 0, 0, 0.3087707459926605, -23.80651092529297, -0.24437136948108673
36799, 0.0714813694357872, -0.08926144242286682, 0.07021108269691467, 0.2192395031452179, -0.18274228274822235, -0.04025278985500336, -0.0031546158716082573, -0.004732294473797083, 0.9998950958251953, 0.30959805846214294, -23.821025848388672, -0.24450121819972992, 0.0, 0.0, 0.0, 0.0010750447399914265, -0.0025776629336178303, 0.04859961196780205, 1.255104534975291, -2.068546700699929, -0.23050643686923422, 0.30959805846214294, -23.821025848388672, -0.24450121819972992
