timeTick, roll, pitch, yaw, gyroX, gyroY, gyroZ, accX, accY, accZ, stateX, stateY, stateZ, target_x, target_y, target_z, otX, otY, otZ, otRoll, otPitch, otYaw, kalX, kalY, kalZ
338918, 0.08211173862218857, -0.08067318052053452, 0.07435005158185959, 0, 0, 0, 0, 0, 0, 0, 0, 0, 0, 0, 0, 0, 0, 0, 0, 0, 0, 0, 0, 0
338928, 0.08199965953826904, -0.07841568440198898, 0.07452902942895889, -0.03593473881483078, -0.2633858621120453, -0.031070781871676445, 0.0489446260035038, -0.003149265656247735, 0.9985442161560059, 31.051177978515625, -1.8834048509597778, -1.208136796951294, 0.0, 0.0, 0.0, 0, 0, 0, 0, 0, 0, 31.051177978515625, -1.8834048509597778, -1.208136796951294
338938, 0.08178995549678802, -0.0784599632024765, 0.0748138427734375, -0.021999580785632133, 0.013624808751046658, 0.1140587329864502, 0.04952287673950195, -0.001750841038301587, 0.9968323707580566, 31.106063842773438, -1.8869211673736572, -1.2102700471878052, 0.0, 0.0, 0.0, 0, 0, 0, 0, 0, 0, 31.106063842773438, -1.8869211673736572, -1.2102700471878052
338948, 0.08210151642560959, -0.08012890815734863, 0.07494085282087326, -0.011270866729319096, 0.14803308248519897, 0.06003300100564957, 0.04889213293790817, -0.0036980407312512398, 0.9957615733146667, 31.160999298095703, -1.8904411792755127, -1.212405800819397, 0.0, 0.0, 0.0, 0, 0, 0, 0, 0, 0, 31.160999298095703, -1.8904411792755127, -1.212405800819397
338958, 0.08277880400419235, -0.08057783544063568, 0.07452207058668137, 0.07041177898645401, 0.05765001103281975, -0.19809623062610626, 0.04837386682629585, -0.0028843721374869347, 0.997393012046814, 31.215984344482422, -1.8939653635025024, -1.2145452499389648, 0.0, 0.0, 0.0, 0, 0, 0, 0, 0, 0, 31.215984344482422, -1.8939653635025024, -1.2145452499389648
338968, 0.08169391006231308, -0.07889408618211746, 0.07509288936853409, -0.20038171112537384, -0.13174688816070557, 0.10120345652103424, 0.048511896282434464, -0.002613592427223921, 0.9983001351356506, 31.271018981933594, -1.8974943161010742, -1.2166879177093506, 0.0, 0.0, 0.0, 0, 0, 0, 0, 0, 0, 31.271018981933594, -1.8974943161010742, -1.2166879177093506
338978, 0.08237464725971222, -0.07831282913684845, 0.07484090328216553, 0.03771679103374481, -0.10249253362417221, -0.13710275292396545, 0.04746313393115997, -0.002640791004523635, 0.9973709583282471, 31.32610321044922, -1.9010274410247803, -1.2188327312469482, 0.0, 0.0, 0.0, 0, 0, 0, 0, 0, 0, 31.32610321044922, -1.9010274410247803, -1.2188327312469482
338988, 0.08321022987365723, -0.08020731061697006, 0.07537318021059036, -0.01967073790729046, 0.17717725038528442, 0.006252392660826445, 0.04877640679478645, -0.0020719997119158506, 0.9985952377319336, 31.381235122680664, -1.9045644998550415, -1.2209794521331787, 0.0, 0.0, 0.0, 0, 0, 0, 0, 0, 0, 31.381235122680664, -1.9045644998550415, -1.2209794521331787
338998, 0.08331262320280075, -0.07777144014835358, 0.07321719825267792, 0.017216747626662254, -0.18727032840251923, -0.22013038396835327, 0.048834428191185, -0.001941890106536448, 0.9960218667984009, 31.436416625976562, -1.9081051349639893, -1.223128080368042, 0.0, 0.0, 0.0, 0, 0, 0, 0, 0, 0, 31.436416625976562, -1.9081051349639893, -1.223128080368042
339008, 0.08459677547216415, -0.07787013053894043, 0.07409289479255676, 0.20146922767162323, 0.04639760032296181, 0.07699278742074966, 0.04728497564792633, -0.0012456363765522838, 0.9975117444992065, 31.49164581298828, -1.9116491079330444, -1.2252793312072754, 0.0, 0.0, 0.0, 0, 0, 0, 0, 0, 0, 31.49164581298828, -1.9116491079330444, -1.2252793312072754
339018, 0.08463285118341446, -0.07637161016464233, 0.07351437211036682, -0.029551560059189796, -0.24538961052894592, -0.12050752341747284, 0.04898644611239433, 0.0008487961604259908, 0.9967477321624756, 31.546924591064453, -1.9151959419250488, -1.227433681488037, 0.0, 0.0, 0.0, 0, 0, 0, 0, 0, 0, 31.546924591064453, -1.9151959419250488, -1.227433681488037
339028, 0.08437679708003998, -0.0765158161520958, 0.07401926070451736, -0.03841540589928627, 0.10410080850124359, 0.05947141349315643, 0.04712420329451561, -0.001365689910016954, 0.9976872801780701, 31.602251052856445, -1.9187445640563965, -1.2295910120010376, 0.0, 0.0, 0.0, 0, 0, 0, 0, 0, 0, 31.602251052856445, -1.9187445640563965, -1.2295910120010376
339038, 0.08365985751152039, -0.07729237526655197, 0.07430647313594818, -0.06783201545476913, 0.0911574736237526, 0.10745469480752945, 0.04918286204338074, 0.00011011034075636417, 1.000304102897644, 31.65762710571289, -1.9222949743270874, -1.2317509651184082, 0.0, 0.0, 0.0, 0, 0, 0, 0, 0, 0, 31.65762710571289, -1.9222949743270874, -1.2317509651184082
339048, 0.08463212847709656, -0.0764307901263237, 0.07337375730276108, 0.19067955017089844, 0.04837736114859581, 0.038836006075143814, 0.04688434675335884, -0.0018798214150592685, 0.9979321360588074, 31.713050842285156, -1.9258471727371216, -1.2339119911193848, 0.0, 0.0, 0.0, 0, 0, 0, 0, 0, 0, 31.713050842285156, -1.9258471727371216, -1.2339119911193848
339058, 0.0847540944814682, -0.0757078155875206, 0.07219872623682022, -0.0028938024770468473, -0.21755225956439972, -0.055460017174482346, 0.046797528862953186, -0.0028000667225569487, 0.9976621866226196, 31.768524169921875, -1.9294018745422363, -1.2360739707946777, 0.0, 0.0, 0.0, 0, 0, 0, 0, 0, 0, 31.768524169921875, -1.9294018745422363, -1.2360739707946777
339068, 0.08408375084400177, -0.07633413374423981, 0.07181783765554428, -0.06316757202148438, 0.17096760869026184, 0.019973434507846832, 0.04711207374930382, -0.003055362496525049, 0.9973899722099304, 31.82404327392578, -1.9329602718353271, -1.2382380962371826, 0.0, 0.0, 0.0, 0, 0, 0, 0, 0, 0, 31.82404327392578, -1.9329602718353271, -1.2382380962371826
339078, 0.08392523974180222, -0.0752851665019989, 0.074032723903656, -0.07791109383106232, -0.0350944921374321, 0.2801141142845154, 0.049556925892829895, -0.00345697533339262, 0.9991335272789001, 31.879610061645508, -1.9365229606628418, -1.240404486656189, 0.0, 0.0, 0.0, 0, 0, 0, 0, 0, 0, 31.879610061645508, -1.9365229606628418, -1.240404486656189
339088, 0.08400093764066696, -0.07311581820249557, 0.07343391329050064, -0.05744612589478493, -0.23638536036014557, -0.005814478732645512, 0.05114569514989853, -0.0036890271585434675, 0.9973528385162354, 31.935226440429688, -1.940090298652649, -1.242572546005249, 0.0, 0.0, 0.0, 0, 0, 0, 0, 0, 0, 31.935226440429688, -1.940090298652649, -1.242572546005249
339098, 0.08367998152971268, -0.07246049493551254, 0.07212202996015549, -0.05996691435575485, -0.017154613509774208, -0.1711982935667038, 0.05159791186451912, -0.002369852038100362, 0.9973334670066833, 31.99089241027832, -1.9436625242233276, -1.2447423934936523, 0.0, 0.0, 0.0, 0, 0, 0, 0, 0, 0, 31.99089241027832, -1.9436625242233276, -1.2447423934936523
339108, 0.08357378095388412, -0.07384832203388214, 0.07173823565244675, -0.07372338324785233, 0.17067620158195496, 0.014099773950874805, 0.04857549071311951, -0.0026467053685337305, 0.9963408708572388, 32.04661178588867, -1.9472391605377197, -1.2469147443771362, 0.0, 0.0, 0.0, 0, 0, 0, 0, 0, 0, 32.04661178588867, -1.9472391605377197, -1.2469147443771362
339118, 0.08344383537769318, -0.07298094779253006, 0.07235097140073776, 0.07536765933036804, -0.16166147589683533, 0.1610834151506424, 0.047560568898916245, -0.004690247587859631, 0.9976117610931396, 32.102378845214844, -1.9508198499679565, -1.2490901947021484, 0.0, 0.0, 0.0, 0, 0, 0, 0, 0, 0, 32.102378845214844, -1.9508198499679565, -1.2490901947021484
339128, 0.08304019272327423, -0.07465215772390366, 0.07149054855108261, -0.0682707130908966, 0.11461798846721649, -0.13641688227653503, 0.047172583639621735, -0.0019416895229369402, 0.9973578453063965, 32.15819549560547, -1.9544055461883545, -1.2512685060501099, 0.0, 0.0, 0.0, 0, 0, 0, 0, 0, 0, 32.15819549560547, -1.9544055461883545, -1.2512685060501099
339138, 0.08295555412769318, -0.07629399746656418, 0.07117334753274918, -0.011894701048731804, 0.18939416110515594, -0.10495573282241821, 0.04869246482849121, -0.0003819997946266085, 0.9980366230010986, 32.21406173706055, -1.9579956531524658, -1.2534490823745728, 0.0, 0.0, 0.0, 0, 0, 0, 0, 0, 0, 32.21406173706055, -1.9579956531524658, -1.2534490823745728
339148, 0.0823981910943985, -0.0769885703921318, 0.0707034021615982, -0.03694133460521698, 0.08467031270265579, 0.014951637014746666, 0.04897268861532211, -0.002214487176388502, 0.9990895390510559, 32.26997375488281, -1.9615883827209473, -1.2556318044662476, 0.0, 0.0, 0.0, 0, 0, 0, 0, 0, 0, 32.26997375488281, -1.9615883827209473, -1.2556318044662476
339158, 0.0809352919459343, -0.07700619101524353, 0.07086534053087234, -0.028054971247911453, -0.1435345709323883, 0.22055743634700775, 0.04906515032052994, -0.004993099719285965, 0.9983218312263489, 32.32593536376953, -1.9651840925216675, -1.2578160762786865, 0.0, 0.0, 0.0, 0, 0, 0, 0, 0, 0, 32.32593536376953, -1.9651840925216675, -1.2578160762786865
339168, 0.08096229285001755, -0.077516108751297, 0.07053129374980927, 0.06630200892686844, -0.1893160194158554, 0.05592089891433716, 0.04766277223825455, -0.00541112432256341, 0.9967383146286011, 32.3819465637207, -1.9687849283218384, -1.2600017786026, 0.0, 0.0, 0.0, 0, 0, 0, 0, 0, 0, 32.3819465637207, -1.9687849283218384, -1.2600017786026
339178, 0.08151032775640488, -0.07774259150028229, 0.07120693475008011, 0.1623888611793518, 0.004106640350073576, 0.12573333084583282, 0.04922562092542648, -0.004012078512459993, 0.9990932941436768, 32.43800735473633, -1.9723920822143555, -1.2621898651123047, 0.0, 0.0, 0.0, 0, 0, 0, 0, 0, 0, 32.43800735473633, -1.9723920822143555, -1.2621898651123047
339188, 0.08209013193845749, -0.0802970826625824, 0.07359911501407623, 0.02818114683032036, 0.3739287555217743, 0.35106638073921204, 0.046680137515068054, -0.0035350765101611614, 0.9983901381492615, 32.494117736816406, -1.97600519657135, -1.264379858970642, 0.0, 0.0, 0.0, 0, 0, 0, 0, 0, 0, 32.494117736816406, -1.97600519657135, -1.264379858970642
339198, 0.08225332945585251, -0.08099132031202316, 0.07533211261034012, 6.485443009296432e-05, -0.04969623312354088, 0.041781459003686905, 0.04928450658917427, -0.002871630946174264, 1.0004842281341553, 32.55027389526367, -1.9796234369277954, -1.2665709257125854, 0.0, 0.0, 0.0, 0, 0, 0, 0, 0, 0, 32.55027389526367, -1.9796234369277954, -1.2665709257125854
339208, 0.08256009221076965, -0.08094409853219986, 0.07545198500156403, 0.05902289226651192, -0.13728027045726776, -0.029099714010953903, 0.048046939074993134, -0.002314724028110504, 0.9971970915794373, 32.60647964477539, -1.9832459688186646, -1.268762469291687, 0.0, 0.0, 0.0, 0, 0, 0, 0, 0, 0, 32.60647964477539, -1.9832459688186646, -1.268762469291687
339218, 0.08092696219682693, -0.08168285340070724, 0.07487516850233078, -0.20526035130023956, 0.2969956696033478, 0.01409716997295618, 0.04723941907286644, -0.00210936670191586, 0.9982439279556274, 32.66273498535156, -1.9868720769882202, -1.2709548473358154, 0.0, 0.0, 0.0, 0, 0, 0, 0, 0, 0, 32.66273498535156, -1.9868720769882202, -1.2709548473358154
339228, 0.08033594489097595, -0.08172906190156937, 0.0745084285736084, -0.0775894746184349, 0.04123089835047722, 0.042936764657497406, 0.04680309072136879, -0.0031238435767591, 0.9969198107719421, 32.71903991699219, -1.9905016422271729, -1.2731492519378662, 0.0, 0.0, 0.0, 0, 0, 0, 0, 0, 0, 32.71903991699219, -1.9905016422271729, -1.2731492519378662
339238, 0.07992249727249146, -0.0792311504483223, 0.0742446556687355, 0.06936319917440414, -0.13566803932189941, 0.04521844536066055, 0.04656344652175903, -0.00019279999833088368, 0.9991820454597473, 32.775390625, -1.9941349029541016, -1.2753461599349976, 0.0, 0.0, 0.0, 0, 0, 0, 0, 0, 0, 32.775390625, -1.9941349029541016, -1.2753461599349976
339248, 0.08121053129434586, -0.07877470552921295, 0.07505054026842117, 0.261038213968277, 0.08365035057067871, 0.16583691537380219, 0.04885371774435043, -0.0006566564552485943, 1.000954031944275, 32.831787109375, -1.997771143913269, -1.2775448560714722, 0.0, 0.0, 0.0, 0, 0, 0, 0, 0, 0, 32.831787109375, -1.997771143913269, -1.2775448560714722
339258, 0.08074739575386047, -0.0798306092619896, 0.07472816854715347, 0.004783886019140482, 0.13651816546916962, 0.18410852551460266, 0.048214033246040344, -0.0011841986561194062, 1.000031590461731, 32.88823318481445, -2.0014092922210693, -1.2797435522079468, 0.0, 0.0, 0.0, 0, 0, 0, 0, 0, 0, 32.88823318481445, -2.0014092922210693, -1.2797435522079468
339268, 0.08022184669971466, -0.07836682349443436, 0.0743030458688736, 0.07467784732580185, -0.2751171588897705, 0.060686152428388596, 0.04951271787285805, -0.003104891162365675, 0.9992371201515198, 32.94472885131836, -2.005049705505371, -1.2819417715072632, 0.0, 0.0, 0.0, 0, 0, 0, 0, 0, 0, 32.94472885131836, -2.005049705505371, -1.2819417715072632
339278, 0.08001451194286346, -0.07888484746217728, 0.0751996785402298, 0.06504687666893005, 0.06734471023082733, 0.22721749544143677, 0.04847387969493866, -0.0010760631412267685, 0.9973243474960327, 33.00127410888672, -2.0086936950683594, -1.2841404676437378, 0.0, 0.0, 0.0, 0, 0, 0, 0, 0, 0, 33.00127410888672, -2.0086936950683594, -1.2841404676437378
339288, 0.07980968058109283, -0.07864758372306824, 0.07465357333421707, 0.10778773576021194, 0.07628282159566879, 0.09602712839841843, 0.04842288792133331, 0.0003066416538786143, 0.9971023201942444, 33.05786895751953, -2.012341022491455, -1.2863410711288452, 0.0, 0.0, 0.0, 0, 0, 0, 0, 0, 0, 33.05786895751953, -2.012341022491455, -1.2863410711288452
339298, 0.08003059029579163, -0.0793350338935852, 0.07387638092041016, 0.18890267610549927, 0.05848252773284912, -0.010455898940563202, 0.04720932990312576, -0.0035657817497849464, 0.998445451259613, 33.11450958251953, -2.0159902572631836, -1.2885444164276123, 0.0, 0.0, 0.0, 0, 0, 0, 0, 0, 0, 33.11450958251953, -2.0159902572631836, -1.2885444164276123
339308, 0.0804949551820755, -0.0798862874507904, 0.07339536398649216, 0.10088111460208893, 0.0682029277086258, 0.020812854170799255, 0.050218675285577774, -0.0041788253001868725, 0.9988207221031189, 33.171199798583984, -2.0196423530578613, -1.2907497882843018, 0.0, 0.0, 0.0, 0, 0, 0, 0, 0, 0, 33.171199798583984, -2.0196423530578613, -1.2907497882843018
339318, 0.0807088240981102, -0.07852236926555634, 0.07365752011537552, 0.09709613025188446, -0.2270243912935257, 0.09834697842597961, 0.048929911106824875, -0.0018881778232753277, 0.9976292252540588, 33.22793960571289, -2.0232996940612793, -1.2929565906524658, 0.0, 0.0, 0.0, 0, 0, 0, 0, 0, 0, 33.22793960571289, -2.0232996940612793, -1.2929565906524658
339328, 0.0808536633849144, -0.07788040488958359, 0.07530295103788376, 0.047558046877384186, -0.019391486421227455, 0.2566039562225342, 0.04683876037597656, -0.0004075604083482176, 0.9984670281410217, 33.28472900390625, -2.026961326599121, -1.2951653003692627, 0.0, 0.0, 0.0, 0, 0, 0, 0, 0, 0, 33.28472900390625, -2.026961326599121, -1.2951653003692627
339338, 0.08199502527713776, -0.07901737838983536, 0.07530056685209274, 0.16848058998584747, 0.368219256401062, -0.0029802443459630013, 0.05008378624916077, 0.00012310451711528003, 0.9991521239280701, 33.34156799316406, -2.030625343322754, -1.2973757982254028, 0.0, 0.0, 0.0, 0, 0, 0, 0, 0, 0, 33.34156799316406, -2.030625343322754, -1.2973757982254028
339348, 0.0832267627120018, -0.07697869837284088, 0.0758795514702797, 0.16099748015403748, -0.245669424533844, 0.048953067511320114, 0.050251614302396774, -0.003261601086705923, 0.9982818961143494, 33.39845275878906, -2.0342910289764404, -1.2995872497558594, 0.0, 0.0, 0.0, 0, 0, 0, 0, 0, 0, 33.39845275878906, -2.0342910289764404, -1.2995872497558594
339358, 0.08288998901844025, -0.07643065601587296, 0.07530701905488968, -0.10972673445940018, -0.02535860799252987, -0.13626070320606232, 0.049241676926612854, -0.003964846953749657, 0.9965757727622986, 33.45539093017578, -2.0379598140716553, -1.3017998933792114, 0.0, 0.0, 0.0, 0, 0, 0, 0, 0, 0, 33.45539093017578, -2.0379598140716553, -1.3017998933792114
339368, 0.08309759199619293, -0.07744227349758148, 0.07520236819982529, 0.01486277300864458, 0.13608825206756592, 0.05991904437541962, 0.04896276816725731, -0.0021068912465125322, 0.9949451088905334, 33.51237869262695, -2.041633367538452, -1.304015040397644, 0.0, 0.0, 0.0, 0, 0, 0, 0, 0, 0, 33.51237869262695, -2.041633367538452, -1.304015040397644
339378, 0.08374115824699402, -0.07702380418777466, 0.07459398359060287, 0.029884018003940582, -0.27265429496765137, -0.13100537657737732, 0.047640610486269, -0.002746944548562169, 0.9982869029045105, 33.56941604614258, -2.0453109741210938, -1.3062341213226318, 0.0, 0.0, 0.0, 0, 0, 0, 0, 0, 0, 33.56941604614258, -2.0453109741210938, -1.3062341213226318
339388, 0.08259980380535126, -0.07713738828897476, 0.07515155524015427, -0.20907413959503174, 0.058947883546352386, 0.09038959443569183, 0.04904242977499962, -0.0016568538267165422, 0.9996510148048401, 33.626502990722656, -2.048992395401001, -1.308456301689148, 0.0, 0.0, 0.0, 0, 0, 0, 0, 0, 0, 33.626502990722656, -2.048992395401001, -1.308456301689148
339398, 0.0821964368224144, -0.07732457667589188, 0.07610298693180084, -0.060492534190416336, -0.1595548391342163, 0.10795176774263382, 0.049226466566324234, -0.002086272230371833, 0.9989942312240601, 33.68363571166992, -2.0526773929595947, -1.3106796741485596, 0.0, 0.0, 0.0, 0, 0, 0, 0, 0, 0, 33.68363571166992, -2.0526773929595947, -1.3106796741485596
339408, 0.08305730670690536, -0.07756832987070084, 0.07704471796751022, 0.196794331073761, -0.061142146587371826, 0.02313775010406971, 0.048279933631420135, -0.0037544644437730312, 0.997774064540863, 33.74081802368164, -2.056365489959717, -1.3129037618637085, 0.0, 0.0, 0.0, 0, 0, 0, 0, 0, 0, 33.74081802368164, -2.056365489959717, -1.3129037618637085
339418, 0.08352664858102798, -0.07888475060462952, 0.07507386803627014, 0.15341098606586456, 0.2307857871055603, -0.29899320006370544, 0.04806622117757797, -0.0018796167569234967, 0.9980531334877014, 33.79804992675781, -2.0600576400756836, -1.3151293992996216, 0.0, 0.0, 0.0, 0, 0, 0, 0, 0, 0, 33.79804992675781, -2.0600576400756836, -1.3151293992996216
339428, 0.08377663791179657, -0.07976852357387543, 0.07569707185029984, 0.0830499529838562, 0.022584499791264534, -0.0071450890973210335, 0.046635158360004425, -0.0029976689256727695, 0.9971579313278198, 33.85533142089844, -2.063754081726074, -1.3173571825027466, 0.0, 0.0, 0.0, 0, 0, 0, 0, 0, 0, 33.85533142089844, -2.063754081726074, -1.3173571825027466
339438, 0.08290092647075653, -0.08122261613607407, 0.07528916001319885, -0.10468817502260208, 0.16083061695098877, -0.07939255237579346, 0.049103111028671265, -0.0029498941730707884, 0.9967131614685059, 33.91265869140625, -2.0674543380737305, -1.3195874691009521, 0.0, 0.0, 0.0, 0, 0, 0, 0, 0, 0, 33.91265869140625, -2.0674543380737305, -1.3195874691009521
339448, 0.08298860490322113, -0.07974687963724136, 0.07472793757915497, -0.0060540600679814816, -0.2839127779006958, -0.0018719793297350407, 0.049793511629104614, -0.0015315847704187036, 0.9963588714599609, 33.970035552978516, -2.0711591243743896, -1.321820855140686, 0.0, 0.0, 0.0, 0, 0, 0, 0, 0, 0, 33.970035552978516, -2.0711591243743896, -1.321820855140686
339458, 0.08395542949438095, -0.08055038005113602, 0.07547806203365326, 0.16159740090370178, -0.03329603001475334, 0.027123432606458664, 0.05049801245331764, -0.0033230590634047985, 0.9986174702644348, 34.027462005615234, -2.0748677253723145, -1.3240575790405273, 0.0, 0.0, 0.0, 0, 0, 0, 0, 0, 0, 34.027462005615234, -2.0748677253723145, -1.3240575790405273
339468, 0.08370570838451385, -0.08109695464372635, 0.0747586339712143, 0.08223871141672134, -0.02089955285191536, -0.13544726371765137, 0.04896486923098564, -0.003200075589120388, 0.9980776906013489, 34.084938049316406, -2.078580141067505, -1.3262965679168701, 0.0, 0.0, 0.0, 0, 0, 0, 0, 0, 0, 34.084938049316406, -2.078580141067505, -1.3262965679168701
339478, 0.0843745693564415, -0.08058291673660278, 0.07693582773208618, 0.09106283634901047, -0.15889990329742432, 0.216681569814682, 0.04987722635269165, -0.002660302445292473, 0.9973489046096802, 34.1424674987793, -2.0822970867156982, -1.3285373449325562, 0.0, 0.0, 0.0, 0, 0, 0, 0, 0, 0, 34.1424674987793, -2.0822970867156982, -1.3285373449325562
339488, 0.08470506966114044, -0.08065894991159439, 0.07694430649280548, 0.0603879913687706, 0.11064662784337997, -0.06382685899734497, 0.04858504235744476, -0.0022877762094140053, 0.9979415535926819, 34.20004653930664, -2.0860183238983154, -1.3307803869247437, 0.0, 0.0, 0.0, 0, 0, 0, 0, 0, 0, 34.20004653930664, -2.0860183238983154, -1.3307803869247437
339498, 0.08334850519895554, -0.08066831529140472, 0.07756910473108292, -0.19836169481277466, -0.06523356586694717, -0.049364123493433, 0.048481933772563934, -0.004000585526227951, 0.9966973066329956, 34.25767517089844, -2.0897433757781982, -1.3330258131027222, 0.0, 0.0, 0.0, 0, 0, 0, 0, 0, 0, 34.25767517089844, -2.0897433757781982, -1.3330258131027222
339508, 0.08413752168416977, -0.08021685481071472, 0.07847237586975098, 0.03460698574781418, 0.014224187470972538, 0.15234436094760895, 0.04842352122068405, -0.0026050028391182423, 0.9977535009384155, 34.31534957885742, -2.093472957611084, -1.3352738618850708, 0.0, 0.0, 0.0, 0, 0, 0, 0, 0, 0, 34.31534957885742, -2.093472957611084, -1.3352738618850708
339518, 0.0842299684882164, -0.0807698667049408, 0.07844796031713486, 0.010991576127707958, 0.06182853505015373, -0.02667878195643425, 0.04944497346878052, -0.0035009272396564484, 0.9995105266571045, 34.37307357788086, -2.0972070693969727, -1.3375242948532104, 0.0, 0.0, 0.0, 0, 0, 0, 0, 0, 0, 34.37307357788086, -2.0972070693969727, -1.3375242948532104
339528, 0.08419586718082428, -0.08160676062107086, 0.07788478583097458, 0.0009270846494473517, 0.32943761348724365, -0.13481369614601135, 0.04932834208011627, -0.001990821212530136, 1.0002601146697998, 34.43084716796875, -2.100945472717285, -1.3397759199142456, 0.0, 0.0, 0.0, 0, 0, 0, 0, 0, 0, 34.43084716796875, -2.100945472717285, -1.3397759199142456
339538, 0.0831780806183815, -0.08007922768592834, 0.07892846316099167, -0.1939024180173874, -0.15873025357723236, 0.03177361935377121, 0.04927513748407364, -0.0027841515839099884, 0.9985929727554321, 34.488670349121094, -2.1046881675720215, -1.3420277833938599, 0.0, 0.0, 0.0, 0, 0, 0, 0, 0, 0, 34.488670349121094, -2.1046881675720215, -1.3420277833938599
339548, 0.0831073671579361, -0.07785681635141373, 0.08000414818525314, 0.028341718018054962, -0.23571373522281647, 0.035285476595163345, 0.048413049429655075, -0.002895831363275647, 0.9968447089195251, 34.54654312133789, -2.1084349155426025, -1.3442803621292114, 0.0, 0.0, 0.0, 0, 0, 0, 0, 0, 0, 34.54654312133789, -2.1084349155426025, -1.3442803621292114
339558, 0.08317552506923676, -0.07404441386461258, 0.07891473174095154, -0.00781707838177681, -0.3314076066017151, -0.06780107319355011, 0.04910219460725784, -0.004071270581334829, 0.9961252808570862, 34.60446548461914, -2.1121859550476074, -1.3465352058410645, 0.0, 0.0, 0.0, 0, 0, 0, 0, 0, 0, 34.60446548461914, -2.1121859550476074, -1.3465352058410645
339568, 0.08333670347929001, -0.07337802648544312, 0.078272745013237, -0.021918127313256264, 0.07004933804273605, -0.04800938069820404, 0.04863409325480461, -0.003969477955251932, 0.999436616897583, 34.662437438964844, -2.1159420013427734, -1.348793387413025, 0.0, 0.0, 0.0, 0, 0, 0, 0, 0, 0, 34.662437438964844, -2.1159420013427734, -1.348793387413025
339578, 0.08322606980800629, -0.0758451521396637, 0.07699533551931381, -0.04560614377260208, 0.147294819355011, -0.15990537405014038, 0.04778756946325302, -0.0028571831062436104, 0.9992620944976807, 34.720458984375, -2.1197028160095215, -1.3510537147521973, 0.0, 0.0, 0.0, 0, 0, 0, 0, 0, 0, 34.720458984375, -2.1197028160095215, -1.3510537147521973
339588, 0.0838594138622284, -0.0769285261631012, 0.0789579227566719, -0.013283057138323784, 0.04963930696249008, 0.21720272302627563, 0.04644342139363289, -0.004284600727260113, 0.9992045760154724, 34.77853012084961, -2.1234681606292725, -1.3533148765563965, 0.0, 0.0, 0.0, 0, 0, 0, 0, 0, 0, 34.836647033691406, -2.1272382736206055, -1.355576753616333
339598, 0.08356469124555588, -0.07536152005195618, 0.07931012660264969, -0.08408209681510925, -0.28839197754859924, -0.06858442723751068, 0.04838336259126663, -0.0050725750625133514, 0.999335527420044, 34.836647033691406, -2.1272382736206055, -1.355576753616333, 0.0, 0.0, 0.0, 0, 0, 0, 0, 0, 0, 34.894813537597656, -2.131014347076416, -1.3578394651412964
339608, 0.08292467147111893, -0.07537700235843658, 0.0781860277056694, 0.02825324796140194, 0.033442046493291855, -0.13825298845767975, 0.04734846577048302, -0.0035454549361020327, 0.9976324439048767, 34.894813537597656, -2.131014347076416, -1.3578394651412964, 0.0, 0.0, 0.0, 0, 0, 0, 0, 0, 0, 34.953025817871094, -2.134796380996704, -1.3601034879684448
339618, 0.08226917684078217, -0.07541467994451523, 0.07757152616977692, -0.09727898240089417, 0.03378508612513542, -0.1097717210650444, 0.04886983707547188, -0.0011601776350289583, 0.9999169707298279, 34.953025817871094, -2.134796380996704, -1.3601034879684448, 0.0, 0.0, 0.0, 0, 0, 0, 0, 0, 0, 35.011287689208984, -2.138582229614258, -1.3623684644699097
339628, 0.08142805099487305, -0.0758177787065506, 0.0768643468618393, -0.10237302631139755, 0.025328077375888824, -0.03627363219857216, 0.050161972641944885, 6.676716293441132e-05, 0.9990266561508179, 35.011287689208984, -2.138582229614258, -1.3623684644699097, 0.0, 0.0, 0.0, 0, 0, 0, 0, 0, 0, 35.06959915161133, -2.1423702239990234, -1.3646340370178223
339638, 0.08177695423364639, -0.07515864074230194, 0.07607632130384445, -0.022492293268442154, -0.12744727730751038, -0.1570856124162674, 0.04942530393600464, -0.0016321790171787143, 0.9988034963607788, 35.06959915161133, -2.1423702239990234, -1.3646340370178223, 0.0, 0.0, 0.0, 0, 0, 0, 0, 0, 0, 35.127960205078125, -2.146160364151001, -1.3669008016586304
339648, 0.08062426000833511, -0.07451893389225006, 0.07499739527702332, -0.13885384798049927, -0.12398236244916916, 0.06551198661327362, 0.0496719628572464, -0.0017156510148197412, 0.9973907470703125, 35.127960205078125, -2.146160364151001, -1.3669008016586304, 0.0, 0.0, 0.0, 0, 0, 0, 0, 0, 0, 35.186370849609375, -2.149953603744507, -1.3691695928573608
339658, 0.08179359883069992, -0.0732463076710701, 0.07604894042015076, 0.2576131224632263, -0.11278238892555237, 0.3565782904624939, 0.047543320804834366, -0.002903521293774247, 0.9992622137069702, 35.186370849609375, -2.149953603744507, -1.3691695928573608, 0.0, 0.0, 0.0, 0, 0, 0, 0, 0, 0, 35.24483108520508, -2.1537508964538574, -1.371440052986145
339668, 0.08210211992263794, -0.0736195296049118, 0.0767570286989212, 0.0969560369849205, 0.17025046050548553, 0.15021651983261108, 0.048107750713825226, -0.003462909022346139, 0.9997149705886841, 35.24483108520508, -2.1537508964538574, -1.371440052986145, 0.0, 0.0, 0.0, 0, 0, 0, 0, 0, 0, 35.303340911865234, -2.15755295753479, -1.3737112283706665
339678, 0.08254463225603104, -0.07224548608064651, 0.07636454701423645, 0.11441108584403992, -0.20130100846290588, -0.2022704780101776, 0.04733455553650856, -0.0033631667029112577, 0.9980441927909851, 35.303340911865234, -2.15755295753479, -1.3737112283706665, 0.0, 0.0, 0.0, 0, 0, 0, 0, 0, 0, 35.36189651489258, -2.161360025405884, -1.3759835958480835
339688, 0.08293584734201431, -0.06987707316875458, 0.0760793685913086, 0.13407929241657257, -0.24193167686462402, -0.15322420001029968, 0.046855442225933075, -0.002421802142634988, 0.9974464774131775, 35.36189651489258, -2.161360025405884, -1.3759835958480835, 0.0, 0.0, 0.0, 0, 0, 0, 0, 0, 0, 35.420501708984375, -2.1651713848114014, -1.3782579898834229
339698, 0.08354697376489639, -0.07004866003990173, 0.07577954977750778, 0.20417849719524384, 0.1905406266450882, 0.01622406579554081, 0.04802946001291275, -0.002366821514442563, 0.9976637363433838, 35.420501708984375, -2.1651713848114014, -1.3782579898834229, 0.0, 0.0, 0.0, 0, 0, 0, 0, 0, 0, 35.420501708984375, -2.1651713848114014, -1.3782579898834229
339708, 0.0834367498755455, -0.06929181516170502, 0.07551941275596619, 0.015602953732013702, 0.06465502083301544, 0.004101743455976248, 0.04843180999159813, -0.0025075178127735853, 0.9981471300125122, 35.47915267944336, -2.1689867973327637, -1.3805347681045532, 0.0, 0.0, 0.0, 0, 0, 0, 0, 0, 0, 35.47915267944336, -2.1689867973327637, -1.3805347681045532
339718, 0.08318547904491425, -0.06893710047006607, 0.07587745785713196, -0.042341943830251694, 0.04723315313458443, 0.044297557324171066, 0.04725896567106247, -0.002352554816752672, 0.9999575614929199, 35.5378532409668, -2.1728060245513916, -1.3828136920928955, 0.0, 0.0, 0.0, 0, 0, 0, 0, 0, 0, 35.5378532409668, -2.1728060245513916, -1.3828136920928955
339728, 0.08268821239471436, -0.06826478242874146, 0.07373382151126862, -0.100501149892807, 0.021764852106571198, -0.18739035725593567, 0.04702773317694664, -0.0026847419794648886, 0.9977032542228699, 35.59659957885742, -2.176628828048706, -1.3850935697555542, 0.0, 0.0, 0.0, 0, 0, 0, 0, 0, 0, 35.59659957885742, -2.176628828048706, -1.3850935697555542
339738, 0.08310392498970032, -0.06831368058919907, 0.07207795977592468, 0.05887547507882118, -0.08540579676628113, -0.13599365949630737, 0.04951448738574982, -0.002879953011870384, 0.9974489212036133, 35.6553955078125, -2.180455446243286, -1.3873745203018188, 0.0, 0.0, 0.0, 0, 0, 0, 0, 0, 0, 35.6553955078125, -2.180455446243286, -1.3873745203018188
339748, 0.08298172801733017, -0.06945378333330154, 0.07137394696474075, 0.09583042562007904, 0.16901129484176636, -0.14143170416355133, 0.05062471330165863, -0.0012630902929231524, 0.9953692555427551, 35.71424102783203, -2.184286117553711, -1.389657974243164, 0.0, 0.0, 0.0, 0, 0, 0, 0, 0, 0, 35.71424102783203, -2.184286117553711, -1.389657974243164
339758, 0.08242891728878021, -0.07059427350759506, 0.0713476911187172, 0.004918879829347134, -0.02358705922961235, 0.010204668156802654, 0.04927719384431839, 0.00027409393806010485, 0.9970402717590332, 35.773136138916016, -2.188119888305664, -1.3919450044631958, 0.0, 0.0, 0.0, 0, 0, 0, 0, 0, 0, 35.773136138916016, -2.188119888305664, -1.3919450044631958
339768, 0.08220496773719788, -0.06896223872900009, 0.07258853316307068, 0.05490007996559143, -0.1315561980009079, 0.19249458611011505, 0.04854002967476845, -0.00391134200617671, 0.998065710067749, 35.83208084106445, -2.191956043243408, -1.394235610961914, 0.0, 0.0, 0.0, 0, 0, 0, 0, 0, 0, 35.83208084106445, -2.191956043243408, -1.394235610961914
339778, 0.08258799463510513, -0.06978608667850494, 0.07242235541343689, 0.09440834075212479, 0.14232689142227173, -0.047608766704797745, 0.05014777556061745, -0.0052907695062458515, 1.0001747608184814, 35.891075134277344, -2.195796012878418, -1.3965286016464233, 0.0, 0.0, 0.0, 0, 0, 0, 0, 0, 0, 35.891075134277344, -2.195796012878418, -1.3965286016464233
339788, 0.08229196816682816, -0.06757313758134842, 0.07307085394859314, 0.0623064748942852, -0.24887268245220184, 0.1734618842601776, 0.05074901878833771, -0.0035836335737258196, 0.9992780089378357, 35.95011901855469, -2.1996419429779053, -1.39882230758667, 0.0, 0.0, 0.0, 0, 0, 0, 0, 0, 0, 35.95011901855469, -2.1996419429779053, -1.39882230758667
339798, 0.08249770849943161, -0.06906336545944214, 0.07308312505483627, 0.10288282483816147, 0.21523472666740417, 0.04728759080171585, 0.04887763783335686, -0.0012713512405753136, 0.9969924688339233, 36.009212493896484, -2.203493595123291, -1.4011164903640747, 0.0, 0.0, 0.0, 0, 0, 0, 0, 0, 0, 36.009212493896484, -2.203493595123291, -1.4011164903640747
339808, 0.08251558244228363, -0.07031723111867905, 0.0726059153676033, -0.049830447882413864, 0.11849404126405716, -0.148923859000206, 0.04786341264843941, -0.0017444990808144212, 0.9963440299034119, 36.068355560302734, -2.2073488235473633, -1.4034123420715332, 0.0, 0.0, 0.0, 0, 0, 0, 0, 0, 0, 36.068355560302734, -2.2073488235473633, -1.4034123420715332
339818, 0.08253184705972672, -0.0706680566072464, 0.07269316911697388, -0.02032335102558136, -0.07531499117612839, 0.008497840724885464, 0.047552578151226044, -0.0036419988609850407, 0.9991129040718079, 36.12754821777344, -2.211207151412964, -1.40571129322052, 0.0, 0.0, 0.0, 0, 0, 0, 0, 0, 0, 36.12754821777344, -2.211207151412964, -1.40571129322052
339828, 0.08309667557477951, -0.07109978795051575, 0.07267057150602341, 0.05532050505280495, -0.1032024696469307, -0.1383303552865982, 0.04566499590873718, -0.003232268849387765, 0.998917818069458, 36.18678665161133, -2.215069532394409, -1.4080123901367188, 0.0, 0.0, 0.0, 0, 0, 0, 0, 0, 0, 36.18678665161133, -2.215069532394409, -1.4080123901367188
339838, 0.08401700854301453, -0.07045258581638336, 0.07371606677770615, 0.032296229153871536, -0.1478789895772934, 0.12231434881687164, 0.04644763097167015, -0.0033635562285780907, 0.9972673654556274, 36.24607467651367, -2.2189366817474365, -1.4103144407272339, 0.0, 0.0, 0.0, 0, 0, 0, 0, 0, 0, 36.24607467651367, -2.2189366817474365, -1.4103144407272339
339848, 0.08365906774997711, -0.06930594891309738, 0.07371290773153305, 0.05354561284184456, -0.23337140679359436, 0.007209908217191696, 0.04888872429728508, -0.002302951877936721, 0.9988811016082764, 36.3054084777832, -2.222808599472046, -1.4126182794570923, 0.0, 0.0, 0.0, 0, 0, 0, 0, 0, 0, 36.3054084777832, -2.222808599472046, -1.4126182794570923
339858, 0.08360975235700607, -0.06793742626905441, 0.07380872219800949, -0.014221185818314552, -0.13639862835407257, -0.0024713538587093353, 0.04874976724386215, -0.0009989322861656547, 0.9966441988945007, 36.36478805541992, -2.226684808731079, -1.414924144744873, 0.0, 0.0, 0.0, 0, 0, 0, 0, 0, 0, 36.36478805541992, -2.226684808731079, -1.414924144744873
339868, 0.08377305418252945, -0.06695666164159775, 0.07319393008947372, -0.020778128877282143, 0.24089427292346954, -0.1570904701948166, 0.049228232353925705, -0.0019398320000618696, 0.9967683553695679, 36.424217224121094, -2.2305638790130615, -1.4172322750091553, 0.0, 0.0, 0.0, 0, 0, 0, 0, 0, 0, 36.424217224121094, -2.2305638790130615, -1.4172322750091553
339878, 0.0844080001115799, -0.06609399616718292, 0.07454126328229904, -0.023374633863568306, -0.1665860116481781, 0.03477197140455246, 0.04962917044758797, -0.0026999625843018293, 0.9958641529083252, 36.48369598388672, -2.234445810317993, -1.4195433855056763, 0.0, 0.0, 0.0, 0, 0, 0, 0, 0, 0, 36.48369598388672, -2.234445810317993, -1.4195433855056763
339888, 0.08512602746486664, -0.06787731498479843, 0.07565706968307495, 0.027773352339863777, 0.18381719291210175, 0.018196197226643562, 0.050591565668582916, -0.003130756551399827, 0.9975627660751343, 36.5432243347168, -2.2383315563201904, -1.4218579530715942, 0.0, 0.0, 0.0, 0, 0, 0, 0, 0, 0, 36.5432243347168, -2.2383315563201904, -1.4218579530715942
339898, 0.08374611288309097, -0.06751501560211182, 0.07479938119649887, -0.1738622933626175, 0.013974298723042011, -0.16695599257946014, 0.0486472062766552, -0.002275648759678006, 0.9963009357452393, 36.602806091308594, -2.2422215938568115, -1.4241758584976196, 0.0, 0.0, 0.0, 0, 0, 0, 0, 0, 0, 36.602806091308594, -2.2422215938568115, -1.4241758584976196
339908, 0.08357638120651245, -0.06839463859796524, 0.07512413710355759, -0.044629134237766266, 0.021342938765883446, 0.019357075914740562, 0.049255166202783585, -0.003421486122533679, 0.9968672394752502, 36.662437438964844, -2.2461159229278564, -1.426496982574463, 0.0, 0.0, 0.0, 0, 0, 0, 0, 0, 0, 36.662437438964844, -2.2461159229278564, -1.426496982574463
339918, 0.08492474257946014, -0.06800288707017899, 0.07520908117294312, 0.21105113625526428, 0.060133785009384155, 0.09732884168624878, 0.04852702468633652, -0.0008081672131083906, 0.9979791045188904, 36.72211837768555, -2.250014543533325, -1.4288215637207031, 0.0, 0.0, 0.0, 0, 0, 0, 0, 0, 0, 36.72211837768555, -2.250014543533325, -1.4288215637207031
339928, 0.08532485365867615, -0.06828111410140991, 0.07532553374767303, -0.049485620111227036, 0.12193335592746735, -0.02013891562819481, 0.04859745875000954, -0.0019136082846671343, 0.9977982044219971, 36.78184509277344, -2.2539167404174805, -1.431148648262024, 0.0, 0.0, 0.0, 0, 0, 0, 0, 0, 0, 36.78184509277344, -2.2539167404174805, -1.431148648262024
339938, 0.08490316569805145, -0.06954625993967056, 0.07553652673959732, -0.04410748928785324, 0.18158632516860962, -0.059485163539648056, 0.047023091465234756, -0.0041700019501149654, 0.9998420476913452, 36.84162139892578, -2.257822275161743, -1.433477759361267, 0.0, 0.0, 0.0, 0, 0, 0, 0, 0, 0, 36.84162139892578, -2.257822275161743, -1.433477759361267
339948, 0.08580001443624496, -0.07087410986423492, 0.07667765021324158, 0.18346722424030304, 0.3321724236011505, 0.2224992960691452, 0.04684432968497276, -0.002702142111957073, 0.9994760155677795, 36.90144729614258, -2.261732339859009, -1.4358079433441162, 0.0, 0.0, 0.0, 0, 0, 0, 0, 0, 0, 36.90144729614258, -2.261732339859009, -1.4358079433441162
339958, 0.08509335666894913, -0.07011760771274567, 0.07690172642469406, -0.1164540946483612, -0.06989972293376923, 0.08982503414154053, 0.04789668321609497, -0.0019889920949935913, 0.9975966811180115, 36.96131896972656, -2.2656471729278564, -1.4381383657455444, 0.0, 0.0, 0.0, 0, 0, 0, 0, 0, 0, 36.96131896972656, -2.2656471729278564, -1.4381383657455444
339968, 0.08555276691913605, -0.06808900833129883, 0.07786450535058975, 0.181282639503479, -0.4233021140098572, 0.07399684190750122, 0.04700494557619095, -0.002954796887934208, 0.9965415596961975, 37.021240234375, -2.269566059112549, -1.4404702186584473, 0.0, 0.0, 0.0, 0, 0, 0, 0, 0, 0, 37.021240234375, -2.269566059112549, -1.4404702186584473
339978, 0.08576621860265732, -0.06849677115678787, 0.0784524604678154, 0.12017524987459183, -0.07244156301021576, 0.09082888066768646, 0.047886922955513, -0.0022555433679372072, 0.9964309334754944, 37.081207275390625, -2.273488998413086, -1.4428049325942993, 0.0, 0.0, 0.0, 0, 0, 0, 0, 0, 0, 37.081207275390625, -2.273488998413086, -1.4428049325942993
339988, 0.08541889488697052, -0.06795856356620789, 0.07825308293104172, 0.015235756523907185, -0.18029150366783142, -0.09206186980009079, 0.0468565858900547, -0.0018774262862280011, 0.996731698513031, 37.1412239074707, -2.2774159908294678, -1.4451429843902588, 0.0, 0.0, 0.0, 0, 0, 0, 0, 0, 0, 37.1412239074707, -2.2774159908294678, -1.4451429843902588
339998, 0.08472638577222824, -0.07072830945253372, 0.07902845740318298, -0.0222121961414814, 0.30200934410095215, -0.014371853321790695, 0.04818129539489746, -9.069968655239791e-05, 0.9963590502738953, 37.20128631591797, -2.281346082687378, -1.4474843740463257, 0.0, 0.0, 0.0, 0, 0, 0, 0, 0, 0, 37.20128631591797, -2.281346082687378, -1.4474843740463257
340008, 0.0848483219742775, -0.07120886445045471, 0.07999277859926224, -0.008454547263681889, 0.09780152887105942, 0.1868637204170227, 0.048321500420570374, -0.0005170052172616124, 0.9960611462593079, 37.26139831542969, -2.285278558731079, -1.449829339981079, 0.0, 0.0, 0.0, 0, 0, 0, 0, 0, 0, 37.26139831542969, -2.285278558731079, -1.449829339981079
340018, 0.08578620105981827, -0.0704517588019371, 0.08001980930566788, 0.17080166935920715, -0.09700912982225418, 0.13846538960933685, 0.04851771891117096, -0.0007074004388414323, 0.9981673955917358, 37.321556091308594, -2.289212942123413, -1.452177882194519, 0.0, 0.0, 0.0, 0, 0, 0, 0, 0, 0, 37.321556091308594, -2.289212942123413, -1.452177882194519
340028, 0.08555406332015991, -0.0689355880022049, 0.07981699705123901, 0.009500743821263313, -0.12811477482318878, 0.2849544584751129, 0.04782618209719658, -0.0021280169021338224, 0.9958667159080505, 37.38176345825195, -2.293149471282959, -1.4545291662216187, 0.0, 0.0, 0.0, 0, 0, 0, 0, 0, 0, 37.38176345825195, -2.293149471282959, -1.4545291662216187
340038, 0.08571567386388779, -0.06883041560649872, 0.07894500344991684, -0.04221651703119278, 0.024179760366678238, -0.21255230903625488, 0.047698963433504105, -0.0017801116919144988, 0.9964182376861572, 37.442020416259766, -2.297088623046875, -1.456883430480957, 0.0, 0.0, 0.0, 0, 0, 0, 0, 0, 0, 37.442020416259766, -2.297088623046875, -1.456883430480957
340048, 0.08601219207048416, -0.0702161118388176, 0.0777476578950882, -0.01766105741262436, 0.3176427185535431, -0.2130769044160843, 0.0468653067946434, -0.00399639131501317, 0.9975568652153015, 37.502323150634766, -2.3010311126708984, -1.459241271018982, 0.0, 0.0, 0.0, 0, 0, 0, 0, 0, 0, 37.502323150634766, -2.3010311126708984, -1.459241271018982
340058, 0.08665552735328674, -0.0684291273355484, 0.0778515413403511, -0.006721743382513523, -0.4244304597377777, 0.1440885066986084, 0.04965682327747345, -0.004541161935776472, 1.0000841617584229, 37.56267547607422, -2.304978132247925, -1.4616018533706665, 0.0, 0.0, 0.0, 0, 0, 0, 0, 0, 0, 37.56267547607422, -2.304978132247925, -1.4616018533706665
340068, 0.08703609555959702, -0.06856842339038849, 0.0791105404496193, -0.002115422859787941, 0.17267152667045593, 0.2144012749195099, 0.048922475427389145, -0.004371077753603458, 0.9981309175491333, 37.623077392578125, -2.3089308738708496, -1.463963508605957, 0.0, 0.0, 0.0, 0, 0, 0, 0, 0, 0, 37.623077392578125, -2.3089308738708496, -1.463963508605957
340078, 0.08673080801963806, -0.06976233422756195, 0.07916976511478424, -0.08093222975730896, 0.10709438472986221, 0.04818094149231911, 0.04874804615974426, -0.003922533243894577, 0.9963837265968323, 37.683528900146484, -2.312889575958252, -1.4663259983062744, 0.0, 0.0, 0.0, 0, 0, 0, 0, 0, 0, 37.683528900146484, -2.312889575958252, -1.4663259983062744
340088, 0.08727654814720154, -0.07016211748123169, 0.07855910062789917, 0.04965094476938248, -0.11786524206399918, 0.00901719368994236, 0.04818487539887428, -0.002295974176377058, 0.997776448726654, 37.7440299987793, -2.3168537616729736, -1.468691110610962, 0.0, 0.0, 0.0, 0, 0, 0, 0, 0, 0, 37.7440299987793, -2.3168537616729736, -1.468691110610962
340098, 0.08782274276018143, -0.06855390220880508, 0.07855642586946487, 0.11669929325580597, -0.2100578099489212, 0.03281639516353607, 0.04768945276737213, -0.002181244781240821, 0.9967274069786072, 37.8045768737793, -2.3208227157592773, -1.4710590839385986, 0.0, 0.0, 0.0, 0, 0, 0, 0, 0, 0, 37.8045768737793, -2.3208227157592773, -1.4710590839385986
340108, 0.08815504610538483, -0.06782093644142151, 0.07886269688606262, 0.10163068771362305, 0.0575602650642395, 0.08342635631561279, 0.04915934428572655, -0.004447237588465214, 0.9957645535469055, 37.86517333984375, -2.324795722961426, -1.4734299182891846, 0.0, 0.0, 0.0, 0, 0, 0, 0, 0, 0, 37.86517333984375, -2.324795722961426, -1.4734299182891846
340118, 0.08692565560340881, -0.06704994291067123, 0.07964280992746353, -0.14407125115394592, -0.11199235171079636, -0.013378610834479332, 0.049689747393131256, -0.00018609654216561466, 0.9965797662734985, 37.925819396972656, -2.328773260116577, -1.4758044481277466, 0.0, 0.0, 0.0, 0, 0, 0, 0, 0, 0, 37.925819396972656, -2.328773260116577, -1.4758044481277466
340128, 0.08796170353889465, -0.06709061563014984, 0.07998146116733551, 0.17479859292507172, -0.049563780426979065, -0.05028165131807327, 0.04922455549240112, -0.002238278975710273, 0.9998342394828796, 37.986515045166016, -2.332754611968994, -1.4781826734542847, 0.0, 0.0, 0.0, 0, 0, 0, 0, 0, 0, 37.986515045166016, -2.332754611968994, -1.4781826734542847
340138, 0.08791059255599976, -0.06744316965341568, 0.08059681206941605, 0.14527137577533722, 0.06993444263935089, 0.13109399378299713, 0.049210600554943085, -0.0046234456822276115, 0.9994482398033142, 38.04726028442383, -2.3367390632629395, -1.480562686920166, 0.0, 0.0, 0.0, 0, 0, 0, 0, 0, 0, 38.04726028442383, -2.3367390632629395, -1.480562686920166
340148, 0.08696143329143524, -0.06608638167381287, 0.08012569695711136, -0.039000749588012695, -0.3212130069732666, 0.055602122098207474, 0.04911752790212631, -0.0029309778474271297, 0.9983052015304565, 38.108055114746094, -2.340728282928467, -1.4829434156417847, 0.0, 0.0, 0.0, 0, 0, 0, 0, 0, 0, 38.108055114746094, -2.340728282928467, -1.4829434156417847
340158, 0.08681332319974899, -0.06491032242774963, 0.07959433645009995, 0.02013864926993847, -0.27506253123283386, -0.010193007066845894, 0.04944564029574394, -0.0019522870425134897, 0.9974980354309082, 38.16889953613281, -2.3447227478027344, -1.4853253364562988, 0.0, 0.0, 0.0, 0, 0, 0, 0, 0, 0, 38.16889953613281, -2.3447227478027344, -1.4853253364562988
340168, 0.0878121554851532, -0.06542286276817322, 0.07949238270521164, 0.19603921473026276, 0.22318068146705627, 0.02792656607925892, 0.04712957143783569, -0.002924046479165554, 0.9978511929512024, 38.229793548583984, -2.3487212657928467, -1.4877092838287354, 0.0, 0.0, 0.0, 0, 0, 0, 0, 0, 0, 38.229793548583984, -2.3487212657928467, -1.4877092838287354
340178, 0.08703115582466125, -0.06450766324996948, 0.07976599037647247, -0.0870581641793251, -0.05431041494011879, 0.13255271315574646, 0.04814068600535393, -0.004498429596424103, 0.997531533241272, 38.290733337402344, -2.352724075317383, -1.4900953769683838, 0.0, 0.0, 0.0, 0, 0, 0, 0, 0, 0, 38.290733337402344, -2.352724075317383, -1.4900953769683838
340188, 0.08729428797960281, -0.06461059302091599, 0.07874801754951477, 0.056261345744132996, -0.08772612363100052, -0.2118145078420639, 0.04739787429571152, -0.003585315775126219, 0.9969176054000854, 38.351722717285156, -2.356731653213501, -1.4924837350845337, 0.0, 0.0, 0.0, 0, 0, 0, 0, 0, 0, 38.351722717285156, -2.356731653213501, -1.4924837350845337
340198, 0.08683482557535172, -0.0655369907617569, 0.0779966190457344, 0.012441815808415413, 0.34499219059944153, 0.08029733598232269, 0.04895098879933357, -0.0014456314966082573, 0.9982849359512329, 38.412757873535156, -2.3607444763183594, -1.4948745965957642, 0.0, 0.0, 0.0, 0, 0, 0, 0, 0, 0, 38.412757873535156, -2.3607444763183594, -1.4948745965957642
340208, 0.08708708733320236, -0.0645555853843689, 0.0774177834391594, 0.06332212686538696, -0.13794034719467163, -0.051179539412260056, 0.04854719340801239, 0.0004947847337462008, 0.9963090419769287, 38.47384262084961, -2.3647613525390625, -1.4972676038742065, 0.0, 0.0, 0.0, 0, 0, 0, 0, 0, 0, 38.47384262084961, -2.3647613525390625, -1.4972676038742065
340218, 0.087923064827919, -0.06396985054016113, 0.0765998512506485, 0.030133191496133804, -0.044722020626068115, -0.1510472595691681, 0.04954684525728226, -0.00020383262017276138, 0.9956715106964111, 38.534976959228516, -2.3687801361083984, -1.499663233757019, 0.0, 0.0, 0.0, 0, 0, 0, 0, 0, 0, 38.534976959228516, -2.3687801361083984, -1.499663233757019
340228, 0.0878257006406784, -0.06377366930246353, 0.07592326402664185, -0.1532517373561859, 0.05464964359998703, -0.12737563252449036, 0.04862821102142334, -0.00282283965498209, 0.9965909719467163, 38.596160888671875, -2.372800588607788, -1.5020626783370972, 0.0, 0.0, 0.0, 0, 0, 0, 0, 0, 0, 38.596160888671875, -2.372800588607788, -1.5020626783370972
340238, 0.08853244036436081, -0.06282930821180344, 0.07464579492807388, 0.1835462749004364, 0.011942998506128788, 0.06141993775963783, 0.04703297093510628, -0.0023891539312899113, 0.9964160919189453, 38.65739440917969, -2.376823902130127, -1.5044660568237305, 0.0, 0.0, 0.0, 0, 0, 0, 0, 0, 0, 38.65739440917969, -2.376823902130127, -1.5044660568237305
340248, 0.08824697881937027, -0.06223265081644058, 0.0740235447883606, -0.003750395029783249, -0.0073397415690124035, -0.03246881812810898, 0.047861043363809586, -0.0026556323282420635, 0.9968273639678955, 38.71867370605469, -2.3808510303497314, -1.5068728923797607, 0.0, 0.0, 0.0, 0, 0, 0, 0, 0, 0, 38.71867370605469, -2.3808510303497314, -1.5068728923797607
340258, 0.088744156062603, -0.06306181102991104, 0.07522212713956833, -0.03787919133901596, 0.08403746783733368, 0.15260596573352814, 0.04982409253716469, -0.0016739389393478632, 0.9993810653686523, 38.78000259399414, -2.3848822116851807, -1.5092828273773193, 0.0, 0.0, 0.0, 0, 0, 0, 0, 0, 0, 38.78000259399414, -2.3848822116851807, -1.5092828273773193
340268, 0.08956244587898254, -0.06451082974672318, 0.07632889598608017, -0.02000037394464016, 0.1039823591709137, 0.0701361894607544, 0.04867593199014664, -0.0016189097659662366, 0.9984360337257385, 38.84138107299805, -2.3889169692993164, -1.5116946697235107, 0.0, 0.0, 0.0, 0, 0, 0, 0, 0, 0, 38.84138107299805, -2.3889169692993164, -1.5116946697235107
340278, 0.08855584263801575, -0.06545031815767288, 0.0748974084854126, -0.06933041661977768, 0.07184191793203354, -0.23011431097984314, 0.04903227090835571, -0.0016332888044416904, 0.9979699850082397, 38.902809143066406, -2.3929550647735596, -1.5141077041625977, 0.0, 0.0, 0.0, 0, 0, 0, 0, 0, 0, 38.902809143066406, -2.3929550647735596, -1.5141077041625977
340288, 0.08846993744373322, -0.06488464027643204, 0.076400525867939, -0.06157805398106575, -0.05040964111685753, 0.17160937190055847, 0.048546455800533295, -0.0012063205940648913, 0.9979946613311768, 38.96428680419922, -2.396996259689331, -1.5165225267410278, 0.0, 0.0, 0.0, 0, 0, 0, 0, 0, 0, 38.96428680419922, -2.396996259689331, -1.5165225267410278
340298, 0.08893012255430222, -0.06632917374372482, 0.07653922587633133, 0.10423213988542557, 0.23099251091480255, -0.045370571315288544, 0.04761859402060509, -0.003280493663623929, 0.9963738322257996, 39.02581024169922, -2.4010403156280518, -1.5189393758773804, 0.0, 0.0, 0.0, 0, 0, 0, 0, 0, 0, 39.02581024169922, -2.4010403156280518, -1.5189393758773804
340308, 0.08891783654689789, -0.06624391674995422, 0.07692821323871613, 0.05665834620594978, -0.10010504722595215, -0.09386923164129257, 0.04753826931118965, -0.0019113661255687475, 0.9964342713356018, 39.08738327026367, -2.405088186264038, -1.5213589668273926, 0.0, 0.0, 0.0, 0, 0, 0, 0, 0, 0, 39.08738327026367, -2.405088186264038, -1.5213589668273926
340318, 0.09013231098651886, -0.06620161235332489, 0.07838477939367294, 0.18756192922592163, -0.14654037356376648, 0.186739981174469, 0.047759514302015305, -8.800526120467111e-05, 0.9988678693771362, 39.14900588989258, -2.40913987159729, -1.5237820148468018, 0.0, 0.0, 0.0, 0, 0, 0, 0, 0, 0, 39.14900588989258, -2.40913987159729, -1.5237820148468018
340328, 0.08887715637683868, -0.06723201274871826, 0.07954265922307968, -0.08291863650083542, 0.16038602590560913, 0.13293419778347015, 0.04738950356841087, -0.002729513216763735, 0.9979639649391174, 39.21067428588867, -2.413194417953491, -1.5262073278427124, 0.0, 0.0, 0.0, 0, 0, 0, 0, 0, 0, 39.21067428588867, -2.413194417953491, -1.5262073278427124
340338, 0.08874215185642242, -0.06742417067289352, 0.08043312281370163, 0.021736593917012215, -0.044139426201581955, 0.0350845530629158, 0.04852640628814697, -0.0033915226813405752, 0.9989194273948669, 39.27239227294922, -2.4172520637512207, -1.5286344289779663, 0.0, 0.0, 0.0, 0, 0, 0, 0, 0, 0, 39.27239227294922, -2.4172520637512207, -1.5286344289779663
340348, 0.0880788192152977, -0.06818895041942596, 0.08070292323827744, -0.03833075985312462, 0.1145782470703125, 0.10510261356830597, 0.047247856855392456, -0.0013619851088151336, 0.997595489025116, 39.33415603637695, -2.421314001083374, -1.5310628414154053, 0.0, 0.0, 0.0, 0, 0, 0, 0, 0, 0, 39.33415603637695, -2.421314001083374, -1.5310628414154053
340358, 0.08744604885578156, -0.06771750748157501, 0.08143788576126099, -0.07184085994958878, 0.12810344994068146, -0.00638993177562952, 0.04761682078242302, -0.0006347621674649417, 0.9975989460945129, 39.39596939086914, -2.425379753112793, -1.533492922782898, 0.0, 0.0, 0.0, 0, 0, 0, 0, 0, 0, 39.39596939086914, -2.425379753112793, -1.533492922782898
340368, 0.08696941286325455, -0.06513852626085281, 0.08017296344041824, -0.08775260299444199, -0.34850847721099854, -0.14301156997680664, 0.04939033091068268, -0.0015924684703350067, 0.9989290237426758, 39.457828521728516, -2.429448127746582, -1.5359251499176025, 0.0, 0.0, 0.0, 0, 0, 0, 0, 0, 0, 39.457828521728516, -2.429448127746582, -1.5359251499176025
340378, 0.086920365691185, -0.06644852459430695, 0.07999467849731445, -0.024549368768930435, 0.16228069365024567, -0.029422733932733536, 0.04921231418848038, -0.0017541969427838922, 0.998674750328064, 39.519737243652344, -2.433519124984741, -1.5383588075637817, 0.0, 0.0, 0.0, 0, 0, 0, 0, 0, 0, 39.519737243652344, -2.433519124984741, -1.5383588075637817
340388, 0.08699533343315125, -0.06633751839399338, 0.08056598901748657, -0.00857395026832819, -0.003067184239625931, 0.12969234585762024, 0.048027291893959045, -0.0055465386249125, 0.998878538608551, 39.581695556640625, -2.437593460083008, -1.5407934188842773, 0.0, 0.0, 0.0, 0, 0, 0, 0, 0, 0, 39.581695556640625, -2.437593460083008, -1.5407934188842773
340398, 0.08710844814777374, -0.06582803279161453, 0.0798335000872612, 0.008563768118619919, 0.003585085505619645, -0.09970932453870773, 0.04891056939959526, -0.0034253413323312998, 0.9978827834129333, 39.64370346069336, -2.4416730403900146, -1.5432292222976685, 0.0, 0.0, 0.0, 0, 0, 0, 0, 0, 0, 39.64370346069336, -2.4416730403900146, -1.5432292222976685
340408, 0.08670729398727417, -0.06599891930818558, 0.07982879132032394, -0.08380959182977676, 0.05794030427932739, -0.05533493310213089, 0.04937976598739624, -0.001805216888897121, 0.9973781108856201, 39.70576095581055, -2.44575834274292, -1.5456666946411133, 0.0, 0.0, 0.0, 0, 0, 0, 0, 0, 0, 39.70576095581055, -2.44575834274292, -1.5456666946411133
340418, 0.08673407882452011, -0.06896193325519562, 0.08059300482273102, -0.06892606616020203, 0.25075748562812805, 0.02468189224600792, 0.0479620024561882, -0.0025974793825298548, 0.9973657727241516, 39.76786422729492, -2.44984769821167, -1.5481065511703491, 0.0, 0.0, 0.0, 0, 0, 0, 0, 0, 0, 39.76786422729492, -2.44984769821167, -1.5481065511703491
340428, 0.08663923293352127, -0.07043807208538055, 0.08083836734294891, 0.052122943103313446, 0.13078467547893524, 0.14183688163757324, 0.04913710430264473, -0.0032644979655742645, 0.9965546727180481, 39.83001708984375, -2.4539406299591064, -1.5505486726760864, 0.0, 0.0, 0.0, 0, 0, 0, 0, 0, 0, 39.83001708984375, -2.4539406299591064, -1.5505486726760864
340438, 0.0871230810880661, -0.07171675562858582, 0.07899294048547745, 0.09128403663635254, 0.20485876500606537, -0.18135592341423035, 0.04790685325860977, -0.003554716007784009, 0.9978407025337219, 39.89221954345703, -2.458037853240967, -1.5529935359954834, 0.0, 0.0, 0.0, 0, 0, 0, 0, 0, 0, 39.89221954345703, -2.458037853240967, -1.5529935359954834
340448, 0.08706091344356537, -0.07094664871692657, 0.08003559708595276, 0.053781911730766296, -0.1488649845123291, 0.2763451039791107, 0.04928749054670334, -0.0022704731673002243, 0.9968113303184509, 39.954471588134766, -2.462139844894409, -1.55544114112854, 0.0, 0.0, 0.0, 0, 0, 0, 0, 0, 0, 39.954471588134766, -2.462139844894409, -1.55544114112854
340458, 0.08714797347784042, -0.07029183208942413, 0.07969088107347488, 0.08392635732889175, -0.03010956197977066, -0.06654810905456543, 0.04689062759280205, -0.002927740104496479, 0.9975579977035522, 40.01677322387695, -2.4662461280822754, -1.5578912496566772, 0.0, 0.0, 0.0, 0, 0, 0, 0, 0, 0, 40.01677322387695, -2.4662461280822754, -1.5578912496566772
340468, 0.08639829605817795, -0.06996926665306091, 0.07902488857507706, 0.019030477851629257, -0.024114539846777916, 0.04685163125395775, 0.04744856059551239, -0.0031946219969540834, 0.9986359477043152, 40.07912063598633, -2.4703567028045654, -1.5603440999984741, 0.0, 0.0, 0.0, 0, 0, 0, 0, 0, 0, 40.07912063598633, -2.4703567028045654, -1.5603440999984741
340478, 0.08624079823493958, -0.07117948681116104, 0.07830077409744263, -0.0015452225925400853, 0.09725302457809448, -0.021616505458950996, 0.04710019379854202, -0.000993742374703288, 0.9972517490386963, 40.141517639160156, -2.4744718074798584, -1.5627989768981934, 0.0, 0.0, 0.0, 0, 0, 0, 0, 0, 0, 40.20396041870117, -2.478590488433838, -1.5652559995651245
340488, 0.08653093129396439, -0.07161352783441544, 0.07965357601642609, -0.08186691999435425, 0.22216510772705078, 0.22837132215499878, 0.04698282480239868, -0.002791754202917218, 0.9987401366233826, 40.20396041870117, -2.478590488433838, -1.5652559995651245, 0.0, 0.0, 0.0, 0, 0, 0, 0, 0, 0, 40.26645278930664, -2.482712507247925, -1.5677149295806885
340498, 0.08652689307928085, -0.07282880693674088, 0.08010594546794891, -0.14128218591213226, 0.164813831448555, 0.1215333342552185, 0.048047564923763275, -0.003267931053414941, 0.9988695979118347, 40.26645278930664, -2.482712507247925, -1.5677149295806885, 0.0, 0.0, 0.0, 0, 0, 0, 0, 0, 0, 40.3289909362793, -2.4868388175964355, -1.5701751708984375
340508, 0.08751547336578369, -0.07370668649673462, 0.08044389635324478, -0.0032932956237345934, 0.19755016267299652, -0.01898491568863392, 0.04934648051857948, -0.004329120274633169, 0.9968665242195129, 40.3289909362793, -2.4868388175964355, -1.5701751708984375, 0.0, 0.0, 0.0, 0, 0, 0, 0, 0, 0, 40.391578674316406, -2.4909701347351074, -1.5726374387741089
340518, 0.08764287829399109, -0.07229548692703247, 0.08056184649467468, 0.07155594229698181, -0.18876530230045319, -0.06508427113294601, 0.04951439052820206, -0.0029769001994282007, 0.9985050559043884, 40.391578674316406, -2.4909701347351074, -1.5726374387741089, 0.0, 0.0, 0.0, 0, 0, 0, 0, 0, 0, 40.45421600341797, -2.4951064586639404, -1.5751018524169922
340528, 0.08708475530147552, -0.07192449271678925, 0.08164776861667633, -0.15241435170173645, 0.009257465600967407, 0.2149823009967804, 0.047330692410469055, -0.0018285976257175207, 0.9990268349647522, 40.45421600341797, -2.4951064586639404, -1.5751018524169922, 0.0, 0.0, 0.0, 0, 0, 0, 0, 0, 0, 40.516902923583984, -2.49924635887146, -1.57756769657135
340538, 0.08762644976377487, -0.07073698192834854, 0.08185823261737823, 0.09175386279821396, -0.14120730757713318, 0.20346757769584656, 0.04742107540369034, -0.0033274239394813776, 0.9988686442375183, 40.516902923583984, -2.49924635887146, -1.57756769657135, 0.0, 0.0, 0.0, 0, 0, 0, 0, 0, 0, 40.57963943481445, -2.503390073776245, -1.580034613609314
340548, 0.0874028205871582, -0.06910688430070877, 0.08190763741731644, 0.003189265727996826, -0.19201205670833588, 0.06562577188014984, 0.047383297234773636, -0.003006360027939081, 1.0008500814437866, 40.57963943481445, -2.503390073776245, -1.580034613609314, 0.0, 0.0, 0.0, 0, 0, 0, 0, 0, 0, 40.64242172241211, -2.507538080215454, -1.5825018882751465
340558, 0.08746891468763351, -0.06794606149196625, 0.08261734992265701, -0.028256915509700775, -0.2893727421760559, 0.06650635600090027, 0.04740511253476143, -0.0009737088112160563, 0.9997259974479675, 40.64242172241211, -2.507538080215454, -1.5825018882751465, 0.0, 0.0, 0.0, 0, 0, 0, 0, 0, 0, 40.70525360107422, -2.5116896629333496, -1.5849690437316895
340568, 0.08736858516931534, -0.06871858984231949, 0.08274845033884048, -0.030720816925168037, 0.09305009990930557, -0.03002898581326008, 0.04840844124555588, -0.002450281288474798, 0.9988949298858643, 40.70525360107422, -2.5116896629333496, -1.5849690437316895, 0.0, 0.0, 0.0, 0, 0, 0, 0, 0, 0, 40.768131256103516, -2.5158445835113525, -1.5874367952346802
340578, 0.08708009123802185, -0.06906868517398834, 0.08343176543712616, -0.004629303235560656, 0.05599868297576904, 0.07758817076683044, 0.047568343579769135, -0.001995278289541602, 0.9968190789222717, 40.768131256103516, -2.5158445835113525, -1.5874367952346802, 0.0, 0.0, 0.0, 0, 0, 0, 0, 0, 0, 40.831058502197266, -2.520002841949463, -1.5899065732955933
340588, 0.08635400980710983, -0.06963904201984406, 0.08387868851423264, -0.05377510190010071, 0.14564338326454163, 0.13051624596118927, 0.04754791781306267, -0.003412054618820548, 0.9965192079544067, 40.831058502197266, -2.520002841949463, -1.5899065732955933, 0.0, 0.0, 0.0, 0, 0, 0, 0, 0, 0, 40.831058502197266, -2.520002841949463, -1.5899065732955933
340598, 0.0853600800037384, -0.07004683464765549, 0.08426400274038315, -0.19891388714313507, 0.03060029074549675, -0.027301637455821037, 0.046610791236162186, -0.004206474870443344, 0.9967820644378662, 40.8940315246582, -2.524165391921997, -1.5923794507980347, 0.0, 0.0, 0.0, 0, 0, 0, 0, 0, 0, 40.8940315246582, -2.524165391921997, -1.5923794507980347
340608, 0.08462696522474289, -0.06939133256673813, 0.08331414312124252, -0.18791821599006653, -0.2209865301847458, -0.1940842866897583, 0.047895655035972595, -0.004981824196875095, 0.9995725750923157, 40.957054138183594, -2.5283331871032715, -1.5948554277420044, 0.0, 0.0, 0.0, 0, 0, 0, 0, 0, 0, 40.957054138183594, -2.5283331871032715, -1.5948554277420044
340618, 0.084434375166893, -0.07279802858829498, 0.08381611853837967, -0.19758905470371246, 0.5741870999336243, 0.010952054522931576, 0.048160579055547714, -0.004887873772531748, 0.9993799328804016, 41.02012252807617, -2.5325069427490234, -1.5973331928253174, 0.0, 0.0, 0.0, 0, 0, 0, 0, 0, 0, 41.02012252807617, -2.5325069427490234, -1.5973331928253174
340628, 0.08521582186222076, -0.07288939505815506, 0.08469726890325546, 0.0393952839076519, 0.15111510455608368, 0.10391373187303543, 0.046570684760808945, -0.0035246843472123146, 0.999678373336792, 41.0832405090332, -2.536686897277832, -1.5998114347457886, 0.0, 0.0, 0.0, 0, 0, 0, 0, 0, 0, 41.0832405090332, -2.536686897277832, -1.5998114347457886
340638, 0.08605744689702988, -0.07331066578626633, 0.08387593924999237, -0.018115097656846046, 0.1596779227256775, -0.11523309350013733, 0.04721418023109436, -0.002161497250199318, 0.9984263777732849, 41.14640426635742, -2.540872573852539, -1.602290153503418, 0.0, 0.0, 0.0, 0, 0, 0, 0, 0, 0, 41.14640426635742, -2.540872573852539, -1.602290153503418
340648, 0.0860365554690361, -0.0729709193110466, 0.08351761102676392, -0.018504679203033447, -0.0728302001953125, -0.0449921116232872, 0.050202228128910065, -0.0010067925322800875, 1.0001391172409058, 41.209617614746094, -2.54506254196167, -1.6047697067260742, 0.0, 0.0, 0.0, 0, 0, 0, 0, 0, 0, 41.209617614746094, -2.54506254196167, -1.6047697067260742
340658, 0.08607102930545807, -0.07329181581735611, 0.08462214469909668, 0.113848015666008, 0.10993479192256927, 0.2557494640350342, 0.04804752767086029, -0.0034219087101519108, 0.9969136714935303, 41.27288055419922, -2.549255847930908, -1.6072499752044678, 0.0, 0.0, 0.0, 0, 0, 0, 0, 0, 0, 41.27288055419922, -2.549255847930908, -1.6072499752044678
340668, 0.08649266511201859, -0.07232104241847992, 0.08547720313072205, 0.015294410288333893, -0.0351065956056118, 0.052276644855737686, 0.04945571348071098, -0.0028057366143912077, 0.9976314902305603, 41.3361930847168, -2.553452730178833, -1.609731912612915, 0.0, 0.0, 0.0, 0, 0, 0, 0, 0, 0, 41.3361930847168, -2.553452730178833, -1.609731912612915
340678, 0.08640702068805695, -0.07456474751234055, 0.08668381720781326, -0.03700793907046318, 0.4496990740299225, 0.009839457459747791, 0.048847753554582596, -0.0007672312785871327, 0.9974700808525085, 41.39955139160156, -2.5576536655426025, -1.6122164726257324, 0.0, 0.0, 0.0, 0, 0, 0, 0, 0, 0, 41.39955139160156, -2.5576536655426025, -1.6122164726257324
340688, 0.0855628252029419, -0.07595628499984741, 0.08641287684440613, -0.14962147176265717, 0.1925932765007019, 0.08538094907999039, 0.04928316920995712, -0.0012266983976587653, 0.9983243942260742, 41.46295928955078, -2.5618579387664795, -1.6147034168243408, 0.0, 0.0, 0.0, 0, 0, 0, 0, 0, 0, 41.46295928955078, -2.5618579387664795, -1.6147034168243408
340698, 0.0850585475564003, -0.07516120374202728, 0.08590858429670334, 0.0023929988965392113, -0.1543727070093155, -0.03601839020848274, 0.04692132771015167, -0.0011537442915141582, 0.9977051615715027, 41.52641677856445, -2.5660648345947266, -1.6171921491622925, 0.0, 0.0, 0.0, 0, 0, 0, 0, 0, 0, 41.52641677856445, -2.5660648345947266, -1.6171921491622925
340708, 0.08468902856111526, -0.07535117119550705, 0.08612361550331116, -0.0674058347940445, 0.13581866025924683, 0.000797087384853512, 0.048397984355688095, -0.0018989078234881163, 0.9972645044326782, 41.58992385864258, -2.570274591445923, -1.6196829080581665, 0.0, 0.0, 0.0, 0, 0, 0, 0, 0, 0, 41.58992385864258, -2.570274591445923, -1.6196829080581665
340718, 0.0844690352678299, -0.07555639743804932, 0.08651262521743774, -0.01001907978206873, 0.16097614169120789, 0.014458604156970978, 0.048591747879981995, -0.002828780096024275, 0.9992585778236389, 41.653480529785156, -2.5744872093200684, -1.6221760511398315, 0.0, 0.0, 0.0, 0, 0, 0, 0, 0, 0, 41.653480529785156, -2.5744872093200684, -1.6221760511398315
340728, 0.08539164066314697, -0.07588670402765274, 0.08635567873716354, 0.041522007435560226, 0.02733677811920643, 0.007978221401572227, 0.05084581673145294, -0.001967372838407755, 0.9995181560516357, 41.71708297729492, -2.5787034034729004, -1.6246706247329712, 0.0, 0.0, 0.0, 0, 0, 0, 0, 0, 0, 41.71708297729492, -2.5787034034729004, -1.6246706247329712
340738, 0.08602629601955414, -0.07686237245798111, 0.08682669699192047, -0.02769242227077484, -0.09662599861621857, -0.07324514538049698, 0.050101254135370255, -0.0022790059447288513, 0.996613621711731, 41.780738830566406, -2.582923412322998, -1.6271657943725586, 0.0, 0.0, 0.0, 0, 0, 0, 0, 0, 0, 41.780738830566406, -2.582923412322998, -1.6271657943725586
340748, 0.08634296804666519, -0.07475867122411728, 0.08576485514640808, 0.039880432188510895, -0.4479559063911438, -0.04709545150399208, 0.04807687923312187, -0.0025253901258111, 0.9983518719673157, 41.844444274902344, -2.587146759033203, -1.6296629905700684, 0.0, 0.0, 0.0, 0, 0, 0, 0, 0, 0, 41.844444274902344, -2.587146759033203, -1.6296629905700684
340758, 0.08639411628246307, -0.07495858520269394, 0.0866841971874237, 0.05157409608364105, -0.09726095199584961, 0.013897845521569252, 0.04765927419066429, -0.0029485367704182863, 0.9986618161201477, 41.908199310302734, -2.591373920440674, -1.6321629285812378, 0.0, 0.0, 0.0, 0, 0, 0, 0, 0, 0, 41.908199310302734, -2.591373920440674, -1.6321629285812378
340768, 0.08634878695011139, -0.07503877580165863, 0.08714509755373001, 0.021183503791689873, -0.11316079646348953, 0.1403365582227707, 0.049014583230018616, -0.004272615537047386, 0.9998177289962769, 41.97200393676758, -2.5956053733825684, -1.6346644163131714, 0.0, 0.0, 0.0, 0, 0, 0, 0, 0, 0, 41.97200393676758, -2.5956053733825684, -1.6346644163131714
340778, 0.08695439249277115, -0.0733298808336258, 0.08578670769929886, 0.04183753952383995, -0.276699036359787, -0.10833393037319183, 0.04981229081749916, -0.0034330622293055058, 0.9996110200881958, 42.03585433959961, -2.599841833114624, -1.6371667385101318, 0.0, 0.0, 0.0, 0, 0, 0, 0, 0, 0, 42.03585433959961, -2.599841833114624, -1.6371667385101318
340788, 0.0870395079255104, -0.07413716614246368, 0.08562415093183517, -0.05563534423708916, 0.0016011339612305164, 0.14781822264194489, 0.04983393847942352, -0.0024055540561676025, 0.998069167137146, 42.099754333496094, -2.604083299636841, -1.639669418334961, 0.0, 0.0, 0.0, 0, 0, 0, 0, 0, 0, 42.099754333496094, -2.604083299636841, -1.639669418334961
340798, 0.08755355328321457, -0.07384360581636429, 0.08571956306695938, -0.05428555980324745, -0.06763683259487152, 0.13466227054595947, 0.05035400390625, -0.0008488547755405307, 0.9976981282234192, 42.16370391845703, -2.6083288192749023, -1.6421732902526855, 0.0, 0.0, 0.0, 0, 0, 0, 0, 0, 0, 42.16370391845703, -2.6083288192749023, -1.6421732902526855
340808, 0.08783939480781555, -0.07380027323961258, 0.08509597182273865, -0.03337697312235832, 0.05312776565551758, -0.04503582790493965, 0.048755038529634476, -0.00030006738961674273, 0.9971762895584106, 42.22770690917969, -2.612577438354492, -1.644679069519043, 0.0, 0.0, 0.0, 0, 0, 0, 0, 0, 0, 42.22770690917969, -2.612577438354492, -1.644679069519043
340818, 0.0877482071518898, -0.07489421218633652, 0.0849575400352478, -0.032624416053295135, -0.040508121252059937, -0.0221897941082716, 0.04977380111813545, -0.0034683775156736374, 0.9976566433906555, 42.2917594909668, -2.616828203201294, -1.6471871137619019, 0.0, 0.0, 0.0, 0, 0, 0, 0, 0, 0, 42.2917594909668, -2.616828203201294, -1.6471871137619019
340828, 0.08784949779510498, -0.07477043569087982, 0.0848320946097374, -0.009112004190683365, 0.13183541595935822, -0.11278106272220612, 0.04997888207435608, -0.002077363198623061, 0.9985508918762207, 42.35586166381836, -2.621082305908203, -1.6496976613998413, 0.0, 0.0, 0.0, 0, 0, 0, 0, 0, 0, 42.35586166381836, -2.621082305908203, -1.6496976613998413
340838, 0.08875542879104614, -0.07468833774328232, 0.08608255535364151, 0.19747449457645416, 0.04718548431992531, 0.13014228641986847, 0.04861218109726906, -0.001321728341281414, 1.0001802444458008, 42.420013427734375, -2.625340223312378, -1.652209997177124, 0.0, 0.0, 0.0, 0, 0, 0, 0, 0, 0, 42.420013427734375, -2.625340223312378, -1.652209997177124
340848, 0.08873186260461807, -0.07248047739267349, 0.08446288853883743, 0.11012180149555206, -0.2687041163444519, -0.18443487584590912, 0.04892907664179802, -0.0020465352572500706, 1.000435471534729, 42.484214782714844, -2.629601240158081, -1.654722809791565, 0.0, 0.0, 0.0, 0, 0, 0, 0, 0, 0, 42.484214782714844, -2.629601240158081, -1.654722809791565
340858, 0.0887063667178154, -0.07025818526744843, 0.08558332175016403, 0.016519680619239807, -0.132480189204216, 0.13944445550441742, 0.049732815474271774, -0.0030909490305930376, 0.9991592168807983, 42.548465728759766, -2.6338653564453125, -1.6572352647781372, 0.0, 0.0, 0.0, 0, 0, 0, 0, 0, 0, 42.548465728759766, -2.6338653564453125, -1.6572352647781372
340868, 0.08890213072299957, -0.06982646882534027, 0.08521600067615509, -0.03435492888092995, 0.03394421190023422, -0.16517919301986694, 0.048727549612522125, -0.0022174078039824963, 0.9987664818763733, 42.61276626586914, -2.6381335258483887, -1.6597479581832886, 0.0, 0.0, 0.0, 0, 0, 0, 0, 0, 0, 42.61276626586914, -2.6381335258483887, -1.6597479581832886
340878, 0.08834851533174515, -0.07005394995212555, 0.08483639359474182, -0.11987274885177612, 0.11026893556118011, -0.08812164515256882, 0.050225500017404556, -0.0015318958321586251, 0.9978545308113098, 42.67711639404297, -2.6424057483673096, -1.662261724472046, 0.0, 0.0, 0.0, 0, 0, 0, 0, 0, 0, 42.67711639404297, -2.6424057483673096, -1.662261724472046
340888, 0.08898667991161346, -0.06870438158512115, 0.08362825959920883, 0.23862230777740479, -0.21255047619342804, -0.025497274473309517, 0.05025810748338699, -0.0020447238348424435, 0.9991599917411804, 42.74151611328125, -2.646681547164917, -1.6647770404815674, 0.0, 0.0, 0.0, 0, 0, 0, 0, 0, 0, 42.74151611328125, -2.646681547164917, -1.6647770404815674
340898, 0.08809700608253479, -0.06864257901906967, 0.08386202156543732, -0.09883952140808105, -0.10022799670696259, 0.19926032423973083, 0.048997003585100174, -0.002937108976766467, 0.9979547262191772, 42.805965423583984, -2.650960922241211, -1.6672935485839844, 0.0, 0.0, 0.0, 0, 0, 0, 0, 0, 0, 42.805965423583984, -2.650960922241211, -1.6672935485839844
340908, 0.08793346583843231, -0.06904735416173935, 0.08354395627975464, 0.050556641072034836, -0.04023295268416405, -0.005711641162633896, 0.048672743141651154, -0.0017034522024914622, 0.9970747828483582, 42.87046432495117, -2.6552445888519287, -1.6698116064071655, 0.0, 0.0, 0.0, 0, 0, 0, 0, 0, 0, 42.87046432495117, -2.6552445888519287, -1.6698116064071655
340918, 0.08785764873027802, -0.06871438026428223, 0.08119940757751465, 0.05198794975876808, 0.047158826142549515, -0.24724017083644867, 0.04851383715867996, -0.0032307761721313, 0.9963065981864929, 42.93501281738281, -2.659532070159912, -1.6723322868347168, 0.0, 0.0, 0.0, 0, 0, 0, 0, 0, 0, 42.93501281738281, -2.659532070159912, -1.6723322868347168
340928, 0.08777213096618652, -0.07074488699436188, 0.0797971859574318, 0.08054568618535995, 0.22675356268882751, -0.09561605751514435, 0.04678327962756157, -0.004369609523564577, 0.9991318583488464, 42.999610900878906, -2.6638236045837402, -1.6748558282852173, 0.0, 0.0, 0.0, 0, 0, 0, 0, 0, 0, 42.999610900878906, -2.6638236045837402, -1.6748558282852173
340938, 0.0878780335187912, -0.07045970857143402, 0.08087724447250366, 0.048907507210969925, -0.04528287425637245, 0.19242370128631592, 0.04698093235492706, -0.0022688538301736116, 0.9965816140174866, 43.06425476074219, -2.6681203842163086, -1.6773816347122192, 0.0, 0.0, 0.0, 0, 0, 0, 0, 0, 0, 43.06425476074219, -2.6681203842163086, -1.6773816347122192
340948, 0.08804122358560562, -0.06962081044912338, 0.08081919699907303, 0.03218960016965866, -0.10561741143465042, 0.04714750126004219, 0.04811771586537361, -0.0007179449894465506, 0.9977296590805054, 43.12894821166992, -2.67242169380188, -1.6799097061157227, 0.0, 0.0, 0.0, 0, 0, 0, 0, 0, 0, 43.12894821166992, -2.67242169380188, -1.6799097061157227
340958, 0.087649866938591, -0.07102417200803757, 0.08079886436462402, -0.013325583189725876, 0.11349807679653168, -0.018227212131023407, 0.04772208631038666, -0.0032752524130046368, 0.9971228241920471, 43.193687438964844, -2.6767261028289795, -1.6824405193328857, 0.0, 0.0, 0.0, 0, 0, 0, 0, 0, 0, 43.193687438964844, -2.6767261028289795, -1.6824405193328857
340968, 0.08830515295267105, -0.07095634937286377, 0.08116470277309418, 0.1370997428894043, 0.15524853765964508, 0.1127144992351532, 0.04636793211102486, -0.002386805135756731, 0.9983347654342651, 43.25847625732422, -2.681034564971924, -1.684973955154419, 0.0, 0.0, 0.0, 0, 0, 0, 0, 0, 0, 43.25847625732422, -2.681034564971924, -1.684973955154419
340978, 0.08935331553220749, -0.0695304349064827, 0.08128068596124649, 0.08190304785966873, -0.05173477530479431, 0.2076275795698166, 0.047509726136922836, -0.0015466369222849607, 0.9976204633712769, 43.32331085205078, -2.685347318649292, -1.6875096559524536, 0.0, 0.0, 0.0, 0, 0, 0, 0, 0, 0, 43.32331085205078, -2.685347318649292, -1.6875096559524536
340988, 0.08913955092430115, -0.07149505615234375, 0.08003664016723633, -0.0600605234503746, 0.299381822347641, -0.29550570249557495, 0.049288805574178696, -0.001487818080931902, 0.9975526332855225, 43.3881950378418, -2.6896634101867676, -1.690047264099121, 0.0, 0.0, 0.0, 0, 0, 0, 0, 0, 0, 43.3881950378418, -2.6896634101867676, -1.690047264099121
340998, 0.08929667621850967, -0.07078699767589569, 0.08034303039312363, 0.1460755616426468, -0.25189465284347534, 0.07128745317459106, 0.04973802715539932, -0.0015209708362817764, 0.9991796612739563, 43.453125, -2.6939826011657715, -1.69258713722229, 0.0, 0.0, 0.0, 0, 0, 0, 0, 0, 0, 43.453125, -2.6939826011657715, -1.69258713722229
341008, 0.08947981894016266, -0.07344795763492584, 0.08078566193580627, 0.049981795251369476, 0.3947591781616211, 0.1462889164686203, 0.04620631784200668, -0.0012353017227724195, 0.9979365468025208, 43.518104553222656, -2.6983048915863037, -1.6951286792755127, 0.0, 0.0, 0.0, 0, 0, 0, 0, 0, 0, 43.518104553222656, -2.6983048915863037, -1.6951286792755127
341018, 0.08941363543272018, -0.07391288131475449, 0.0807790532708168, -0.04236478731036186, 0.14361929893493652, 0.04360320419073105, 0.04804212599992752, -0.002482539974153042, 0.9987972378730774, 43.583133697509766, -2.7026302814483643, -1.6976717710494995, 0.0, 0.0, 0.0, 0, 0, 0, 0, 0, 0, 43.583133697509766, -2.7026302814483643, -1.6976717710494995
341028, 0.08966545760631561, -0.07425140589475632, 0.07956387847661972, 0.16902241110801697, 0.08918172121047974, -0.1273988038301468, 0.04856517165899277, -0.0031814193353056908, 0.9978477954864502, 43.64821243286133, -2.7069594860076904, -1.70021653175354, 0.0, 0.0, 0.0, 0, 0, 0, 0, 0, 0, 43.64821243286133, -2.7069594860076904, -1.70021653175354
341038, 0.08925497531890869, -0.07563351839780807, 0.07959862798452377, -0.03823656588792801, 0.3579459488391876, 0.10985079407691956, 0.048330582678318024, -0.0031394485849887133, 0.9994824528694153, 43.71333694458008, -2.7112929821014404, -1.7027628421783447, 0.0, 0.0, 0.0, 0, 0, 0, 0, 0, 0, 43.71333694458008, -2.7112929821014404, -1.7027628421783447
341048, 0.08932366222143173, -0.07538153231143951, 0.07821554690599442, 0.06923694163560867, 0.002829540753737092, -0.15887953341007233, 0.04944682866334915, -0.0011375887552276254, 0.9976685047149658, 43.77851104736328, -2.7156307697296143, -1.7053104639053345, 0.0, 0.0, 0.0, 0, 0, 0, 0, 0, 0, 43.77851104736328, -2.7156307697296143, -1.7053104639053345
341058, 0.08934934437274933, -0.07581806182861328, 0.07966568320989609, -0.06011546030640602, 0.17898736894130707, 0.10562329739332199, 0.049006860703229904, -0.0019607970025390387, 0.9972448348999023, 43.84373474121094, -2.7199721336364746, -1.7078596353530884, 0.0, 0.0, 0.0, 0, 0, 0, 0, 0, 0, 43.84373474121094, -2.7199721336364746, -1.7078596353530884
341068, 0.0886041671037674, -0.07763238251209259, 0.08020417392253876, -0.056873664259910583, 0.24934804439544678, 0.010571886785328388, 0.0487266480922699, -0.0020500158425420523, 0.9966002702713013, 43.90900802612305, -2.7243165969848633, -1.7104114294052124, 0.0, 0.0, 0.0, 0, 0, 0, 0, 0, 0, 43.90900802612305, -2.7243165969848633, -1.7104114294052124
341078, 0.08741477876901627, -0.07756904512643814, 0.08088314533233643, -0.04196854680776596, -0.008538950234651566, -0.051053985953330994, 0.04962989687919617, -0.003559848526492715, 0.9962704181671143, 43.97433090209961, -2.7286648750305176, -1.7129663228988647, 0.0, 0.0, 0.0, 0, 0, 0, 0, 0, 0, 43.97433090209961, -2.7286648750305176, -1.7129663228988647
341088, 0.08643907308578491, -0.08029159158468246, 0.08081202208995819, 0.010699852369725704, 0.2664453983306885, -0.14888396859169006, 0.0493280291557312, -0.004572458565235138, 0.9974789023399353, 44.039703369140625, -2.733017683029175, -1.715524673461914, 0.0, 0.0, 0.0, 0, 0, 0, 0, 0, 0, 44.039703369140625, -2.733017683029175, -1.715524673461914
341098, 0.08643049001693726, -0.08230409026145935, 0.08208521455526352, 0.005603676661849022, 0.12889240682125092, 0.258404403924942, 0.04776987433433533, -0.0009332125773653388, 0.9970076084136963, 44.105125427246094, -2.7373759746551514, -1.7180861234664917, 0.0, 0.0, 0.0, 0, 0, 0, 0, 0, 0, 44.105125427246094, -2.7373759746551514, -1.7180861234664917
341108, 0.086603082716465, -0.08274976164102554, 0.08197613805532455, -0.12118731439113617, -0.0445442833006382, -0.1681436151266098, 0.04725217446684837, -0.0023154481314122677, 0.9990231990814209, 44.170597076416016, -2.7417385578155518, -1.7206501960754395, 0.0, 0.0, 0.0, 0, 0, 0, 0, 0, 0, 44.170597076416016, -2.7417385578155518, -1.7206501960754395
341118, 0.0866541936993599, -0.08339007198810577, 0.08264189958572388, -0.0036974740214645863, 0.06205998733639717, 0.03202354535460472, 0.04770410805940628, -0.002465497236698866, 0.9984779953956604, 44.23611831665039, -2.7461042404174805, -1.72321617603302, 0.0, 0.0, 0.0, 0, 0, 0, 0, 0, 0, 44.23611831665039, -2.7461042404174805, -1.72321617603302
341128, 0.0870499238371849, -0.08633247017860413, 0.08253687620162964, 0.07111179828643799, 0.2159450352191925, -0.04130997881293297, 0.04768749326467514, -0.0019410349195823073, 0.9982279539108276, 44.30168533325195, -2.750473737716675, -1.7257834672927856, 0.0, 0.0, 0.0, 0, 0, 0, 0, 0, 0, 44.30168533325195, -2.750473737716675, -1.7257834672927856
341138, 0.08713534474372864, -0.08522173017263412, 0.08282804489135742, 0.06028071418404579, -0.03734884411096573, 0.3229794204235077, 0.0491756945848465, -0.003667886834591627, 0.9978142976760864, 44.36730194091797, -2.7548470497131348, -1.728352427482605, 0.0, 0.0, 0.0, 0, 0, 0, 0, 0, 0, 44.36730194091797, -2.7548470497131348, -1.728352427482605
341148, 0.08723381161689758, -0.08439696580171585, 0.0810982882976532, 0.00900899339467287, -0.1948326826095581, -0.03348243981599808, 0.04758891090750694, -0.003313628025352955, 0.9959295392036438, 44.43296813964844, -2.7592248916625977, -1.7309235334396362, 0.0, 0.0, 0.0, 0, 0, 0, 0, 0, 0, 44.43296813964844, -2.7592248916625977, -1.7309235334396362
341158, 0.08763549476861954, -0.08435499668121338, 0.08071446418762207, -0.037034403532743454, -0.11304709315299988, 0.024327347055077553, 0.048423074185848236, -0.0028014660347253084, 0.9960638284683228, 44.49868392944336, -2.7636075019836426, -1.7334978580474854, 0.0, 0.0, 0.0, 0, 0, 0, 0, 0, 0, 44.49868392944336, -2.7636075019836426, -1.7334978580474854
341168, 0.08742326498031616, -0.08513807505369186, 0.0808994397521019, -0.21536611020565033, 0.06286091357469559, -0.09799355268478394, 0.0469619482755661, -0.0036734987515956163, 0.9964894652366638, 44.56444549560547, -2.7679946422576904, -1.7360761165618896, 0.0, 0.0, 0.0, 0, 0, 0, 0, 0, 0, 44.56444549560547, -2.7679946422576904, -1.7360761165618896
341178, 0.08760002255439758, -0.0851464569568634, 0.07997474819421768, -0.04565732553601265, 0.196503683924675, -0.29380500316619873, 0.048792269080877304, -0.003650820814073086, 0.9974225163459778, 44.63025665283203, -2.7723865509033203, -1.738657832145691, 0.0, 0.0, 0.0, 0, 0, 0, 0, 0, 0, 44.63025665283203, -2.7723865509033203, -1.738657832145691
341188, 0.08762317150831223, -0.08368426561355591, 0.07926128059625626, -0.06342565268278122, -0.17371754348278046, -0.18162432312965393, 0.04875422641634941, -0.0012013348750770092, 0.9984861016273499, 44.69611740112305, -2.7767834663391113, -1.7412422895431519, 0.0, 0.0, 0.0, 0, 0, 0, 0, 0, 0, 44.69611740112305, -2.7767834663391113, -1.7412422895431519
341198, 0.08776512742042542, -0.08213256299495697, 0.07980688661336899, 0.05081157386302948, -0.29454493522644043, 0.012668946757912636, 0.048114750534296036, -0.0021029356867074966, 0.9986969232559204, 44.762027740478516, -2.781184196472168, -1.7438286542892456, 0.0, 0.0, 0.0, 0, 0, 0, 0, 0, 0, 44.762027740478516, -2.781184196472168, -1.7438286542892456
341208, 0.08821425586938858, -0.08141633123159409, 0.081142857670784, 0.06153637170791626, -0.11096280813217163, 0.1578703373670578, 0.04694031924009323, -0.002344070468097925, 0.9957053065299988, 44.82798385620117, -2.785588264465332, -1.7464163303375244, 0.0, 0.0, 0.0, 0, 0, 0, 0, 0, 0, 44.82798385620117, -2.785588264465332, -1.7464163303375244
341218, 0.08739251643419266, -0.08083521574735641, 0.08026697486639023, -0.12132199853658676, -0.1477503627538681, -0.08447979390621185, 0.04833071678876877, -0.0036905468441545963, 0.9980452656745911, 44.89398956298828, -2.7899961471557617, -1.7490065097808838, 0.0, 0.0, 0.0, 0, 0, 0, 0, 0, 0, 44.89398956298828, -2.7899961471557617, -1.7490065097808838
341228, 0.08767787367105484, -0.07963602244853973, 0.08137176185846329, 0.05553162470459938, -0.36446231603622437, 0.1649564802646637, 0.05014263466000557, -0.003942621406167746, 0.9970346689224243, 44.960044860839844, -2.7944085597991943, -1.7515997886657715, 0.0, 0.0, 0.0, 0, 0, 0, 0, 0, 0, 44.960044860839844, -2.7944085597991943, -1.7515997886657715
341238, 0.08754938095808029, -0.07817908376455307, 0.08210325241088867, -0.035664152354002, -0.26833033561706543, -0.03380516916513443, 0.04967619851231575, -0.0025430824607610703, 0.998298168182373, 45.02614974975586, -2.7988264560699463, -1.7541954517364502, 0.0, 0.0, 0.0, 0, 0, 0, 0, 0, 0, 45.02614974975586, -2.7988264560699463, -1.7541954517364502
341248, 0.08772403001785278, -0.0761965736746788, 0.0827438160777092, 0.07966218888759613, -0.16854670643806458, 0.14908979833126068, 0.04899390786886215, -0.00135552987921983, 0.9967776536941528, 45.09230422973633, -2.803248882293701, -1.7567933797836304, 0.0, 0.0, 0.0, 0, 0, 0, 0, 0, 0, 45.09230422973633, -2.803248882293701, -1.7567933797836304
341258, 0.08742278069257736, -0.0775703638792038, 0.08166118711233139, -0.026422981172800064, 0.16353675723075867, -0.10000570863485336, 0.0480983704328537, -0.0017237208085134625, 0.9976038336753845, 45.15850830078125, -2.8076748847961426, -1.7593936920166016, 0.0, 0.0, 0.0, 0, 0, 0, 0, 0, 0, 45.15850830078125, -2.8076748847961426, -1.7593936920166016
341268, 0.08820869773626328, -0.07977159321308136, 0.08300156891345978, 0.07203508168458939, 0.20114953815937042, 0.2546955347061157, 0.04900365322828293, -0.00230208458378911, 0.9961126446723938, 45.224761962890625, -2.8121039867401123, -1.7619969844818115, 0.0, 0.0, 0.0, 0, 0, 0, 0, 0, 0, 45.224761962890625, -2.8121039867401123, -1.7619969844818115
341278, 0.0890856683254242, -0.08273416012525558, 0.08321481943130493, 0.07303547114133835, 0.32530179619789124, -0.0058442396111786366, 0.04852132871747017, -0.00327773904427886, 0.9964652061462402, 45.29106521606445, -2.8165366649627686, -1.7646033763885498, 0.0, 0.0, 0.0, 0, 0, 0, 0, 0, 0, 45.29106521606445, -2.8165366649627686, -1.7646033763885498
341288, 0.08912532031536102, -0.08215643465518951, 0.08296183496713638, -0.010433204472064972, -0.09809141606092453, 0.008683877997100353, 0.049685560166835785, -0.005159138701856136, 0.9973446130752563, 45.357418060302734, -2.8209736347198486, -1.767213225364685, 0.0, 0.0, 0.0, 0, 0, 0, 0, 0, 0, 45.357418060302734, -2.8209736347198486, -1.767213225364685
341298, 0.08899130672216415, -0.08362576365470886, 0.0851420909166336, -0.06793712824583054, 0.07452426850795746, 0.3671000301837921, 0.04762011766433716, -0.0020222507882863283, 0.9966672658920288, 45.42382049560547, -2.825416088104248, -1.7698261737823486, 0.0, 0.0, 0.0, 0, 0, 0, 0, 0, 0, 45.42382049560547, -2.825416088104248, -1.7698261737823486
341308, 0.08897443115711212, -0.08417651057243347, 0.08551017940044403, 0.0025689273606985807, 0.21902325749397278, 0.187690868973732, 0.047442492097616196, -0.002184744458645582, 0.9971894025802612, 45.49026870727539, -2.8298635482788086, -1.7724422216415405, 0.0, 0.0, 0.0, 0, 0, 0, 0, 0, 0, 45.49026870727539, -2.8298635482788086, -1.7724422216415405
341318, 0.0886940211057663, -0.08422674983739853, 0.08376020938158035, -0.055508166551589966, -0.027559950947761536, -0.07273521274328232, 0.04833308979868889, -0.002143682213500142, 0.9990425705909729, 45.556766510009766, -2.8343145847320557, -1.7750613689422607, 0.0, 0.0, 0.0, 0, 0, 0, 0, 0, 0, 45.556766510009766, -2.8343145847320557, -1.7750613689422607
341328, 0.08907968550920486, -0.08686260879039764, 0.08385926485061646, 0.09154979139566422, 0.35078877210617065, 0.08760703355073929, 0.05000106245279312, 0.0003076537686865777, 0.9990593791007996, 45.623313903808594, -2.8387691974639893, -1.7776825428009033, 0.0, 0.0, 0.0, 0, 0, 0, 0, 0, 0, 45.623313903808594, -2.8387691974639893, -1.7776825428009033
341338, 0.08912375569343567, -0.08683938533067703, 0.08455255627632141, 0.15354056656360626, -0.05412139743566513, 0.18452784419059753, 0.04711543768644333, -0.001203857478685677, 0.9965510368347168, 45.689910888671875, -2.8432259559631348, -1.7803047895431519, 0.0, 0.0, 0.0, 0, 0, 0, 0, 0, 0, 45.689910888671875, -2.8432259559631348, -1.7803047895431519
341348, 0.08812706172466278, -0.08768773823976517, 0.08437281847000122, -0.1680339276790619, 0.044016286730766296, 0.06246910244226456, 0.04904500022530556, -0.0030714443419128656, 0.9973800778388977, 45.756553649902344, -2.847684621810913, -1.7829291820526123, 0.0, 0.0, 0.0, 0, 0, 0, 0, 0, 0, 45.756553649902344, -2.847684621810913, -1.7829291820526123
341358, 0.08852431923151016, -0.08754121512174606, 0.08583834767341614, 0.0531296469271183, -0.051546625792980194, 0.06321103125810623, 0.049667179584503174, -0.0040221125818789005, 0.9975917935371399, 45.823246002197266, -2.852146863937378, -1.7855565547943115, 0.0, 0.0, 0.0, 0, 0, 0, 0, 0, 0, 45.88998794555664, -2.856614112854004, -1.7881864309310913
341368, 0.08838049322366714, -0.08790479600429535, 0.08683574199676514, -0.04211703687906265, 0.19129671156406403, 0.18533653020858765, 0.04750169813632965, -0.003575647249817848, 0.9980319738388062, 45.88998794555664, -2.856614112854004, -1.7881864309310913, 0.0, 0.0, 0.0, 0, 0, 0, 0, 0, 0, 45.95677947998047, -2.861086845397949, -1.790818452835083
341378, 0.08918680995702744, -0.08689592778682709, 0.08693757653236389, 0.07798870652914047, -0.12723274528980255, -0.030123790726065636, 0.04617537930607796, -0.0019117099000141025, 0.9983910918235779, 45.95677947998047, -2.861086845397949, -1.790818452835083, 0.0, 0.0, 0.0, 0, 0, 0, 0, 0, 0, 46.02362060546875, -2.8655641078948975, -1.7934521436691284
341388, 0.08851562440395355, -0.08649887889623642, 0.08751918375492096, 0.014359954744577408, -0.048945311456918716, 0.05998961254954338, 0.04605764150619507, -0.00212966394610703, 0.9981099963188171, 46.02362060546875, -2.8655641078948975, -1.7934521436691284, 0.0, 0.0, 0.0, 0, 0, 0, 0, 0, 0, 46.09050750732422, -2.8700449466705322, -1.796087384223938
341398, 0.0874454602599144, -0.08694669604301453, 0.08712522685527802, 0.008964579552412033, -0.05903429910540581, -0.1421377956867218, 0.04576217755675316, -0.0018864955054596066, 0.9964223504066467, 46.09050750732422, -2.8700449466705322, -1.796087384223938, 0.0, 0.0, 0.0, 0, 0, 0, 0, 0, 0, 46.157440185546875, -2.8745293617248535, -1.7987251281738281
341408, 0.08705994486808777, -0.08800024539232254, 0.08846215903759003, -0.00556163489818573, -0.0622626468539238, 0.1686040163040161, 0.04812893271446228, -0.0009037961135618389, 0.9970345497131348, 46.157440185546875, -2.8745293617248535, -1.7987251281738281, 0.0, 0.0, 0.0, 0, 0, 0, 0, 0, 0, 46.224422454833984, -2.879016876220703, -1.801365852355957
341418, 0.08747927099466324, -0.08798046410083771, 0.08844020962715149, 0.07987053692340851, -0.13067872822284698, -0.08268322795629501, 0.050149861723184586, -0.002729633590206504, 0.9955152869224548, 46.224422454833984, -2.879016876220703, -1.801365852355957, 0.0, 0.0, 0.0, 0, 0, 0, 0, 0, 0, 46.29145431518555, -2.88350772857666, -1.8040101528167725
341428, 0.08810435235500336, -0.08650417625904083, 0.08907879889011383, 0.1555425375699997, -0.2124304473400116, 0.018926767632365227, 0.04945165291428566, -0.0020954899955540895, 0.9975559711456299, 46.29145431518555, -2.88350772857666, -1.8040101528167725, 0.0, 0.0, 0.0, 0, 0, 0, 0, 0, 0, 46.35853576660156, -2.8880021572113037, -1.8066577911376953
341438, 0.08829745650291443, -0.0857958048582077, 0.08845199644565582, -0.04852411150932312, -0.09899706393480301, -0.08785581588745117, 0.04885062575340271, -0.0032318029552698135, 0.9996806979179382, 46.35853576660156, -2.8880021572113037, -1.8066577911376953, 0.0, 0.0, 0.0, 0, 0, 0, 0, 0, 0, 46.42566680908203, -2.892500638961792, -1.8093069791793823
341448, 0.08797423541545868, -0.08413763344287872, 0.08777318149805069, -0.13501706719398499, -0.21223066747188568, -0.07726027071475983, 0.050726085901260376, -0.0025630018208175898, 0.9991715550422668, 46.42566680908203, -2.892500638961792, -1.8093069791793823, 0.0, 0.0, 0.0, 0, 0, 0, 0, 0, 0, 46.49284744262695, -2.897003650665283, -1.8119568824768066
341458, 0.08778245002031326, -0.08289027959108353, 0.08824941515922546, -0.08865080773830414, -0.07166323810815811, -0.019074806943535805, 0.051828525960445404, -0.00020181830041110516, 0.9978840351104736, 46.49284744262695, -2.897003650665283, -1.8119568824768066, 0.0, 0.0, 0.0, 0, 0, 0, 0, 0, 0, 46.560081481933594, -2.9015095233917236, -1.8146079778671265
341468, 0.0874299630522728, -0.08367380499839783, 0.08809348940849304, -0.0015173128340393305, 0.05288659408688545, 0.027410930022597313, 0.048454444855451584, -0.000914374424610287, 0.9990347027778625, 46.560081481933594, -2.9015095233917236, -1.8146079778671265, 0.0, 0.0, 0.0, 0, 0, 0, 0, 0, 0, 46.560081481933594, -2.9015095233917236, -1.8146079778671265
341478, 0.08591101318597794, -0.08353623002767563, 0.08838050067424774, -0.19139881432056427, -0.013009017333388329, 0.12543250620365143, 0.0483534075319767, -0.0029272204264998436, 0.9969848394393921, 46.63409423828125, -2.906468629837036, -1.8175257444381714, 0.0, 0.0, 0.0, 0, 0, 0, 0, 0, 0, 46.63409423828125, -2.906468629837036, -1.8175257444381714
341488, 0.08612918853759766, -0.08392716199159622, 0.08737591654062271, 0.10419384390115738, 0.02653096430003643, 0.019076231867074966, 0.047768734395504, -0.003861922537907958, 1.001112461090088, 46.70143127441406, -2.910980463027954, -1.8201799392700195, 0.0, 0.0, 0.0, 0, 0, 0, 0, 0, 0, 46.70143127441406, -2.910980463027954, -1.8201799392700195
341498, 0.08658190071582794, -0.08607332408428192, 0.08807926625013351, 0.16925226151943207, 0.1588154435157776, 0.033932168036699295, 0.04833322390913963, -0.0047672404907643795, 1.0005074739456177, 46.76881790161133, -2.915497064590454, -1.822834849357605, 0.0, 0.0, 0.0, 0, 0, 0, 0, 0, 0, 46.76881790161133, -2.915497064590454, -1.822834849357605
341508, 0.0864512100815773, -0.08722339570522308, 0.08790618181228638, -0.03895943611860275, 0.20858994126319885, -0.03983505442738533, 0.04940908029675484, -0.0026819799095392227, 0.9980049133300781, 46.83625411987305, -2.9200191497802734, -1.8254891633987427, 0.0, 0.0, 0.0, 0, 0, 0, 0, 0, 0, 46.83625411987305, -2.9200191497802734, -1.8254891633987427
341518, 0.0864512100815773, -0.08722339570522308, 0.08790618181228638, 0.0593048557639122, -0.13310182094573975, 0.035215675830841064, 0.04979408532381058, -0.004669251386076212, 0.997695803642273, 46.90373992919922, -2.924546480178833, -1.8281444311141968, 0.0, 0.0, 0.0, 0, 0, 0, 0, 0, 0, 46.90373992919922, -2.924546480178833, -1.8281444311141968
341528, 0.08610305935144424, -0.0866251215338707, 0.08825750648975372, 0.1533617526292801, -0.03141633793711662, 0.32790279388427734, 0.049011748284101486, -0.001980276545509696, 0.9983509182929993, 46.971275329589844, -2.9290788173675537, -1.8308018445968628, 0.0, 0.0, 0.0, 0, 0, 0, 0, 0, 0, 46.971275329589844, -2.9290788173675537, -1.8308018445968628
341538, 0.08728009462356567, -0.08659201115369797, 0.08952738344669342, 0.08770060539245605, -0.06314854323863983, -0.05637083575129509, 0.0500161312520504, -0.0017375601455569267, 0.997797429561615, 47.03886032104492, -2.9336154460906982, -1.8334614038467407, 0.0, 0.0, 0.0, 0, 0, 0, 0, 0, 0, 47.03886032104492, -2.9336154460906982, -1.8334614038467407
341548, 0.08728009462356567, -0.08659201115369797, 0.08952738344669342, 0.008000419475138187, -0.011774697341024876, -0.15360508859157562, 0.04892003908753395, -0.0032085110433399677, 0.998005747795105, 47.10649490356445, -2.9381556510925293, -1.8361231088638306, 0.0, 0.0, 0.0, 0, 0, 0, 0, 0, 0, 47.10649490356445, -2.9381556510925293, -1.8361231088638306
341558, 0.08814477175474167, -0.08548802882432938, 0.08952424675226212, -0.10141155123710632, -0.00033626542426645756, 0.01863272301852703, 0.04907046630978584, -0.00300697167403996, 0.9983687996864319, 47.17417907714844, -2.942699670791626, -1.8387868404388428, 0.0, 0.0, 0.0, 0, 0, 0, 0, 0, 0, 47.17417907714844, -2.942699670791626, -1.8387868404388428
341568, 0.08763144910335541, -0.08434270322322845, 0.08982698619365692, -0.007639569696038961, 0.04521555453538895, 0.17214776575565338, 0.05078153312206268, -0.0014058465603739023, 0.9985278248786926, 47.241912841796875, -2.9472479820251465, -1.8414522409439087, 0.0, 0.0, 0.0, 0, 0, 0, 0, 0, 0, 47.241912841796875, -2.9472479820251465, -1.8414522409439087
341578, 0.0877196341753006, -0.08485863357782364, 0.091093510389328, -0.031104963272809982, -0.22699429094791412, -0.027368471026420593, 0.047983620315790176, -0.0028128765989094973, 0.9977506995201111, 47.30970001220703, -2.9517998695373535, -1.8441190719604492, 0.0, 0.0, 0.0, 0, 0, 0, 0, 0, 0, 47.30970001220703, -2.9517998695373535, -1.8441190719604492
341588, 0.08757821470499039, -0.08492010086774826, 0.09072072803974152, 0.06002797558903694, 0.03364879637956619, 0.04688144102692604, 0.04907911270856857, -0.003484934801235795, 0.9967467784881592, 47.37753677368164, -2.9563558101654053, -1.846787452697754, 0.0, 0.0, 0.0, 0, 0, 0, 0, 0, 0, 47.37753677368164, -2.9563558101654053, -1.846787452697754
341598, 0.08743055164813995, -0.08794676512479782, 0.09034615755081177, -0.12971186637878418, 0.24131904542446136, -0.1374933421611786, 0.046591900289058685, -0.0020716157741844654, 0.9983137845993042, 47.44541931152344, -2.96091628074646, -1.8494584560394287, 0.0, 0.0, 0.0, 0, 0, 0, 0, 0, 0, 47.44541931152344, -2.96091628074646, -1.8494584560394287
341608, 0.0869787260890007, -0.08912362158298492, 0.08982626348733902, -0.05137292668223381, 0.001849547727033496, -0.11875016242265701, 0.04557794705033302, -0.0032541779801249504, 0.9988434910774231, 47.51335144042969, -2.9654808044433594, -1.8521316051483154, 0.0, 0.0, 0.0, 0, 0, 0, 0, 0, 0, 47.51335144042969, -2.9654808044433594, -1.8521316051483154
341618, 0.08680284023284912, -0.08962995558977127, 0.08931464701890945, -0.14633682370185852, -0.24888558685779572, -0.09975618124008179, 0.048128142952919006, -0.0006361312698572874, 0.998020589351654, 47.581329345703125, -2.9700493812561035, -1.8548061847686768, 0.0, 0.0, 0.0, 0, 0, 0, 0, 0, 0, 47.581329345703125, -2.9700493812561035, -1.8548061847686768
341628, 0.08609818667173386, -0.08678886294364929, 0.08893068879842758, 0.1905854344367981, -0.07927730679512024, 0.2264041155576706, 0.04765539616346359, -0.002319606486707926, 0.9983667731285095, 47.649356842041016, -2.974621295928955, -1.8574823141098022, 0.0, 0.0, 0.0, 0, 0, 0, 0, 0, 0, 47.649356842041016, -2.974621295928955, -1.8574823141098022
341638, 0.08680394291877747, -0.0876341238617897, 0.08918336778879166, -0.07395455241203308, 0.25395098328590393, 0.2529907822608948, 0.04820067435503006, -0.0018965305062010884, 0.9989672899246216, 47.717430114746094, -2.979196548461914, -1.8601603507995605, 0.0, 0.0, 0.0, 0, 0, 0, 0, 0, 0, 47.717430114746094, -2.979196548461914, -1.8601603507995605
341648, 0.08656951785087585, -0.09035785496234894, 0.09081947803497314, 0.14980313181877136, 0.05288542062044144, 0.23962193727493286, 0.04848647862672806, -0.004138715099543333, 0.9987861514091492, 47.785552978515625, -2.9837753772735596, -1.862839698791504, 0.0, 0.0, 0.0, 0, 0, 0, 0, 0, 0, 47.785552978515625, -2.9837753772735596, -1.862839698791504
341658, 0.08641117066144943, -0.09053703397512436, 0.0920618548989296, 0.01406333688646555, -0.04040912911295891, -0.07385970652103424, 0.04881901666522026, -0.004377803299576044, 0.9977832436561584, 47.85372543334961, -2.988358736038208, -1.8655203580856323, 0.0, 0.0, 0.0, 0, 0, 0, 0, 0, 0, 47.85372543334961, -2.988358736038208, -1.8655203580856323
341668, 0.0864182785153389, -0.08845807611942291, 0.09091425687074661, 0.06725619733333588, 0.07802437245845795, -0.05236862972378731, 0.04669928178191185, -0.001364670810289681, 0.9964772462844849, 47.92194747924805, -2.992947578430176, -1.868203043937683, 0.0, 0.0, 0.0, 0, 0, 0, 0, 0, 0, 47.92194747924805, -2.992947578430176, -1.868203043937683
341678, 0.08760946989059448, -0.08957730233669281, 0.09067090600728989, 0.16601067781448364, 0.045645151287317276, 0.024408454075455666, 0.0482434518635273, -0.00041119943489320576, 0.9961419105529785, 47.99021530151367, -2.9975404739379883, -1.8708887100219727, 0.0, 0.0, 0.0, 0, 0, 0, 0, 0, 0, 47.99021530151367, -2.9975404739379883, -1.8708887100219727
341688, 0.08829604089260101, -0.0904780700802803, 0.09028656780719757, -0.016082586720585823, 0.032086730003356934, 0.24284455180168152, 0.048408154398202896, -0.0032485611736774445, 0.9971179366111755, 48.05853271484375, -3.002135753631592, -1.8735780715942383, 0.0, 0.0, 0.0, 0, 0, 0, 0, 0, 0, 48.05853271484375, -3.002135753631592, -1.8735780715942383
341698, 0.08839377015829086, -0.0906241163611412, 0.09171421080827713, 0.07158064097166061, 0.21926303207874298, -0.04368330538272858, 0.048129722476005554, -0.0037593713495880365, 0.99904865026474, 48.12689971923828, -3.006734609603882, -1.8762705326080322, 0.0, 0.0, 0.0, 0, 0, 0, 0, 0, 0, 48.12689971923828, -3.006734609603882, -1.8762705326080322
341708, 0.08903136104345322, -0.09130293875932693, 0.09033779054880142, 0.08538290113210678, -0.16010354459285736, -0.1478477418422699, 0.05018774792551994, -0.0032908893190324306, 0.9996553659439087, 48.195316314697266, -3.011338233947754, -1.8789646625518799, 0.0, 0.0, 0.0, 0, 0, 0, 0, 0, 0, 48.195316314697266, -3.011338233947754, -1.8789646625518799
341718, 0.08957243710756302, -0.09121086448431015, 0.09051204472780228, 0.00520178209990263, 0.16876329481601715, 0.14907565712928772, 0.05154773220419884, -0.003778228536248207, 1.0002740621566772, 48.2637825012207, -3.015947103500366, -1.8816592693328857, 0.0, 0.0, 0.0, 0, 0, 0, 0, 0, 0, 48.2637825012207, -3.015947103500366, -1.8816592693328857
341728, 0.08975861221551895, -0.09198473393917084, 0.09153448045253754, 0.0188987348228693, -0.03282245993614197, -0.1760970652103424, 0.05035047605633736, -0.002947748638689518, 0.995841383934021, 48.332298278808594, -3.0205609798431396, -1.8843541145324707, 0.0, 0.0, 0.0, 0, 0, 0, 0, 0, 0, 48.332298278808594, -3.0205609798431396, -1.8843541145324707
341738, 0.09024988859891891, -0.09189586341381073, 0.09105262905359268, -0.07984893023967743, -0.17206016182899475, -0.3167491555213928, 0.04903142526745796, -0.003621889278292656, 0.9969065189361572, 48.4008674621582, -3.025179624557495, -1.8870513439178467, 0.0, 0.0, 0.0, 0, 0, 0, 0, 0, 0, 48.4008674621582, -3.025179624557495, -1.8870513439178467
341748, 0.08969388157129288, -0.09088516235351562, 0.09037390351295471, -0.042045753449201584, -0.09176898747682571, -0.016116812825202942, 0.04939955472946167, -0.001578145893290639, 0.9987990856170654, 48.469486236572266, -3.0298025608062744, -1.88975191116333, 0.0, 0.0, 0.0, 0, 0, 0, 0, 0, 0, 48.469486236572266, -3.0298025608062744, -1.88975191116333
341758, 0.08944602310657501, -0.08960939198732376, 0.09004826098680496, 0.025077423080801964, -0.12714356184005737, -0.077559694647789, 0.047887466847896576, -0.00446147657930851, 0.9981844425201416, 48.53815460205078, -3.0344293117523193, -1.8924545049667358, 0.0, 0.0, 0.0, 0, 0, 0, 0, 0, 0, 48.53815460205078, -3.0344293117523193, -1.8924545049667358
341768, 0.08953455090522766, -0.08944903314113617, 0.09020273387432098, 0.08397078514099121, 0.2438797950744629, 0.13060688972473145, 0.04892865568399429, -0.003650627564638853, 0.997951865196228, 48.60687255859375, -3.0390610694885254, -1.8951587677001953, 0.0, 0.0, 0.0, 0, 0, 0, 0, 0, 0, 48.60687255859375, -3.0390610694885254, -1.8951587677001953
341778, 0.08949831873178482, -0.09112109243869781, 0.09078110754489899, -0.04925454407930374, -0.05334729328751564, 0.015505895018577576, 0.04747815057635307, -0.004529735539108515, 0.9994585514068604, 48.67564010620117, -3.04369854927063, -1.897864818572998, 0.0, 0.0, 0.0, 0, 0, 0, 0, 0, 0, 48.67564010620117, -3.04369854927063, -1.897864818572998
341788, 0.08945796638727188, -0.0901617482304573, 0.09098143130540848, 0.006098267622292042, -0.1989486664533615, -0.1374405026435852, 0.04771890491247177, -0.0029132363852113485, 1.0012381076812744, 48.74445724487305, -3.0483412742614746, -1.900571584701538, 0.0, 0.0, 0.0, 0, 0, 0, 0, 0, 0, 48.74445724487305, -3.0483412742614746, -1.900571584701538
341798, 0.08932100236415863, -0.08850882202386856, 0.09086742997169495, 0.07027564197778702, 0.11196231096982956, 0.0553080253303051, 0.04804836958646774, -0.001139252446591854, 0.9981470704078674, 48.81332015991211, -3.0529890060424805, -1.903278112411499, 0.0, 0.0, 0.0, 0, 0, 0, 0, 0, 0, 48.81332015991211, -3.0529890060424805, -1.903278112411499
341808, 0.08977845311164856, -0.08892887085676193, 0.09165652096271515, -0.029059676453471184, 0.25877776741981506, -0.02220665104687214, 0.04810229316353798, -0.002574954181909561, 0.9967886209487915, 48.882232666015625, -3.057640314102173, -1.9059851169586182, 0.0, 0.0, 0.0, 0, 0, 0, 0, 0, 0, 48.882232666015625, -3.057640314102173, -1.9059851169586182
341818, 0.09008302539587021, -0.09093448519706726, 0.09120849519968033, 0.03508191555738449, 0.1283668428659439, 0.08217031508684158, 0.04804246127605438, -0.0028941351920366287, 0.9975429177284241, 48.951194763183594, -3.0622951984405518, -1.9086945056915283, 0.0, 0.0, 0.0, 0, 0, 0, 0, 0, 0, 48.951194763183594, -3.0622951984405518, -1.9086945056915283
341828, 0.09043130278587341, -0.09111857414245605, 0.09181056171655655, -0.0924438014626503, 0.3452529311180115, 0.04107221961021423, 0.04779629036784172, -0.0023690517991781235, 0.9984897375106812, 49.020206451416016, -3.0669543743133545, -1.9114067554473877, 0.0, 0.0, 0.0, 0, 0, 0, 0, 0, 0, 49.020206451416016, -3.0669543743133545, -1.9114067554473877
341838, 0.08959990739822388, -0.0925748348236084, 0.09213382750749588, 0.10506398975849152, -0.1284971684217453, -0.05419904366135597, 0.049299996346235275, -0.003514376003295183, 0.9967994689941406, 49.08926773071289, -3.071617603302002, -1.9141207933425903, 0.0, 0.0, 0.0, 0, 0, 0, 0, 0, 0, 49.08926773071289, -3.071617603302002, -1.9141207933425903
341848, 0.08945951610803604, -0.09174825996160507, 0.09149818867444992, -0.1637878119945526, -0.2016284167766571, -0.14958380162715912, 0.04933692142367363, -0.0006148830871097744, 0.9969984292984009, 49.15837478637695, -3.0762851238250732, -1.9168370962142944, 0.0, 0.0, 0.0, 0, 0, 0, 0, 0, 0, 49.15837478637695, -3.0762851238250732, -1.9168370962142944
341858, 0.08914339542388916, -0.09152603894472122, 0.09189177304506302, -0.08392433822154999, 0.12028853595256805, -0.07756049931049347, 0.046758800745010376, -0.0026275557465851307, 0.9991948008537292, 49.22753143310547, -3.080955982208252, -1.9195561408996582, 0.0, 0.0, 0.0, 0, 0, 0, 0, 0, 0, 49.22753143310547, -3.080955982208252, -1.9195561408996582
341868, 0.08832427859306335, -0.09155458211898804, 0.09137634932994843, 0.15531447529792786, -0.16139833629131317, -0.0728636234998703, 0.04903436079621315, -0.004042144399136305, 1.0006035566329956, 49.29673767089844, -3.085630416870117, -1.9222767353057861, 0.0, 0.0, 0.0, 0, 0, 0, 0, 0, 0, 49.29673767089844, -3.085630416870117, -1.9222767353057861
341878, 0.0892469733953476, -0.09015987813472748, 0.0915718674659729, -0.17553456127643585, -0.020078985020518303, -0.2060631364583969, 0.04831574112176895, -0.0054434603080153465, 0.9991464018821716, 49.36599349975586, -3.0903098583221436, -1.9249975681304932, 0.0, 0.0, 0.0, 0, 0, 0, 0, 0, 0, 49.36599349975586, -3.0903098583221436, -1.9249975681304932
341888, 0.08818705379962921, -0.08971602469682693, 0.0906863734126091, -0.21000611782073975, 0.015740718692541122, -0.016864171251654625, 0.04842539504170418, -0.002981042256578803, 0.9995005130767822, 49.435298919677734, -3.0949957370758057, -1.9277184009552002, 0.0, 0.0, 0.0, 0, 0, 0, 0, 0, 0, 49.435298919677734, -3.0949957370758057, -1.9277184009552002
341898, 0.08802499622106552, -0.09014496952295303, 0.09133250266313553, 0.0922190397977829, 0.19942085444927216, 0.039344072341918945, 0.04813075065612793, -0.002508238423615694, 0.9994973540306091, 49.50465393066406, -3.099686861038208, -1.9304395914077759, 0.0, 0.0, 0.0, 0, 0, 0, 0, 0, 0, 49.50465393066406, -3.099686861038208, -1.9304395914077759
341908, 0.08776075392961502, -0.09014823287725449, 0.08998453617095947, 0.0421212874352932, -0.24811480939388275, -0.2007589489221573, 0.04766310378909111, -0.0028742619324475527, 0.9961163997650146, 49.57405471801758, -3.104382276535034, -1.9331614971160889, 0.0, 0.0, 0.0, 0, 0, 0, 0, 0, 0, 49.57405471801758, -3.104382276535034, -1.9331614971160889
341918, 0.08752480894327164, -0.08983327448368073, 0.08949445188045502, 0.09287416189908981, -0.22832722961902618, -0.020886199548840523, 0.04806409776210785, -0.003365197451785207, 0.9975703954696655, 49.64350509643555, -3.109081983566284, -1.9358855485916138, 0.0, 0.0, 0.0, 0, 0, 0, 0, 0, 0, 49.64350509643555, -3.109081983566284, -1.9358855485916138
341928, 0.08914586901664734, -0.0888432189822197, 0.08959881961345673, -0.03187016025185585, -0.11759191006422043, -0.0352305993437767, 0.050907835364341736, -0.0030720182694494724, 0.9989014863967896, 49.71300506591797, -3.113786220550537, -1.938612461090088, 0.0, 0.0, 0.0, 0, 0, 0, 0, 0, 0, 49.71300506591797, -3.113786220550537, -1.938612461090088
341938, 0.08939613401889801, -0.087684765458107, 0.08936969935894012, 0.004091501235961914, 0.20275412499904633, 0.057365044951438904, 0.04768097400665283, -0.0036653855349868536, 0.9989264011383057, 49.782554626464844, -3.118495225906372, -1.9413409233093262, 0.0, 0.0, 0.0, 0, 0, 0, 0, 0, 0, 49.782554626464844, -3.118495225906372, -1.9413409233093262
341948, 0.09015427529811859, -0.08814730495214462, 0.09015175700187683, -0.003862193785607815, 0.01991604082286358, -0.11602857708930969, 0.04833618551492691, -0.002614856930449605, 0.9975094795227051, 49.85215377807617, -3.123208999633789, -1.9440704584121704, 0.0, 0.0, 0.0, 0, 0, 0, 0, 0, 0, 49.85215377807617, -3.123208999633789, -1.9440704584121704
341958, 0.09039044380187988, -0.08955005556344986, 0.0895707979798317, -0.2845030128955841, 0.2903478741645813, -0.07676604390144348, 0.0483693927526474, -0.0030131125822663307, 0.9982407093048096, 49.92180252075195, -3.127927303314209, -1.946801781654358, 0.0, 0.0, 0.0, 0, 0, 0, 0, 0, 0, 49.92180252075195, -3.127927303314209, -1.946801781654358
341968, 0.0886913537979126, -0.09152158349752426, 0.08876506984233856, 0.019544217735528946, -0.10905390977859497, -0.07847921550273895, 0.04860139265656471, -0.0007297085248865187, 0.9977213144302368, 49.99150085449219, -3.1326496601104736, -1.9495350122451782, 0.0, 0.0, 0.0, 0, 0, 0, 0, 0, 0, 49.99150085449219, -3.1326496601104736, -1.9495350122451782
341978, 0.08871489018201828, -0.09085565060377121, 0.08831284195184708, -0.015518027357757092, 0.14664439857006073, 0.10413020849227905, 0.05124060809612274, -0.0011714576976373792, 0.9995741844177246, 50.061248779296875, -3.1373753547668457, -1.9522700309753418, 0.0, 0.0, 0.0, 0, 0, 0, 0, 0, 0, 50.061248779296875, -3.1373753547668457, -1.9522700309753418
341988, 0.08870061486959457, -0.09205552935600281, 0.08910184353590012, 0.17769353091716766, -0.15068963170051575, -0.03869856148958206, 0.049115754663944244, -0.0016765958862379193, 0.9984549880027771, 50.131046295166016, -3.142103433609009, -1.9550063610076904, 0.0, 0.0, 0.0, 0, 0, 0, 0, 0, 0, 50.131046295166016, -3.142103433609009, -1.9550063610076904
341998, 0.08854974061250687, -0.09224221110343933, 0.08920753002166748, 0.05467623099684715, -0.06578056514263153, 0.1139003336429596, 0.046539776027202606, -0.003660346381366253, 0.9974960684776306, 50.20089340209961, -3.1468348503112793, -1.9577440023422241, 0.0, 0.0, 0.0, 0, 0, 0, 0, 0, 0, 50.20089340209961, -3.1468348503112793, -1.9577440023422241
342008, 0.08943551778793335, -0.09217942506074905, 0.08852668851613998, -0.16715602576732635, 0.09840942174196243, -0.13464699685573578, 0.04778057709336281, -0.002120129531249404, 0.9975175261497498, 50.270790100097656, -3.1515705585479736, -1.9604835510253906, 0.0, 0.0, 0.0, 0, 0, 0, 0, 0, 0, 50.270790100097656, -3.1515705585479736, -1.9604835510253906
342018, 0.08953937143087387, -0.0919724702835083, 0.08843717724084854, -0.028466178104281425, -0.0561186708509922, -0.03508434072136879, 0.049303088337183, -4.506581535679288e-05, 0.9966083765029907, 50.34073257446289, -3.1563100814819336, -1.9632256031036377, 0.0, 0.0, 0.0, 0, 0, 0, 0, 0, 0, 50.34073257446289, -3.1563100814819336, -1.9632256031036377
342028, 0.08895686268806458, -0.09232601523399353, 0.08819717168807983, 0.03057916834950447, 0.12918871641159058, 0.02782086282968521, 0.048480890691280365, -0.001449533156119287, 0.997227668762207, 50.41072463989258, -3.1610519886016846, -1.9659708738327026, 0.0, 0.0, 0.0, 0, 0, 0, 0, 0, 0, 50.41072463989258, -3.1610519886016846, -1.9659708738327026
342038, 0.08788987994194031, -0.09383445978164673, 0.08836466073989868, 0.10319609194993973, -0.018523816019296646, 0.30663707852363586, 0.048333603888750076, -0.0037327278405427933, 0.9987148642539978, 50.48076629638672, -3.1657962799072266, -1.9687191247940063, 0.0, 0.0, 0.0, 0, 0, 0, 0, 0, 0, 50.48076629638672, -3.1657962799072266, -1.9687191247940063
342048, 0.08882643282413483, -0.09417062252759933, 0.08950335532426834, -0.08476203680038452, 0.17284126579761505, -0.08308747410774231, 0.04846424236893654, -0.004629169125109911, 0.9986880421638489, 50.55085754394531, -3.1705448627471924, -1.9714692831039429, 0.0, 0.0, 0.0, 0, 0, 0, 0, 0, 0, 50.55085754394531, -3.1705448627471924, -1.9714692831039429
342058, 0.08781556785106659, -0.09340415894985199, 0.08685243874788284, 0.004569557029753923, 0.2701699733734131, -0.01781925931572914, 0.04911057651042938, -0.0027175142895430326, 0.9997197389602661, 50.62099838256836, -3.1752989292144775, -1.9742205142974854, 0.0, 0.0, 0.0, 0, 0, 0, 0, 0, 0, 50.62099838256836, -3.1752989292144775, -1.9742205142974854
342068, 0.08682785928249359, -0.09582312405109406, 0.08668436855077744, 0.05915529653429985, 0.5664207935333252, 0.23499223589897156, 0.049496326595544815, -0.0029051234014332294, 0.9972667098045349, 50.69118881225586, -3.180058002471924, -1.9769724607467651, 0.0, 0.0, 0.0, 0, 0, 0, 0, 0, 0, 50.69118881225586, -3.180058002471924, -1.9769724607467651
342078, 0.08670470118522644, -0.09881767630577087, 0.0875517874956131, 0.047210585325956345, -0.20240025222301483, 0.23178233206272125, 0.04819175601005554, -0.0009337953524664044, 0.9958221912384033, 50.76142883300781, -3.184821367263794, -1.979725956916809, 0.0, 0.0, 0.0, 0, 0, 0, 0, 0, 0, 50.76142883300781, -3.184821367263794, -1.979725956916809
342088, 0.08719798177480698, -0.09695770591497421, 0.08856471627950668, -0.02696789614856243, -0.1475847065448761, -0.12189032882452011, 0.04742482677102089, -0.0011484732385724783, 0.9965059757232666, 50.83171844482422, -3.1895878314971924, -1.98248291015625, 0.0, 0.0, 0.0, 0, 0, 0, 0, 0, 0, 50.83171844482422, -3.1895878314971924, -1.98248291015625
342098, 0.08673267066478729, -0.09704074263572693, 0.08753608912229538, 0.02125534601509571, 0.08277808129787445, -0.08669673651456833, 0.04891941696405411, -0.003846170613542199, 0.9973118901252747, 50.90205764770508, -3.19435715675354, -1.9852432012557983, 0.0, 0.0, 0.0, 0, 0, 0, 0, 0, 0, 50.90205764770508, -3.19435715675354, -1.9852432012557983
342108, 0.08681420236825943, -0.09742514044046402, 0.08697949349880219, -0.03875327855348587, -0.021958529949188232, -0.11441658437252045, 0.0473121739923954, -0.0027071055956184864, 0.9974731802940369, 50.97244644165039, -3.1991305351257324, -1.9880062341690063, 0.0, 0.0, 0.0, 0, 0, 0, 0, 0, 0, 50.97244644165039, -3.1991305351257324, -1.9880062341690063
342118, 0.08706832677125931, -0.09771273285150528, 0.08641886711120605, -0.08374267816543579, -0.06043318659067154, 0.03741102293133736, 0.04761422052979469, -0.0029317508451640606, 0.9974168539047241, 51.04288101196289, -3.2039084434509277, -1.9907716512680054, 0.0, 0.0, 0.0, 0, 0, 0, 0, 0, 0, 51.04288101196289, -3.2039084434509277, -1.9907716512680054
342128, 0.08645994961261749, -0.09704158455133438, 0.08686430752277374, -0.05607666075229645, 0.06602953374385834, -0.10117655247449875, 0.046577952802181244, -0.00022601676755584776, 0.9970604777336121, 51.113365173339844, -3.2086904048919678, -1.9935394525527954, 0.0, 0.0, 0.0, 0, 0, 0, 0, 0, 0, 51.113365173339844, -3.2086904048919678, -1.9935394525527954
342138, 0.08597806841135025, -0.0976053923368454, 0.08716299384832382, 0.2133491039276123, -0.05459200590848923, -0.028007233515381813, 0.04661846160888672, -0.002256814856082201, 0.9973170161247253, 51.183895111083984, -3.213475465774536, -1.9963098764419556, 0.0, 0.0, 0.0, 0, 0, 0, 0, 0, 0, 51.183895111083984, -3.213475465774536, -1.9963098764419556
342148, 0.08666207641363144, -0.09668061882257462, 0.08652488142251968, -0.12853693962097168, -0.021685751155018806, 0.05690945312380791, 0.04732672497630119, -0.004088439978659153, 1.0003304481506348, 51.25447463989258, -3.218263626098633, -1.9990826845169067, 0.0, 0.0, 0.0, 0, 0, 0, 0, 0, 0, 51.25447463989258, -3.218263626098633, -1.9990826845169067
342158, 0.08578228950500488, -0.09691083431243896, 0.08689407259225845, -0.02352157048881054, -0.014290115796029568, 0.0504596009850502, 0.04893789067864418, -0.0021435506641864777, 0.9977049827575684, 51.32509994506836, -3.2230563163757324, -2.0018563270568848, 0.0, 0.0, 0.0, 0, 0, 0, 0, 0, 0, 51.32509994506836, -3.2230563163757324, -2.0018563270568848
342168, 0.08550318330526352, -0.09663357585668564, 0.0876653864979744, -0.07866324484348297, 0.023571565747261047, -0.10576266795396805, 0.04918968677520752, -0.0004300867731217295, 0.9987199902534485, 51.395774841308594, -3.2278530597686768, -2.004631280899048, 0.0, 0.0, 0.0, 0, 0, 0, 0, 0, 0, 51.395774841308594, -3.2278530597686768, -2.004631280899048
342178, 0.08643580973148346, -0.09538480639457703, 0.08733197301626205, -0.05019271746277809, -0.11868250370025635, 0.14904865622520447, 0.04744843766093254, -0.0010228784522041678, 0.9979034662246704, 51.46649932861328, -3.232652425765991, -2.0074081420898438, 0.0, 0.0, 0.0, 0, 0, 0, 0, 0, 0, 51.46649932861328, -3.232652425765991, -2.0074081420898438
342188, 0.08665614575147629, -0.09481918811798096, 0.08878806978464127, -0.1367558091878891, -0.24723395705223083, 0.18176287412643433, 0.04769836366176605, -0.004294103942811489, 0.9976267218589783, 51.53727340698242, -3.2374541759490967, -2.0101866722106934, 0.0, 0.0, 0.0, 0, 0, 0, 0, 0, 0, 51.53727340698242, -3.2374541759490967, -2.0101866722106934
342198, 0.08619140088558197, -0.09308333694934845, 0.09038232266902924, -0.08048270642757416, -0.11285755038261414, -0.04738733917474747, 0.04650968685746193, -0.004818521905690432, 0.9971249103546143, 51.608097076416016, -3.242260456085205, -2.012967586517334, 0.0, 0.0, 0.0, 0, 0, 0, 0, 0, 0, 51.608097076416016, -3.242260456085205, -2.012967586517334
342208, 0.08534166216850281, -0.09202172607183456, 0.09050962328910828, -0.02674170397222042, 0.0664583221077919, 0.19265241920948029, 0.04586631432175636, -0.004053592216223478, 0.9989975690841675, 51.6789665222168, -3.24707293510437, -2.0157508850097656, 0.0, 0.0, 0.0, 0.02357938140630722, 0.03773386776447296, 0.02826216258108616, 4.858626066425227, -0.45244303598799024, 3.1736809729700894, 51.6789665222168, -3.24707293510437, -2.0157508850097656
342218, 0.08522454649209976, -0.09294667840003967, 0.09218044579029083, -0.040366750210523605, -0.061965782195329666, 0.11024985462427139, 0.047942157834768295, -0.003741950960829854, 0.9990597367286682, 51.74988555908203, -3.2518913745880127, -2.018535852432251, 0.0, 0.0, 0.0, 0.023583082482218742, 0.037736620754003525, 0.028239145874977112, 4.859219688409915, -0.45236542665345325, 3.1799622811161044, 51.74988555908203, -3.2518913745880127, -2.018535852432251
342228, 0.08434382826089859, -0.09312460571527481, 0.09242457896471024, 0.05057097226381302, 0.029370101168751717, 0.05070488527417183, 0.048192888498306274, -0.0027422527782619, 0.9992029666900635, 51.82085037231445, -3.2567150592803955, -2.0213217735290527, 0.0, 0.0, 0.0, 0.023586470633745193, 0.03772652894258499, 0.028239602223038673, 4.8686361290022955, -0.4129125670854771, 3.2113972296044153, 51.82085037231445, -3.2567150592803955, -2.0213217735290527
342238, 0.084172323346138, -0.09004325419664383, 0.09326215833425522, -0.22608664631843567, -0.23424704372882843, 0.07344220578670502, 0.04836831986904144, -0.002219150774180889, 0.9990334510803223, 51.89186477661133, -3.2615432739257812, -2.024108409881592, 0.0, 0.0, 0.0, 0.023509811609983444, 0.03776838630437851, 0.028289373964071274, 4.904680157026914, -0.28862209121801063, 3.1039419071322243, 51.89186477661133, -3.2615432739257812, -2.024108409881592
342248, 0.08448982238769531, -0.08880347013473511, 0.0933752954006195, 0.05559062585234642, -0.11333489418029785, 0.033702775835990906, 0.04819020628929138, -0.004031191114336252, 0.9980645775794983, 51.962928771972656, -3.2663755416870117, -2.0268959999084473, 0.0, 0.0, 0.0, 0.023523658514022827, 0.037770826369524, 0.028317702934145927, 4.910124102883538, -0.30003467346279655, 3.153296040039095, 51.962928771972656, -3.2663755416870117, -2.0268959999084473
342258, 0.0851232185959816, -0.08789516985416412, 0.09262929856777191, -0.00040556216845288873, 0.05515550822019577, -0.18764574825763702, 0.04783882200717926, -0.0030306908302009106, 0.9977777600288391, 52.03404235839844, -3.271212577819824, -2.0296850204467773, 0.0, 0.0, 0.0, 0.02363722212612629, 0.037709470838308334, 0.02817181497812271, 4.797679919203786, -0.6546703128091679, 3.2065281727727495, 52.03404235839844, -3.271212577819824, -2.0296850204467773
342268, 0.08509472757577896, -0.08917544037103653, 0.09347733110189438, 0.0020522628910839558, 0.12751643359661102, 0.15474003553390503, 0.048360053449869156, -0.004250257275998592, 0.9989305734634399, 52.105201721191406, -3.276054620742798, -2.0324759483337402, 0.0, 0.0, 0.0, 0.023642590269446373, 0.03770794719457626, 0.028171800076961517, 4.800077242732145, -0.6399557655305023, 3.2248445970744797, 52.105201721191406, -3.276054620742798, -2.0324759483337402
