timeTick, roll, pitch, yaw, gyroX, gyroY, gyroZ, accX, accY, accZ, stateX, stateY, stateZ, target_x, target_y, target_z, otX, otY, otZ, otRoll, otPitch, otYaw, kalX, kalY, kalZ
54220, -0.12995266914367676, 1.149856448173523, -3.189965009689331, 0, 0, 0, 0, 0, 0, 0, 0, 0, 0, 0, 0, 0, 0, 0, 0, 0, 0, 0, 0, 0
54230, -0.13027815520763397, 1.1482213735580444, -3.1871063709259033, -0.021337687969207764, 0.0955263152718544, 0.12206850945949554, 0.02391461841762066, 0.009276880882680416, 1.001930832862854, -2.092508554458618, 4.460943222045898, -0.27245041728019714, 0.0, 0.0, 0.0, 0, 0, 0, 0, 0, 0, -2.092508554458618, 4.460943222045898, -0.27245041728019714
54240, -0.12816736102104187, 1.146321415901184, -3.1830899715423584, 0.15498556196689606, 0.30045562982559204, 0.0584251843392849, 0.023412903770804405, 0.008299166336655617, 1.0001500844955444, -2.096208333969116, 4.4710822105407715, -0.27240777015686035, 0.0, 0.0, 0.0, 0, 0, 0, 0, 0, 0, -2.096208333969116, 4.4710822105407715, -0.27240777015686035
54250, -0.12884776294231415, 1.145541787147522, -3.1808788776397705, -0.13219183683395386, -0.022260867059230804, 0.03910137340426445, 0.02648509480059147, 0.008654138073325157, 0.9987430572509766, -2.0999042987823486, 4.481231689453125, -0.2723637521266937, 0.0, 0.0, 0.0, 0, 0, 0, 0, 0, 0, -2.0999042987823486, 4.481231689453125, -0.2723637521266937
54260, -0.1291285753250122, 1.1445415019989014, -3.1781439781188965, 0.04578479379415512, -0.07791124284267426, 0.03926828131079674, 0.026024047285318375, 0.008732556365430355, 1.0005024671554565, -2.10359525680542, 4.491391181945801, -0.27231964468955994, 0.0, 0.0, 0.0, 0, 0, 0, 0, 0, 0, -2.10359525680542, 4.491391181945801, -0.27231964468955994
54270, -0.1287737786769867, 1.1426539421081543, -3.17612886428833, 0.14175964891910553, 0.017663398757576942, 0.005231232848018408, 0.026167958974838257, 0.007634333334863186, 1.0007569789886475, -2.1072800159454346, 4.501561164855957, -0.2722754180431366, 0.0, 0.0, 0.0, 0, 0, 0, 0, 0, 0, -2.1072800159454346, 4.501561164855957, -0.2722754180431366
54280, -0.12981203198432922, 1.1412038803100586, -3.1734063625335693, -0.1676395833492279, 0.11683770269155502, -0.09535618126392365, 0.02617938257753849, 0.007978466339409351, 1.0011621713638306, -2.1109585762023926, 4.511740684509277, -0.2722301483154297, 0.0, 0.0, 0.0, 0, 0, 0, 0, 0, 0, -2.1109585762023926, 4.511740684509277, -0.2722301483154297
54290, -0.13002312183380127, 1.138840913772583, -3.1698687076568604, 0.03469756618142128, -0.018007196485996246, 0.020241782069206238, 0.025282200425863266, 0.00831238366663456, 0.9999908804893494, -2.114630937576294, 4.521929740905762, -0.2721835672855377, 0.0, 0.0, 0.0, 0, 0, 0, 0, 0, 0, -2.114630937576294, 4.521929740905762, -0.2721835672855377
54300, -0.12969918549060822, 1.1389555931091309, -3.1664657592773438, 0.06822726875543594, -0.24297307431697845, -0.03914625570178032, 0.027374545112252235, 0.011564673855900764, 1.0009123086929321, -2.118297576904297, 4.53212833404541, -0.2721361815929413, 0.0, 0.0, 0.0, 0, 0, 0, 0, 0, 0, -2.118297576904297, 4.53212833404541, -0.2721361815929413
54310, -0.1282312124967575, 1.1380003690719604, -3.1629507541656494, 0.22522954642772675, 0.018781276419758797, 0.10922687500715256, 0.027172163128852844, 0.010173266753554344, 1.0019807815551758, -2.121957540512085, 4.5423383712768555, -0.272087961435318, 0.0, 0.0, 0.0, 0, 0, 0, 0, 0, 0, -2.121957540512085, 4.5423383712768555, -0.272087961435318
54320, -0.1281784325838089, 1.1373835802078247, -3.1599910259246826, -0.07835797220468521, -0.0852162092924118, -0.1806774139404297, 0.02614346705377102, 0.008194451220333576, 1.0002095699310303, -2.1256103515625, 4.552560329437256, -0.27203792333602905, 0.0, 0.0, 0.0, 0, 0, 0, 0, 0, 0, -2.1256103515625, 4.552560329437256, -0.27203792333602905
54330, -0.12858907878398895, 1.1367028951644897, -3.1562340259552, -0.04364374279975891, -0.26273173093795776, -0.0054696896113455296, 0.026039810851216316, 0.009521286934614182, 1.0023118257522583, -2.1292564868927, 4.562793254852295, -0.271986186504364, 0.0, 0.0, 0.0, 0, 0, 0, 0, 0, 0, -2.1292564868927, 4.562793254852295, -0.271986186504364
54340, -0.12879028916358948, 1.1330819129943848, -3.151089668273926, 0.02677423134446144, 0.371867835521698, 0.322420209646225, 0.02506774291396141, 0.009333917871117592, 1.002684473991394, -2.132896661758423, 4.5730366706848145, -0.2719326913356781, 0.0, 0.0, 0.0, 0, 0, 0, 0, 0, 0, -2.132896661758423, 4.5730366706848145, -0.2719326913356781
54350, -0.12880338728427887, 1.1302282810211182, -3.1462209224700928, 0.04228036850690842, 0.2784302532672882, 0.3520764708518982, 0.02352481335401535, 0.010322639718651772, 1.0022681951522827, -2.136531114578247, 4.583291053771973, -0.27187639474868774, 0.0, 0.0, 0.0, 0, 0, 0, 0, 0, 0, -2.136531114578247, 4.583291053771973, -0.27187639474868774
54360, -0.12890006601810455, 1.1269984245300293, -3.143336772918701, -0.03156740590929985, 0.21991132199764252, -0.03231126442551613, 0.024733547121286392, 0.010850596241652966, 1.0017788410186768, -2.1401610374450684, 4.593556880950928, -0.2718171775341034, 0.0, 0.0, 0.0, 0, 0, 0, 0, 0, 0, -2.1401610374450684, 4.593556880950928, -0.2718171775341034
54370, -0.12880836427211761, 1.1231026649475098, -3.1407413482666016, 0.01660982333123684, 0.12462140619754791, -0.1540611982345581, 0.025296077132225037, 0.007085586432367563, 1.0017179250717163, -2.1437864303588867, 4.603834629058838, -0.2717556357383728, 0.0, 0.0, 0.0, 0, 0, 0, 0, 0, 0, -2.1437864303588867, 4.603834629058838, -0.2717556357383728
54380, -0.12960736453533173, 1.1200764179229736, -3.1369988918304443, -0.15306727588176727, 0.2126510888338089, 0.04048435389995575, 0.025277744978666306, 0.010458334349095821, 1.002280592918396, -2.147406578063965, 4.6141228675842285, -0.2716920077800751, 0.0, 0.0, 0.0, 0, 0, 0, 0, 0, 0, -2.147406578063965, 4.6141228675842285, -0.2716920077800751
54390, -0.12832827866077423, 1.1186883449554443, -3.1344218254089355, 0.15259604156017303, 0.14943557977676392, -0.02580956183373928, 0.025321317836642265, 0.00839685183018446, 1.0028059482574463, -2.1510210037231445, 4.6244215965271, -0.27162596583366394, 0.0, 0.0, 0.0, 0, 0, 0, 0, 0, 0, -2.1510210037231445, 4.6244215965271, -0.27162596583366394
54400, -0.1268233209848404, 1.117884635925293, -3.1313486099243164, 0.24242587387561798, -0.10011015832424164, 0.0842469334602356, 0.026298072189092636, 0.0073402016423642635, 1.000725507736206, -2.154629945755005, 4.634731292724609, -0.2715570330619812, 0.0, 0.0, 0.0, 0, 0, 0, 0, 0, 0, -2.154629945755005, 4.634731292724609, -0.2715570330619812
54410, -0.1263951063156128, 1.1177786588668823, -3.127345085144043, 0.038094501942396164, -0.20175649225711823, -0.10144554078578949, 0.028004566207528114, 0.008029286749660969, 1.0011743307113647, -2.1582326889038086, 4.645050048828125, -0.2714858055114746, 0.0, 0.0, 0.0, 0, 0, 0, 0, 0, 0, -2.1582326889038086, 4.645050048828125, -0.2714858055114746
54420, -0.1269843876361847, 1.1153442859649658, -3.1243555545806885, -0.020312946289777756, 0.07428626716136932, -0.04041915759444237, 0.02627251297235489, 0.00810555275529623, 1.0025299787521362, -2.1618282794952393, 4.655378341674805, -0.27141299843788147, 0.0, 0.0, 0.0, 0, 0, 0, 0, 0, 0, -2.1618282794952393, 4.655378341674805, -0.27141299843788147
54430, -0.12573358416557312, 1.114187240600586, -3.120887041091919, 0.018057571724057198, 0.29369598627090454, 0.15461918711662292, 0.025095166638493538, 0.009230603463947773, 1.0012050867080688, -2.1654164791107178, 4.66571569442749, -0.27133798599243164, 0.0, 0.0, 0.0, 0, 0, 0, 0, 0, 0, -2.1654164791107178, 4.66571569442749, -0.27133798599243164
54440, -0.12589535117149353, 1.111444354057312, -3.117823362350464, -0.07522200047969818, 0.1708657443523407, -0.06110960617661476, 0.026017645373940468, 0.00805488508194685, 0.999752938747406, -2.1689987182617188, 4.676063060760498, -0.27126094698905945, 0.0, 0.0, 0.0, 0, 0, 0, 0, 0, 0, -2.1689987182617188, 4.676063060760498, -0.27126094698905945
54450, -0.12568563222885132, 1.1077204942703247, -3.1144585609436035, 0.030947046354413033, 0.3122446537017822, -0.013168832287192345, 0.028397493064403534, 0.008704086765646935, 1.0025843381881714, -2.172574520111084, 4.686420440673828, -0.27118295431137085, 0.0, 0.0, 0.0, 0, 0, 0, 0, 0, 0, -2.172574520111084, 4.686420440673828, -0.27118295431137085
54460, -0.12613603472709656, 1.106765866279602, -3.110394239425659, -0.08198795467615128, -0.04120595380663872, 0.078226238489151, 0.027166619896888733, 0.010190673172473907, 1.0031553506851196, -2.176142692565918, 4.6967878341674805, -0.2711034119129181, 0.0, 0.0, 0.0, 0, 0, 0, 0, 0, 0, -2.176142692565918, 4.6967878341674805, -0.2711034119129181
54470, -0.12739698588848114, 1.1039519309997559, -3.1070756912231445, -0.1809701770544052, 0.22596792876720428, -0.09233876317739487, 0.025390472263097763, 0.007456963416188955, 1.001013994216919, -2.1797027587890625, 4.7071661949157715, -0.2710210084915161, 0.0, 0.0, 0.0, 0, 0, 0, 0, 0, 0, -2.1797027587890625, 4.7071661949157715, -0.2710210084915161
54480, -0.1262865960597992, 1.1017447710037231, -3.103358507156372, 0.11193830519914627, 0.08576583862304688, 0.014543429017066956, 0.024528078734874725, 0.007116234861314297, 0.9998274445533752, -2.183256149291992, 4.717554569244385, -0.27093616127967834, 0.0, 0.0, 0.0, 0, 0, 0, 0, 0, 0, -2.183256149291992, 4.717554569244385, -0.27093616127967834
54490, -0.12615720927715302, 1.09891676902771, -3.0988340377807617, -0.023579571396112442, 0.2685156464576721, 0.1713012158870697, 0.02417171187698841, 0.009643316268920898, 1.0014046430587769, -2.1868042945861816, 4.727952003479004, -0.270850270986557, 0.0, 0.0, 0.0, 0, 0, 0, 0, 0, 0, -2.1868042945861816, 4.727952003479004, -0.270850270986557
54500, -0.12566961348056793, 1.0972254276275635, -3.095747232437134, 0.14832302927970886, 0.05003749206662178, 0.034559622406959534, 0.02384653128683567, 0.008537035435438156, 1.0012050867080688, -2.19034743309021, 4.738359451293945, -0.2707635164260864, 0.0, 0.0, 0.0, 0, 0, 0, 0, 0, 0, -2.19034743309021, 4.738359451293945, -0.2707635164260864
54510, -0.12475821375846863, 1.095835566520691, -3.092707633972168, 0.1789276897907257, -0.16263191401958466, 0.0130387581884861, 0.026119166985154152, 0.007120172493159771, 1.0005571842193604, -2.1938858032226562, 4.748777389526367, -0.27067533135414124, 0.0, 0.0, 0.0, 0, 0, 0, 0, 0, 0, -2.1938858032226562, 4.748777389526367, -0.27067533135414124
54520, -0.12499501556158066, 1.0936628580093384, -3.090690851211548, 0.010594702325761318, 0.08593563735485077, -0.08470869809389114, 0.024913668632507324, 0.0076164607889950275, 0.9999197721481323, -2.197418689727783, 4.759204864501953, -0.2705860137939453, 0.0, 0.0, 0.0, 0, 0, 0, 0, 0, 0, -2.197418689727783, 4.759204864501953, -0.2705860137939453
54530, -0.1243734285235405, 1.0905524492263794, -3.087547540664673, -0.012058272026479244, 0.0960259884595871, 0.06403903663158417, 0.023987676948308945, 0.008933600038290024, 1.0011476278305054, -2.2009456157684326, 4.769641399383545, -0.2704959809780121, 0.0, 0.0, 0.0, 0, 0, 0, 0, 0, 0, -2.2009456157684326, 4.769641399383545, -0.2704959809780121
54540, -0.12493433058261871, 1.0890588760375977, -3.0864768028259277, -0.1300441473722458, 0.06637051701545715, -0.2780563235282898, 0.02258257567882538, 0.008726558648049831, 1.0014774799346924, -2.2044670581817627, 4.780087471008301, -0.2704051434993744, 0.0, 0.0, 0.0, 0, 0, 0, 0, 0, 0, -2.2044670581817627, 4.780087471008301, -0.2704051434993744
54550, -0.12431245297193527, 1.0867215394973755, -3.082799196243286, 0.10526613891124725, 0.2607554793357849, 0.08717997372150421, 0.023889536038041115, 0.00976350624114275, 1.0004032850265503, -2.207984209060669, 4.790543556213379, -0.2703130543231964, 0.0, 0.0, 0.0, 0, 0, 0, 0, 0, 0, -2.207984209060669, 4.790543556213379, -0.2703130543231964
54560, -0.12432843446731567, 1.086574673652649, -3.0802061557769775, -0.047236740589141846, -0.23714792728424072, -0.013660934753715992, 0.02389374002814293, 0.007170217111706734, 1.0015451908111572, -2.2114970684051514, 4.8010101318359375, -0.2702197730541229, 0.0, 0.0, 0.0, 0, 0, 0, 0, 0, 0, -2.2114970684051514, 4.8010101318359375, -0.2702197730541229
54570, -0.12382861226797104, 1.0846226215362549, -3.0770134925842285, 0.041685800999403, 0.1299324482679367, 0.14853183925151825, 0.024592062458395958, 0.008122761733829975, 0.9998055696487427, -2.2150049209594727, 4.811487197875977, -0.27012521028518677, 0.0, 0.0, 0.0, 0, 0, 0, 0, 0, 0, -2.2150049209594727, 4.811487197875977, -0.27012521028518677
54580, -0.12352653592824936, 1.0846116542816162, -3.0740554332733154, 0.0005806736298836768, -0.2469574511051178, -0.006923483218997717, 0.02643739804625511, 0.009700994938611984, 0.9997093081474304, -2.2185075283050537, 4.8219733238220215, -0.2700296640396118, 0.0, 0.0, 0.0, 0, 0, 0, 0, 0, 0, -2.2185075283050537, 4.8219733238220215, -0.2700296640396118
54590, -0.12290991097688675, 1.0820226669311523, -3.072690725326538, 0.05674215778708458, 0.0955631285905838, -0.2631652355194092, 0.02442401461303234, 0.008139362558722496, 1.0006600618362427, -2.222003698348999, 4.832469940185547, -0.26993390917778015, 0.0, 0.0, 0.0, 0, 0, 0, 0, 0, 0, -2.222003698348999, 4.832469940185547, -0.26993390917778015
54600, -0.12202513962984085, 1.0796858072280884, -3.0689280033111572, 0.07908570021390915, 0.07411748170852661, 0.09090837836265564, 0.024239514023065567, 0.007971442304551601, 1.0009263753890991, -2.2254934310913086, 4.8429765701293945, -0.26983755826950073, 0.0, 0.0, 0.0, 0, 0, 0, 0, 0, 0, -2.2254934310913086, 4.8429765701293945, -0.26983755826950073
54610, -0.12209121137857437, 1.0785796642303467, -3.0671346187591553, -0.11014745384454727, 0.252876341342926, 0.01209605298936367, 0.023901378735899925, 0.008534446358680725, 1.0000019073486328, -2.228977918624878, 4.853492736816406, -0.26974013447761536, 0.0, 0.0, 0.0, 0, 0, 0, 0, 0, 0, -2.228977918624878, 4.853492736816406, -0.26974013447761536
54620, -0.12088320404291153, 1.0788921117782593, -3.0645735263824463, 0.12836451828479767, -0.043304093182086945, -0.1124752089381218, 0.025182029232382774, 0.009209491312503815, 0.9993177652359009, -2.232457160949707, 4.864018440246582, -0.2696421146392822, 0.0, 0.0, 0.0, 0, 0, 0, 0, 0, 0, -2.232457160949707, 4.864018440246582, -0.2696421146392822
54630, -0.12112335115671158, 1.0768753290176392, -3.0627732276916504, -0.21284517645835876, 0.08018616586923599, -0.2783285081386566, 0.025727907195687294, 0.010049035772681236, 0.9993647933006287, -2.2359306812286377, 4.874554634094238, -0.26954418420791626, 0.0, 0.0, 0.0, 0, 0, 0, 0, 0, 0, -2.2359306812286377, 4.874554634094238, -0.26954418420791626
54640, -0.12121150642633438, 1.0765128135681152, -3.059372663497925, -0.09310375899076462, 0.005664640571922064, 0.1493004858493805, 0.02756965160369873, 0.008199078030884266, 1.0020791292190552, -2.2393977642059326, 4.885101795196533, -0.2694464325904846, 0.0, 0.0, 0.0, 0, 0, 0, 0, 0, 0, -2.2393977642059326, 4.885101795196533, -0.2694464325904846
54650, -0.12161711603403091, 1.073171854019165, -3.05631160736084, -0.22863207757472992, 0.22697952389717102, -0.002295325044542551, 0.02445165626704693, 0.007746695540845394, 1.0011686086654663, -2.2428572177886963, 4.89565896987915, -0.26934757828712463, 0.0, 0.0, 0.0, 0, 0, 0, 0, 0, 0, -2.2428572177886963, 4.89565896987915, -0.26934757828712463
54660, -0.12165877223014832, 1.0703486204147339, -3.052628755569458, 0.0060241008177399635, 0.051481373608112335, 0.19371861219406128, 0.024585740640759468, 0.006435982882976532, 1.0001740455627441, -2.246309757232666, 4.906225204467773, -0.26924699544906616, 0.0, 0.0, 0.0, 0, 0, 0, 0, 0, 0, -2.246309757232666, 4.906225204467773, -0.26924699544906616
54670, -0.12093140184879303, 1.0685590505599976, -3.0492055416107178, 0.052757494151592255, 0.28225603699684143, 0.086776003241539, 0.02348984219133854, 0.0061661247164011, 1.000059723854065, -2.2497565746307373, 4.916800022125244, -0.2691454589366913, 0.0, 0.0, 0.0, 0, 0, 0, 0, 0, 0, -2.2497565746307373, 4.916800022125244, -0.2691454589366913
54680, -0.11973389238119125, 1.0698115825653076, -3.046571969985962, 0.22110530734062195, -0.1249818354845047, -0.14565733075141907, 0.024466274306178093, 0.008291899226605892, 0.9995747804641724, -2.2531981468200684, 4.927382469177246, -0.2690432667732239, 0.0, 0.0, 0.0, 0, 0, 0, 0, 0, 0, -2.2531981468200684, 4.927382469177246, -0.2690432667732239
54690, -0.11897838115692139, 1.0694739818572998, -3.043149471282959, 0.004116416908800602, -0.0778718963265419, 0.006577203515917063, 0.024266665801405907, 0.008940561674535275, 0.9992960095405579, -2.2566347122192383, 4.937973976135254, -0.2689407169818878, 0.0, 0.0, 0.0, 0, 0, 0, 0, 0, 0, -2.2566347122192383, 4.937973976135254, -0.2689407169818878
54700, -0.11865777522325516, 1.0662845373153687, -3.038726329803467, 0.023665742948651314, 0.3127124011516571, 0.1357857882976532, 0.023232178762555122, 0.010606235824525356, 1.0018404722213745, -2.2600655555725098, 4.948575019836426, -0.268838107585907, 0.0, 0.0, 0.0, 0, 0, 0, 0, 0, 0, -2.2600655555725098, 4.948575019836426, -0.268838107585907
54710, -0.11877428740262985, 1.0672780275344849, -3.0358269214630127, -0.006342011969536543, -0.1976555734872818, -0.06871289759874344, 0.023548385128378868, 0.007607603445649147, 1.001268982887268, -2.263491153717041, 4.959187030792236, -0.2687343657016754, 0.0, 0.0, 0.0, 0, 0, 0, 0, 0, 0, -2.263491153717041, 4.959187030792236, -0.2687343657016754
54720, -0.11858649551868439, 1.0667595863342285, -3.034332036972046, 0.06762097030878067, 0.013569342903792858, -0.1662367880344391, 0.02334761805832386, 0.007343256380409002, 1.0008043050765991, -2.2669122219085693, 4.969809532165527, -0.2686287462711334, 0.0, 0.0, 0.0, 0, 0, 0, 0, 0, 0, -2.2669122219085693, 4.969809532165527, -0.2686287462711334
54730, -0.11759905517101288, 1.0648540258407593, -3.0319478511810303, 0.22626636922359467, 0.229265034198761, 0.03371945023536682, 0.026653794571757317, 0.008410854265093803, 0.9999822974205017, -2.2703285217285156, 4.980441093444824, -0.268521785736084, 0.0, 0.0, 0.0, 0, 0, 0, 0, 0, 0, -2.2703285217285156, 4.980441093444824, -0.268521785736084
54740, -0.11729991436004639, 1.064125418663025, -3.0283286571502686, -0.06970266252756119, -0.06275594234466553, 0.20976601541042328, 0.02633531205356121, 0.009312080219388008, 1.001285195350647, -2.2737386226654053, 4.991081714630127, -0.2684139907360077, 0.0, 0.0, 0.0, 0, 0, 0, 0, 0, 0, -2.2737386226654053, 4.991081714630127, -0.2684139907360077
54750, -0.1170693188905716, 1.0619064569473267, -3.025566816329956, 0.08530180156230927, 0.22386597096920013, -0.04018406942486763, 0.024698056280612946, 0.009342510253190994, 0.9999361634254456, -2.2771413326263428, 5.001732349395752, -0.2683050036430359, 0.0, 0.0, 0.0, 0, 0, 0, 0, 0, 0, -2.2771413326263428, 5.001732349395752, -0.2683050036430359
54760, -0.11711975187063217, 1.0595821142196655, -3.0230629444122314, -0.07875988632440567, 0.02604331634938717, -0.07577789574861526, 0.02395782805979252, 0.00954604521393776, 1.0019508600234985, -2.2805373668670654, 5.012393951416016, -0.26819485425949097, 0.0, 0.0, 0.0, 0, 0, 0, 0, 0, 0, -2.2805373668670654, 5.012393951416016, -0.26819485425949097
54770, -0.11814215034246445, 1.0569279193878174, -3.0205883979797363, -0.2217346727848053, 0.0337982177734375, 0.00997144915163517, 0.02586587890982628, 0.00894292164593935, 1.001210331916809, -2.2839276790618896, 5.02306604385376, -0.2680833339691162, 0.0, 0.0, 0.0, 0, 0, 0, 0, 0, 0, -2.2839276790618896, 5.02306604385376, -0.2680833339691162
54780, -0.11746848374605179, 1.0523395538330078, -3.0175349712371826, 0.13072015345096588, 0.42415091395378113, 0.020351430401206017, 0.026021482422947884, 0.007710373494774103, 0.9994070529937744, -2.287311553955078, 5.033748626708984, -0.2679700255393982, 0.0, 0.0, 0.0, 0, 0, 0, 0, 0, 0, -2.287311553955078, 5.033748626708984, -0.2679700255393982
54790, -0.11761869490146637, 1.049273133277893, -3.015061378479004, -0.09916611015796661, 0.21300438046455383, -0.13683629035949707, 0.023843415081501007, 0.007596665062010288, 1.0010566711425781, -2.2906882762908936, 5.044440269470215, -0.26785609126091003, 0.0, 0.0, 0.0, 0, 0, 0, 0, 0, 0, -2.2906882762908936, 5.044440269470215, -0.26785609126091003
54800, -0.11655110120773315, 1.0475120544433594, -3.0107338428497314, 0.028316639363765717, 0.07042202353477478, 0.18875734508037567, 0.02483176998794079, 0.006022269371896982, 1.0035181045532227, -2.2940585613250732, 5.055140972137451, -0.26774144172668457, 0.0, 0.0, 0.0, 0, 0, 0, 0, 0, 0, -2.2940585613250732, 5.055140972137451, -0.26774144172668457
54810, -0.11589697748422623, 1.0439567565917969, -3.0084681510925293, 0.05693435296416283, 0.3045485019683838, 0.05702956020832062, 0.025012347847223282, 0.004769469611346722, 1.0029493570327759, -2.2974228858947754, 5.065849781036377, -0.2676243185997009, 0.0, 0.0, 0.0, 0, 0, 0, 0, 0, 0, -2.2974228858947754, 5.065849781036377, -0.2676243185997009
54820, -0.11539174616336823, 1.0428247451782227, -3.004382371902466, 0.09913035482168198, 0.022122666239738464, 0.1254296749830246, 0.024294981732964516, 0.008573830127716064, 1.0017958879470825, -2.300781011581421, 5.076565742492676, -0.267503947019577, 0.0, 0.0, 0.0, 0, 0, 0, 0, 0, 0, -2.300781011581421, 5.076565742492676, -0.267503947019577
54830, -0.11465059220790863, 1.040910005569458, -3.001465320587158, 0.08775895833969116, 0.22141097486019135, 0.006756009999662638, 0.02493635192513466, 0.010172761045396328, 0.9991403222084045, -2.304133176803589, 5.087289810180664, -0.26738113164901733, 0.0, 0.0, 0.0, 0, 0, 0, 0, 0, 0, -2.304133176803589, 5.087289810180664, -0.26738113164901733
54840, -0.11360287666320801, 1.0415997505187988, -2.9993762969970703, 0.15604737401008606, -0.4993644952774048, -0.16347742080688477, 0.023707430809736252, 0.005855783820152283, 1.0001717805862427, -2.3074791431427, 5.098023891448975, -0.2672576308250427, 0.0, 0.0, 0.0, 0, 0, 0, 0, 0, 0, -2.3074791431427, 5.098023891448975, -0.2672576308250427
54850, -0.11358126252889633, 1.0396664142608643, -2.993880271911621, 0.05479517951607704, 0.07725687325000763, 0.33936649560928345, 0.023947561159729958, 0.008397831581532955, 0.9994361996650696, -2.310818910598755, 5.108767509460449, -0.2671339809894562, 0.0, 0.0, 0.0, 0, 0, 0, 0, 0, 0, -2.310818910598755, 5.108767509460449, -0.2671339809894562
54860, -0.11414683610200882, 1.0390801429748535, -2.989776134490967, -0.03337501361966133, -0.16182763874530792, 0.08982427418231964, 0.02507355436682701, 0.009415002539753914, 1.0010675191879272, -2.3141531944274902, 5.1195197105407715, -0.2670099437236786, 0.0, 0.0, 0.0, 0, 0, 0, 0, 0, 0, -2.3141531944274902, 5.1195197105407715, -0.2670099437236786
54870, -0.11342968046665192, 1.0372554063796997, -2.9854214191436768, 0.18923155963420868, 0.09461916238069534, 0.30842405557632446, 0.02410978637635708, 0.009151795879006386, 0.999521791934967, -2.317481279373169, 5.130281925201416, -0.2668851912021637, 0.0, 0.0, 0.0, 0, 0, 0, 0, 0, 0, -2.317481279373169, 5.130281925201416, -0.2668851912021637
54880, -0.11405251920223236, 1.0354986190795898, -2.983219861984253, -0.0873333066701889, 0.09488697350025177, -0.0026729456149041653, 0.02485811337828636, 0.007290321867913008, 1.0009602308273315, -2.320802927017212, 5.141054153442383, -0.2667596638202667, 0.0, 0.0, 0.0, 0, 0, 0, 0, 0, 0, -2.320802927017212, 5.141054153442383, -0.2667596638202667
54890, -0.11427497863769531, 1.0331650972366333, -2.980085849761963, 0.0028027391526848078, 0.2193073332309723, 0.12104050815105438, 0.023461412638425827, 0.00921669602394104, 0.9999685287475586, -2.324118137359619, 5.151835918426514, -0.26663336157798767, 0.0, 0.0, 0.0, 0, 0, 0, 0, 0, 0, -2.324118137359619, 5.151835918426514, -0.26663336157798767
54900, -0.11403001844882965, 1.0311896800994873, -2.9783968925476074, 0.05052730813622475, 0.07792068272829056, -0.12379545718431473, 0.0229598768055439, 0.00938508938997984, 1.000343918800354, -2.327427387237549, 5.162627220153809, -0.2665064036846161, 0.0, 0.0, 0.0, 0, 0, 0, 0, 0, 0, -2.327427387237549, 5.162627220153809, -0.2665064036846161
54910, -0.1137864887714386, 1.0302375555038452, -2.9750072956085205, -0.03649793192744255, -0.27226123213768005, 0.002320948289707303, 0.0243168156594038, 0.00869107898324728, 1.0018377304077148, -2.3307313919067383, 5.173429012298584, -0.26637905836105347, 0.0, 0.0, 0.0, 0, 0, 0, 0, 0, 0, -2.3307313919067383, 5.173429012298584, -0.26637905836105347
54920, -0.11332393437623978, 1.0290448665618896, -2.9722115993499756, 0.05657419189810753, 0.09786368161439896, 0.03302584961056709, 0.02519889734685421, 0.008214741013944149, 0.9997400641441345, -2.3340299129486084, 5.18424129486084, -0.26625046133995056, 0.0, 0.0, 0.0, 0, 0, 0, 0, 0, 0, -2.3340299129486084, 5.18424129486084, -0.26625046133995056
54930, -0.11324600875377655, 1.0259878635406494, -2.9703993797302246, -0.013970953412353992, 0.3355018198490143, -0.17963680624961853, 0.026014525443315506, 0.00877944752573967, 1.0008796453475952, -2.3373219966888428, 5.19506311416626, -0.2661207318305969, 0.0, 0.0, 0.0, 0, 0, 0, 0, 0, 0, -2.3373219966888428, 5.19506311416626, -0.2661207318305969
54940, -0.11286471039056778, 1.0251790285110474, -2.9682250022888184, 0.14990681409835815, -0.1019575446844101, 0.010635774582624435, 0.024072522297501564, 0.008632801473140717, 1.0011061429977417, -2.340606689453125, 5.205894470214844, -0.26599013805389404, 0.0, 0.0, 0.0, 0, 0, 0, 0, 0, 0, -2.340606689453125, 5.205894470214844, -0.26599013805389404
54950, -0.11378307640552521, 1.0246220827102661, -2.9667155742645264, -0.14048178493976593, -0.0011414543259888887, -0.12232579290866852, 0.024038678035140038, 0.007043014746159315, 1.0021696090698242, -2.3438844680786133, 5.21673583984375, -0.26585787534713745, 0.0, 0.0, 0.0, 0, 0, 0, 0, 0, 0, -2.3438844680786133, 5.21673583984375, -0.26585787534713745
54960, -0.11481612920761108, 1.02393639087677, -2.9650068283081055, -0.13298147916793823, 0.0702211931347847, 0.09597568958997726, 0.024662138894200325, 0.007192759774625301, 1.0010677576065063, -2.347156286239624, 5.227586269378662, -0.26572340726852417, 0.0, 0.0, 0.0, 0, 0, 0, 0, 0, 0, -2.347156286239624, 5.227586269378662, -0.26572340726852417
54970, -0.11544102430343628, 1.0219268798828125, -2.9630227088928223, -0.017484940588474274, 0.14287853240966797, -0.01742403954267502, 0.02638431452214718, 0.008905601687729359, 1.0003739595413208, -2.350421905517578, 5.23844575881958, -0.2655869126319885, 0.0, 0.0, 0.0, 0, 0, 0, 0, 0, 0, -2.350421905517578, 5.23844575881958, -0.2655869126319885
54980, -0.11619573086500168, 1.0238323211669922, -2.9610016345977783, -0.028973570093512535, -0.5385729670524597, -0.13401837646961212, 0.024832749739289284, 0.007879183627665043, 1.0003410577774048, -2.353679895401001, 5.249314785003662, -0.2654491364955902, 0.0, 0.0, 0.0, 0, 0, 0, 0, 0, 0, -2.353679895401001, 5.249314785003662, -0.2654491364955902
54990, -0.11683978140354156, 1.0230227708816528, -2.958482503890991, -0.086450956761837, -0.12231431901454926, 0.05365484207868576, 0.024241143837571144, 0.009024976752698421, 0.9996527433395386, -2.3569304943084717, 5.260193347930908, -0.26531073451042175, 0.0, 0.0, 0.0, 0, 0, 0, 0, 0, 0, -2.3569304943084717, 5.260193347930908, -0.26531073451042175
55000, -0.11577798426151276, 1.0227489471435547, -2.9559102058410645, 0.10159432142972946, 0.07102293521165848, 0.07036743313074112, 0.026338785886764526, 0.008068418130278587, 0.9994221329689026, -2.3601744174957275, 5.271081447601318, -0.26517197489738464, 0.0, 0.0, 0.0, 0, 0, 0, 0, 0, 0, -2.3601744174957275, 5.271081447601318, -0.26517197489738464
55010, -0.11539780348539352, 1.021855354309082, -2.9528589248657227, 0.00842666532844305, -0.08324794471263885, -0.026835361495614052, 0.024730291217565536, 0.007696880027651787, 1.0008407831192017, -2.3634111881256104, 5.281979084014893, -0.2650330066680908, 0.0, 0.0, 0.0, 0, 0, 0, 0, 0, 0, -2.3634111881256104, 5.281979084014893, -0.2650330066680908
55020, -0.11572153866291046, 1.0230337381362915, -2.949341297149658, -0.08135806024074554, -0.23901471495628357, -0.0075385854579508305, 0.023686541244387627, 0.007808626629412174, 0.9998095035552979, -2.366640567779541, 5.292885780334473, -0.264893501996994, 0.0, 0.0, 0.0, 0, 0, 0, 0, 0, 0, -2.366640567779541, 5.292885780334473, -0.264893501996994
55030, -0.11563796550035477, 1.0203626155853271, -2.9470760822296143, 0.09872056543827057, 0.1448218673467636, -0.10476705431938171, 0.02550405077636242, 0.009683812037110329, 1.0011008977890015, -2.369863510131836, 5.303801536560059, -0.26475322246551514, 0.0, 0.0, 0.0, 0, 0, 0, 0, 0, 0, -2.369863510131836, 5.303801536560059, -0.26475322246551514
55040, -0.11567099392414093, 1.0192762613296509, -2.9442362785339355, -0.007461001630872488, -0.10307348519563675, -0.08557382225990295, 0.025429528206586838, 0.00876571424305439, 0.999289333820343, -2.373079776763916, 5.314727306365967, -0.2646121084690094, 0.0, 0.0, 0.0, 0, 0, 0, 0, 0, 0, -2.373079776763916, 5.314727306365967, -0.2646121084690094
55050, -0.11589258909225464, 1.0167022943496704, -2.941603183746338, -0.021805237978696823, 0.33826202154159546, -0.16116860508918762, 0.025753505527973175, 0.009229698218405247, 1.001231074333191, -2.376288652420044, 5.3256635665893555, -0.26447054743766785, 0.0, 0.0, 0.0, 0, 0, 0, 0, 0, 0, -2.376288652420044, 5.3256635665893555, -0.26447054743766785
55060, -0.11744111031293869, 1.0147727727890015, -2.9371449947357178, -0.12212124466896057, -0.038585081696510315, 0.13461834192276, 0.02528894506394863, 0.009403737261891365, 1.0027698278427124, -2.3794898986816406, 5.336610317230225, -0.2643283009529114, 0.0, 0.0, 0.0, 0, 0, 0, 0, 0, 0, -2.3794898986816406, 5.336610317230225, -0.2643283009529114
55070, -0.11688345670700073, 1.0134985446929932, -2.9340128898620605, 0.10004334151744843, 0.08066607266664505, 0.16004686057567596, 0.024794509634375572, 0.007751218508929014, 1.0012035369873047, -2.382683753967285, 5.347567558288574, -0.26418378949165344, 0.0, 0.0, 0.0, 0, 0, 0, 0, 0, 0, -2.382683753967285, 5.347567558288574, -0.26418378949165344
55080, -0.11697181314229965, 1.0129122734069824, -2.9320507049560547, -0.06280816346406937, -0.07738504558801651, -0.2578747272491455, 0.026212159544229507, 0.008895764127373695, 1.0013728141784668, -2.3858704566955566, 5.358534812927246, -0.2640369236469269, 0.0, 0.0, 0.0, 0, 0, 0, 0, 0, 0, -2.3858704566955566, 5.358534812927246, -0.2640369236469269
55090, -0.11595727503299713, 1.0107451677322388, -2.929858684539795, 0.26880067586898804, 0.25997769832611084, -0.03803855925798416, 0.027006782591342926, 0.007370388135313988, 0.9996511340141296, -2.389049530029297, 5.369511604309082, -0.2638886272907257, 0.0, 0.0, 0.0, 0, 0, 0, 0, 0, 0, -2.389049530029297, 5.369511604309082, -0.2638886272907257
55100, -0.11606301367282867, 1.0109292268753052, -2.929392099380493, 0.008859329856932163, -0.26935040950775146, -0.3203265070915222, 0.02672019600868225, 0.008891267701983452, 1.001145362854004, -2.3922197818756104, 5.380497932434082, -0.26373958587646484, 0.0, 0.0, 0.0, 0, 0, 0, 0, 0, 0, -2.3922197818756104, 5.380497932434082, -0.26373958587646484
55110, -0.11637233942747116, 1.0113285779953003, -2.925872564315796, 0.13657444715499878, -0.10608116537332535, 0.10807259380817413, 0.026730000972747803, 0.007893430069088936, 1.0003703832626343, -2.395380973815918, 5.391493797302246, -0.2635897994041443, 0.0, 0.0, 0.0, 0, 0, 0, 0, 0, 0, -2.395380973815918, 5.391493797302246, -0.2635897994041443
55120, -0.11580989509820938, 1.0099730491638184, -2.9228997230529785, 0.019339054822921753, 0.114621601998806, 0.038243625313043594, 0.024598345160484314, 0.00844571739435196, 0.9992029070854187, -2.398533344268799, 5.402499198913574, -0.26343902945518494, 0.0, 0.0, 0.0, 0, 0, 0, 0, 0, 0, -2.398533344268799, 5.402499198913574, -0.26343902945518494
55130, -0.1176881417632103, 1.0069364309310913, -2.918825149536133, -0.3859489858150482, 0.18123629689216614, 0.17214392125606537, 0.024230429902672768, 0.010127178393304348, 0.9984245896339417, -2.4016780853271484, 5.413514137268066, -0.26328808069229126, 0.0, 0.0, 0.0, 0, 0, 0, 0, 0, 0, -2.4016780853271484, 5.413514137268066, -0.26328808069229126
55140, -0.11818546801805496, 1.0056767463684082, -2.9170026779174805, 0.009481443092226982, 0.1525072604417801, -0.07547929137945175, 0.02494996413588524, 0.008266091346740723, 1.001047134399414, -2.404816150665283, 5.424539566040039, -0.2631378173828125, 0.0, 0.0, 0.0, 0, 0, 0, 0, 0, 0, -2.404816150665283, 5.424539566040039, -0.2631378173828125
55150, -0.11829300224781036, 1.0028835535049438, -2.913633346557617, 0.105179563164711, 0.2974961996078491, -0.03832633048295975, 0.023806266486644745, 0.008175290189683437, 1.001874566078186, -2.407947301864624, 5.435575485229492, -0.2629874050617218, 0.0, 0.0, 0.0, 0, 0, 0, 0, 0, 0, -2.407947301864624, 5.435575485229492, -0.2629874050617218
55160, -0.11820108443498611, 1.0023036003112793, -2.9111130237579346, 0.010442408733069897, -0.025169778615236282, -0.216715008020401, 0.024038678035140038, 0.008731337264180183, 1.0000098943710327, -2.41107177734375, 5.446620941162109, -0.26283544301986694, 0.0, 0.0, 0.0, 0, 0, 0, 0, 0, 0, -2.41107177734375, 5.446620941162109, -0.26283544301986694
55170, -0.11825442314147949, 0.9986770153045654, -2.906210422515869, 0.10701055824756622, 0.40958836674690247, 0.27621251344680786, 0.024456027895212173, 0.00783002469688654, 0.9992149472236633, -2.4141902923583984, 5.457676410675049, -0.26268234848976135, 0.0, 0.0, 0.0, 0, 0, 0, 0, 0, 0, -2.4141902923583984, 5.457676410675049, -0.26268234848976135
55180, -0.11796411126852036, 0.996784508228302, -2.9031951427459717, -0.028037305921316147, 0.057663679122924805, 0.04637868329882622, 0.025078659877181053, 0.007807928137481213, 1.0000064373016357, -2.417302370071411, 5.468741416931152, -0.2625291645526886, 0.0, 0.0, 0.0, 0, 0, 0, 0, 0, 0, -2.417302370071411, 5.468741416931152, -0.2625291645526886
55190, -0.1181696429848671, 0.9945626854896545, -2.8998665809631348, 0.00985965970903635, 0.08319911360740662, 0.18236708641052246, 0.02704133838415146, 0.011299379169940948, 0.9996150135993958, -2.420407295227051, 5.479815483093262, -0.26237601041793823, 0.0, 0.0, 0.0, 0, 0, 0, 0, 0, 0, -2.420407295227051, 5.479815483093262, -0.26237601041793823
55200, -0.11852049082517624, 0.9933939576148987, -2.8970627784729004, -0.012951287440955639, 0.11637628823518753, 0.07385718077421188, 0.02598152868449688, 0.012647123076021671, 1.0003055334091187, -2.423503875732422, 5.49090051651001, -0.26222267746925354, 0.0, 0.0, 0.0, 0, 0, 0, 0, 0, 0, -2.423503875732422, 5.49090051651001, -0.26222267746925354
55210, -0.11792609095573425, 0.9931047558784485, -2.893646001815796, -0.041105858981609344, 0.04839721694588661, 0.027505284175276756, 0.02537250705063343, 0.008898490108549595, 0.9996563792228699, -2.426591634750366, 5.501997947692871, -0.26206910610198975, 0.0, 0.0, 0.0, 0, 0, 0, 0, 0, 0, -2.426591634750366, 5.501997947692871, -0.26206910610198975
55220, -0.11727092415094376, 0.9920648336410522, -2.890117883682251, 0.06950678676366806, 0.15553627908229828, 0.1188742145895958, 0.024817749857902527, 0.007210207637399435, 1.0000587701797485, -2.429671287536621, 5.5131072998046875, -0.26191526651382446, 0.0, 0.0, 0.0, 0, 0, 0, 0, 0, 0, -2.429671287536621, 5.5131072998046875, -0.26191526651382446
55230, -0.11722219735383987, 0.990797758102417, -2.888436794281006, 0.09893295913934708, 0.10708554834127426, -0.0965951606631279, 0.0246842410415411, 0.0073626223020255566, 1.0001105070114136, -2.432743549346924, 5.524226188659668, -0.2617611587047577, 0.0, 0.0, 0.0, 0, 0, 0, 0, 0, 0, -2.432743549346924, 5.524226188659668, -0.2617611587047577
55240, -0.11793150752782822, 0.9887006878852844, -2.8846983909606934, -0.027022497728466988, 0.022048700600862503, 0.03747670724987984, 0.025148192420601845, 0.006946909707039595, 1.0000966787338257, -2.4358086585998535, 5.535354137420654, -0.26160678267478943, 0.0, 0.0, 0.0, 0, 0, 0, 0, 0, 0, -2.4358086585998535, 5.535354137420654, -0.26160678267478943
55250, -0.11820650100708008, 0.9868455529212952, -2.882779359817505, 0.03767793998122215, 0.12935592234134674, -0.08624862134456635, 0.02559681423008442, 0.00750450324267149, 1.0018914937973022, -2.43886661529541, 5.546490669250488, -0.26145198941230774, 0.0, 0.0, 0.0, 0, 0, 0, 0, 0, 0, -2.43886661529541, 5.546490669250488, -0.26145198941230774
55260, -0.11857233196496964, 0.9862643480300903, -2.8807380199432373, -0.07196236401796341, -0.08865080028772354, 0.0002978621341753751, 0.024484463036060333, 0.006481894291937351, 1.000805377960205, -2.4419169425964355, 5.557635307312012, -0.2612959146499634, 0.0, 0.0, 0.0, 0, 0, 0, 0, 0, 0, -2.4419169425964355, 5.557635307312012, -0.2612959146499634
55270, -0.11802666634321213, 0.9851536750793457, -2.877058982849121, 0.07051096111536026, 0.011968563310801983, 0.17312732338905334, 0.024790899828076363, 0.005964978598058224, 0.9991995692253113, -2.444959878921509, 5.568788528442383, -0.2611384093761444, 0.0, 0.0, 0.0, 0, 0, 0, 0, 0, 0, -2.444959878921509, 5.568788528442383, -0.2611384093761444
55280, -0.11676594614982605, 0.9833489060401917, -2.8739960193634033, 0.11396420001983643, 0.16884344816207886, 0.07850946485996246, 0.02507897838950157, 0.0075261699967086315, 0.9991651177406311, -2.447995662689209, 5.579949378967285, -0.2609806954860687, 0.0, 0.0, 0.0, 0, 0, 0, 0, 0, 0, -2.447995662689209, 5.579949378967285, -0.2609806954860687
55290, -0.11622389405965805, 0.9826983213424683, -2.8709914684295654, 0.0755486935377121, 0.1125599592924118, 0.07204675674438477, 0.024216605350375175, 0.00941662397235632, 1.000330924987793, -2.451024055480957, 5.591118335723877, -0.260823518037796, 0.0, 0.0, 0.0, 0, 0, 0, 0, 0, 0, -2.451024055480957, 5.591118335723877, -0.260823518037796
55300, -0.11677087098360062, 0.9829130172729492, -2.868722438812256, -0.057324375957250595, -0.21130086481571198, 0.022226955741643906, 0.024917619302868843, 0.007089779246598482, 1.0007374286651611, -2.454044818878174, 5.602296829223633, -0.2606661915779114, 0.0, 0.0, 0.0, 0, 0, 0, 0, 0, 0, -2.454044818878174, 5.602296829223633, -0.2606661915779114
55310, -0.1166829988360405, 0.9793455600738525, -2.867610454559326, 0.08179940283298492, 0.3057886064052582, -0.21230512857437134, 0.024587232619524002, 0.008888855576515198, 1.0003505945205688, -2.4570584297180176, 5.613484859466553, -0.26050785183906555, 0.0, 0.0, 0.0, 0, 0, 0, 0, 0, 0, -2.4570584297180176, 5.613484859466553, -0.26050785183906555
55320, -0.11719511449337006, 0.9772723913192749, -2.8645267486572266, -0.0004289786738809198, 0.18810170888900757, 0.055112361907958984, 0.024474291130900383, 0.007268347777426243, 0.9987086057662964, -2.460064649581909, 5.6246819496154785, -0.2603485584259033, 0.0, 0.0, 0.0, 0, 0, 0, 0, 0, 0, -2.460064649581909, 5.6246819496154785, -0.2603485584259033
55330, -0.11603893339633942, 0.9751691222190857, -2.860995292663574, 0.09823857247829437, 0.05586153641343117, 0.14553049206733704, 0.0246585663408041, 0.0065757595002651215, 1.0020546913146973, -2.4630634784698486, 5.635888576507568, -0.26018911600112915, 0.0, 0.0, 0.0, 0, 0, 0, 0, 0, 0, -2.4630634784698486, 5.635888576507568, -0.26018911600112915
55340, -0.11630809307098389, 0.9729246497154236, -2.8583197593688965, 0.01005429495126009, 0.21122205257415771, 0.0015195877058431506, 0.024372538551688194, 0.010305502451956272, 1.0006961822509766, -2.466055154800415, 5.647103786468506, -0.2600291073322296, 0.0, 0.0, 0.0, 0, 0, 0, 0, 0, 0, -2.466055154800415, 5.647103786468506, -0.2600291073322296
55350, -0.11500630527734756, 0.9725358486175537, -2.854297161102295, 0.20101571083068848, -0.2639921009540558, 0.04713277891278267, 0.02395235002040863, 0.010617941617965698, 1.001660704612732, -2.4690396785736084, 5.658328533172607, -0.25986775755882263, 0.0, 0.0, 0.0, 0, 0, 0, 0, 0, 0, -2.4690396785736084, 5.658328533172607, -0.25986775755882263
55360, -0.11469091475009918, 0.9714481234550476, -2.8514914512634277, 0.08018358796834946, -0.06403346359729767, 0.08217434585094452, 0.026108048856258392, 0.010034614242613316, 1.0040385723114014, -2.4720168113708496, 5.669564723968506, -0.25970494747161865, 0.0, 0.0, 0.0, 0, 0, 0, 0, 0, 0, -2.4720168113708496, 5.669564723968506, -0.25970494747161865
55370, -0.11442015320062637, 0.9710807204246521, -2.847254514694214, 0.08523806929588318, -0.1553056538105011, 0.22455893456935883, 0.025052841752767563, 0.008024143055081367, 1.0016041994094849, -2.4749860763549805, 5.680812358856201, -0.25953927636146545, 0.0, 0.0, 0.0, 0, 0, 0, 0, 0, 0, -2.4749860763549805, 5.680812358856201, -0.25953927636146545
55380, -0.11485148221254349, 0.9696574807167053, -2.8424196243286133, -0.10719574242830276, -0.024246634915471077, 0.24329181015491486, 0.02423739992082119, 0.0056358990259468555, 1.000643014907837, -2.477947235107422, 5.692070484161377, -0.2593705356121063, 0.0, 0.0, 0.0, 0, 0, 0, 0, 0, 0, -2.477947235107422, 5.692070484161377, -0.2593705356121063
55390, -0.11545228213071823, 0.9695450663566589, -2.8401834964752197, 0.007962802425026894, -0.2388337105512619, -0.0029454936739057302, 0.024640409275889397, 0.007029963191598654, 0.9999685883522034, -2.480900764465332, 5.703336715698242, -0.25920018553733826, 0.0, 0.0, 0.0, 0, 0, 0, 0, 0, 0, -2.480900764465332, 5.703336715698242, -0.25920018553733826
55400, -0.11566495150327682, 0.9673463106155396, -2.8381285667419434, -0.0955309122800827, 0.1475849449634552, -0.0712241530418396, 0.02430383861064911, 0.008226458914577961, 0.999544084072113, -2.483847141265869, 5.714610576629639, -0.2590291500091553, 0.0, 0.0, 0.0, 0, 0, 0, 0, 0, 0, -2.483847141265869, 5.714610576629639, -0.2590291500091553
55410, -0.1152649074792862, 0.9653209447860718, -2.8369734287261963, -0.012066910043358803, 0.09952843934297562, -0.20366771519184113, 0.024956785142421722, 0.009262202307581902, 1.0013914108276367, -2.486786127090454, 5.725893020629883, -0.25885793566703796, 0.0, 0.0, 0.0, 0, 0, 0, 0, 0, 0, -2.486786127090454, 5.725893020629883, -0.25885793566703796
55420, -0.1142607182264328, 0.9648626446723938, -2.833907127380371, 0.17353792488574982, -0.011362389661371708, 0.05696609988808632, 0.02509155310690403, 0.009176161140203476, 1.001684308052063, -2.489717721939087, 5.737185478210449, -0.25868597626686096, 0.0, 0.0, 0.0, 0, 0, 0, 0, 0, 0, -2.489717721939087, 5.737185478210449, -0.25868597626686096
55430, -0.11475441604852676, 0.9626598358154297, -2.8311493396759033, -0.09596326947212219, 0.19155378639698029, -0.04356126859784126, 0.024592621251940727, 0.008694916032254696, 1.001224160194397, -2.4926414489746094, 5.748488426208496, -0.25851234793663025, 0.0, 0.0, 0.0, 0, 0, 0, 0, 0, 0, -2.4926414489746094, 5.748488426208496, -0.25851234793663025
55440, -0.1138371005654335, 0.9630919694900513, -2.828369617462158, 0.14967191219329834, -0.11864969879388809, 0.04317767918109894, 0.023636413738131523, 0.00916121993213892, 1.0026137828826904, -2.4955573081970215, 5.759801387786865, -0.25833699107170105, 0.0, 0.0, 0.0, 0, 0, 0, 0, 0, 0, -2.4955573081970215, 5.759801387786865, -0.25833699107170105
55450, -0.11383935809135437, 0.960696280002594, -2.8262205123901367, -0.024098029360175133, 0.34838366508483887, -0.11130077391862869, 0.025456100702285767, 0.00926397368311882, 1.001352071762085, -2.4984660148620605, 5.771124362945557, -0.2581593990325928, 0.0, 0.0, 0.0, 0, 0, 0, 0, 0, 0, -2.4984660148620605, 5.771124362945557, -0.2581593990325928
55460, -0.11402701586484909, 0.9575095176696777, -2.821768283843994, -0.09392291307449341, 0.16837987303733826, 0.09690283983945847, 0.025441842153668404, 0.00861321110278368, 0.9996455311775208, -2.5013670921325684, 5.7824578285217285, -0.2579796314239502, 0.0, 0.0, 0.0, 0, 0, 0, 0, 0, 0, -2.5013670921325684, 5.7824578285217285, -0.2579796314239502
55470, -0.11333456635475159, 0.9549620747566223, -2.819622278213501, 0.03388241305947304, 0.12973080575466156, 0.10785175114870071, 0.025319749489426613, 0.00824603158980608, 1.002219319343567, -2.5042598247528076, 5.793801784515381, -0.2577989101409912, 0.0, 0.0, 0.0, 0, 0, 0, 0, 0, 0, -2.5042598247528076, 5.793801784515381, -0.2577989101409912
55480, -0.11192706227302551, 0.9544655084609985, -2.8157947063446045, 0.16072824597358704, 0.022369874641299248, 0.21694283187389374, 0.026256108656525612, 0.008684959262609482, 1.0005725622177124, -2.507143974304199, 5.805155277252197, -0.2576169967651367, 0.0, 0.0, 0.0, 0, 0, 0, 0, 0, 0, -2.507143974304199, 5.805155277252197, -0.2576169967651367
55490, -0.11101119220256805, 0.9545685052871704, -2.811807870864868, 0.06964829564094543, -0.03979022800922394, 0.17931677401065826, 0.02571507729589939, 0.008066762238740921, 1.0010621547698975, -2.510019063949585, 5.816518783569336, -0.2574336528778076, 0.0, 0.0, 0.0, 0, 0, 0, 0, 0, 0, -2.510019063949585, 5.816518783569336, -0.2574336528778076
55500, -0.11149198561906815, 0.9516088962554932, -2.809614658355713, -0.09049153327941895, 0.19005146622657776, 0.009034309536218643, 0.023323621600866318, 0.009821640327572823, 1.0032658576965332, -2.512885332107544, 5.827891826629639, -0.25724899768829346, 0.0, 0.0, 0.0, 0, 0, 0, 0, 0, 0, -2.512885332107544, 5.827891826629639, -0.25724899768829346
55510, -0.11078839004039764, 0.9515680074691772, -2.8073737621307373, 0.15860147774219513, 0.02612258493900299, -0.13863545656204224, 0.023443281650543213, 0.008703106082975864, 1.0005764961242676, -2.5157439708709717, 5.839274883270264, -0.25706198811531067, 0.0, 0.0, 0.0, 0, 0, 0, 0, 0, 0, -2.5157439708709717, 5.839274883270264, -0.25706198811531067
55520, -0.10952254384756088, 0.951975405216217, -2.8061816692352295, 0.10803938657045364, -0.2716177701950073, -0.2323908805847168, 0.025183726102113724, 0.007282679434865713, 1.0007007122039795, -2.5185959339141846, 5.850668430328369, -0.2568727731704712, 0.0, 0.0, 0.0, 0, 0, 0, 0, 0, 0, -2.5185959339141846, 5.850668430328369, -0.2568727731704712
55530, -0.10935407876968384, 0.9529358744621277, -2.803317070007324, -0.1545916199684143, -0.3102318048477173, -0.10699212551116943, 0.02427970990538597, 0.006397254299372435, 1.001285433769226, -2.5214405059814453, 5.8620710372924805, -0.25668221712112427, 0.0, 0.0, 0.0, 0, 0, 0, 0, 0, 0, -2.5214405059814453, 5.8620710372924805, -0.25668221712112427
55540, -0.10859362781047821, 0.9530261754989624, -2.801135778427124, 0.1252831667661667, -0.06597938388586044, -0.24902942776679993, 0.024985037744045258, 0.00855293683707714, 0.9999439716339111, -2.5242772102355957, 5.873481750488281, -0.2564903795719147, 0.0, 0.0, 0.0, 0, 0, 0, 0, 0, 0, -2.5242772102355957, 5.873481750488281, -0.2564903795719147
55550, -0.10794326663017273, 0.9534468650817871, -2.7972571849823, 0.03041945956647396, -0.13496868312358856, 0.027556516230106354, 0.02572925016283989, 0.006893888581544161, 1.001810073852539, -2.5271058082580566, 5.88490104675293, -0.2562977373600006, 0.0, 0.0, 0.0, 0, 0, 0, 0, 0, 0, -2.5271058082580566, 5.88490104675293, -0.2562977373600006
55560, -0.10758272558450699, 0.9516608715057373, -2.7950284481048584, 0.00888657197356224, 0.08513476699590683, -0.06735804677009583, 0.02627902291715145, 0.008256589062511921, 1.002284288406372, -2.529926061630249, 5.896328926086426, -0.25610384345054626, 0.0, 0.0, 0.0, 0, 0, 0, 0, 0, 0, -2.529926061630249, 5.896328926086426, -0.25610384345054626
55570, -0.10724489390850067, 0.9500604867935181, -2.7927069664001465, 0.0531734824180603, 0.15142512321472168, 0.12681430578231812, 0.02534596063196659, 0.010760548524558544, 1.0033984184265137, -2.5327372550964355, 5.907765865325928, -0.25590747594833374, 0.0, 0.0, 0.0, 0, 0, 0, 0, 0, 0, -2.5327372550964355, 5.907765865325928, -0.25590747594833374
55580, -0.10737893730401993, 0.9490849375724792, -2.790562868118286, -0.04664502665400505, 0.1993369460105896, -0.1900523155927658, 0.024196941405534744, 0.007932412438094616, 1.0021827220916748, -2.5355396270751953, 5.91921329498291, -0.25570788979530334, 0.0, 0.0, 0.0, 0, 0, 0, 0, 0, 0, -2.5355396270751953, 5.91921329498291, -0.25570788979530334
55590, -0.10737614333629608, 0.9480938911437988, -2.7873454093933105, 0.019385142251849174, -0.12018929421901703, 0.0019353399984538555, 0.026045914739370346, 0.00745847262442112, 1.001129150390625, -2.5383338928222656, 5.930670738220215, -0.2555052638053894, 0.0, 0.0, 0.0, 0, 0, 0, 0, 0, 0, -2.5383338928222656, 5.930670738220215, -0.2555052638053894
55600, -0.10727392137050629, 0.9471026659011841, -2.782463788986206, -0.000764121359679848, -0.06610295921564102, 0.21949604153633118, 0.026936855167150497, 0.009717426262795925, 1.0011886358261108, -2.5411198139190674, 5.942137241363525, -0.25530049204826355, 0.0, 0.0, 0.0, 0, 0, 0, 0, 0, 0, -2.5411198139190674, 5.942137241363525, -0.25530049204826355
55610, -0.10746318101882935, 0.9463355541229248, -2.778931140899658, 0.011779394932091236, 0.014512494206428528, 0.23124289512634277, 0.024323195219039917, 0.010852362960577011, 1.0010913610458374, -2.543896198272705, 5.95361328125, -0.25509411096572876, 0.0, 0.0, 0.0, 0, 0, 0, 0, 0, 0, -2.543896198272705, 5.95361328125, -0.25509411096572876
55620, -0.10701800882816315, 0.9446399807929993, -2.7758374214172363, 0.042532388120889664, 0.3700970411300659, 0.1885673552751541, 0.025061070919036865, 0.012290126644074917, 1.0007508993148804, -2.546663761138916, 5.9651007652282715, -0.2548863887786865, 0.0, 0.0, 0.0, 0, 0, 0, 0, 0, 0, -2.546663761138916, 5.9651007652282715, -0.2548863887786865
55630, -0.10629443824291229, 0.9446252584457397, -2.772732973098755, 0.151643306016922, -0.21360039710998535, 0.0372806116938591, 0.027717668563127518, 0.00971949566155672, 0.9991288781166077, -2.5494229793548584, 5.976600646972656, -0.25467774271965027, 0.0, 0.0, 0.0, 0, 0, 0, 0, 0, 0, -2.5494229793548584, 5.976600646972656, -0.25467774271965027
55640, -0.10623541474342346, 0.9410555362701416, -2.7697649002075195, 0.003478575963526964, 0.3144059181213379, -0.057655420154333115, 0.025510229170322418, 0.007112632971256971, 0.9993990063667297, -2.5521724224090576, 5.988112449645996, -0.2544689178466797, 0.0, 0.0, 0.0, 0, 0, 0, 0, 0, 0, -2.5521724224090576, 5.988112449645996, -0.2544689178466797
55650, -0.1069185808300972, 0.9387140274047852, -2.7669317722320557, -0.10903387516736984, 0.1768764704465866, 0.17578496038913727, 0.02557559870183468, 0.007040833123028278, 1.000538945198059, -2.5549120903015137, 5.999633312225342, -0.2542603015899658, 0.0, 0.0, 0.0, 0, 0, 0, 0, 0, 0, -2.5549120903015137, 5.999633312225342, -0.2542603015899658
55660, -0.10710709542036057, 0.9395440220832825, -2.764540672302246, 0.02903532050549984, -0.28336501121520996, 0.05436945706605911, 0.02255672588944435, 0.007410910911858082, 1.0003395080566406, -2.557643175125122, 6.011162281036377, -0.2540512681007385, 0.0, 0.0, 0.0, 0, 0, 0, 0, 0, 0, -2.557643175125122, 6.011162281036377, -0.2540512681007385
55670, -0.10714574158191681, 0.9387850165367126, -2.761434316635132, -0.046461790800094604, -0.02927536703646183, -0.005217800848186016, 0.022728854790329933, 0.006682408507913351, 1.0017114877700806, -2.5603668689727783, 6.02269983291626, -0.25384148955345154, 0.0, 0.0, 0.0, 0, 0, 0, 0, 0, 0, -2.5603668689727783, 6.02269983291626, -0.25384148955345154
55680, -0.10654918104410172, 0.9380980134010315, -2.7598206996917725, 0.022698339074850082, -0.11150699853897095, -0.18309831619262695, 0.022906433790922165, 0.009294037707149982, 1.001380205154419, -2.563084363937378, 6.034245491027832, -0.2536303997039795, 0.0, 0.0, 0.0, 0, 0, 0, 0, 0, 0, -2.563084363937378, 6.034245491027832, -0.2536303997039795
55690, -0.10656509548425674, 0.9361390471458435, -2.7571113109588623, -0.019055573269724846, 0.13942493498325348, 0.1701417714357376, 0.025228992104530334, 0.00981223862618208, 1.0011240243911743, -2.565795421600342, 6.045800685882568, -0.25341758131980896, 0.0, 0.0, 0.0, 0, 0, 0, 0, 0, 0, -2.565795421600342, 6.045800685882568, -0.25341758131980896
55700, -0.10690289735794067, 0.936581552028656, -2.7547860145568848, -0.034847915172576904, -0.09645825624465942, -0.08863640576601028, 0.024908864870667458, 0.00817238911986351, 0.9997544884681702, -2.5684988498687744, 6.057366847991943, -0.25320324301719666, 0.0, 0.0, 0.0, 0, 0, 0, 0, 0, 0, -2.5684988498687744, 6.057366847991943, -0.25320324301719666
55710, -0.10647160559892654, 0.9367011785507202, -2.7517716884613037, 0.06422267109155655, -0.22625784575939178, -0.1235666424036026, 0.024886583909392357, 0.009073144756257534, 1.0002880096435547, -2.5711939334869385, 6.068943023681641, -0.2529881000518799, 0.0, 0.0, 0.0, 0, 0, 0, 0, 0, 0, -2.5711939334869385, 6.068943023681641, -0.2529881000518799
55720, -0.10614851117134094, 0.9365792870521545, -2.7493741512298584, 0.07135823369026184, -0.145552396774292, -0.10315996408462524, 0.025540409609675407, 0.009108818136155605, 1.0002188682556152, -2.573880672454834, 6.08052921295166, -0.25277259945869446, 0.0, 0.0, 0.0, 0, 0, 0, 0, 0, 0, -2.573880672454834, 6.08052921295166, -0.25277259945869446
55730, -0.10629317164421082, 0.9346952438354492, -2.7457244396209717, -0.10288244485855103, 0.1079433485865593, 0.23651763796806335, 0.025475820526480675, 0.011103300377726555, 0.9998812079429626, -2.5765585899353027, 6.092125415802002, -0.2525565028190613, 0.0, 0.0, 0.0, 0, 0, 0, 0, 0, 0, -2.5765585899353027, 6.092125415802002, -0.2525565028190613
55740, -0.1056901067495346, 0.9318493604660034, -2.741952657699585, -0.0049056545831263065, 0.29454267024993896, 0.27800193428993225, 0.024056438356637955, 0.008862044662237167, 1.0015339851379395, -2.5792276859283447, 6.103732585906982, -0.2523398697376251, 0.0, 0.0, 0.0, 0, 0, 0, 0, 0, 0, -2.5792276859283447, 6.103732585906982, -0.2523398697376251
55750, -0.10614678263664246, 0.930220365524292, -2.740386724472046, -0.0763317421078682, 0.1177879273891449, -0.10904482007026672, 0.02341335266828537, 0.007616007700562477, 1.001035213470459, -2.5818886756896973, 6.115350246429443, -0.2521221935749054, 0.0, 0.0, 0.0, 0, 0, 0, 0, 0, 0, -2.5818886756896973, 6.115350246429443, -0.2521221935749054
55760, -0.10647634416818619, 0.9291536808013916, -2.737255811691284, -0.020034821704030037, 0.059223294258117676, 0.04419553652405739, 0.024371344596147537, 0.007626046892255545, 1.0016329288482666, -2.5845425128936768, 6.126977443695068, -0.2519029974937439, 0.0, 0.0, 0.0, 0, 0, 0, 0, 0, 0, -2.5845425128936768, 6.126977443695068, -0.2519029974937439
55770, -0.10643560439348221, 0.927891731262207, -2.733994960784912, 0.07214966416358948, 0.12846466898918152, 0.024509698152542114, 0.025571854785084724, 0.008569452911615372, 1.0023595094680786, -2.587188959121704, 6.138613700866699, -0.2516820430755615, 0.0, 0.0, 0.0, 0, 0, 0, 0, 0, 0, -2.587188959121704, 6.138613700866699, -0.2516820430755615
55780, -0.10617627948522568, 0.9291136860847473, -2.7314975261688232, 0.022716287523508072, -0.18762478232383728, -0.07014865428209305, 0.027353916317224503, 0.009352347813546658, 1.002936601638794, -2.589827060699463, 6.150259494781494, -0.25145867466926575, 0.0, 0.0, 0.0, 0, 0, 0, 0, 0, 0, -2.589827060699463, 6.150259494781494, -0.25145867466926575
55790, -0.10689575225114822, 0.9296342730522156, -2.7282392978668213, -0.08652176707983017, -0.25899964570999146, -0.013209609314799309, 0.024873359128832817, 0.00775394169613719, 1.0040472745895386, -2.5924553871154785, 6.161914825439453, -0.251232385635376, 0.0, 0.0, 0.0, 0, 0, 0, 0, 0, 0, -2.5924553871154785, 6.161914825439453, -0.251232385635376
55800, -0.10657662153244019, 0.9284265041351318, -2.7243130207061768, 0.06925911456346512, -0.11139474809169769, 0.1776924729347229, 0.026102235540747643, 0.007392727769911289, 1.0028144121170044, -2.595073938369751, 6.173579692840576, -0.2510024905204773, 0.0, 0.0, 0.0, 0, 0, 0, 0, 0, 0, -2.595073938369751, 6.173579692840576, -0.2510024905204773
55810, -0.10729722678661346, 0.9247573018074036, -2.7228808403015137, -0.0627351626753807, 0.04101312905550003, -0.23162610828876495, 0.025526857003569603, 0.00723780132830143, 1.0019629001617432, -2.5976834297180176, 6.185253143310547, -0.2507689893245697, 0.0, 0.0, 0.0, 0, 0, 0, 0, 0, 0, -2.5976834297180176, 6.185253143310547, -0.2507689893245697
55820, -0.10743721574544907, 0.9227442145347595, -2.7201430797576904, 0.1829415112733841, 0.05672180652618408, -0.058971818536520004, 0.024802356958389282, 0.009184401482343674, 1.0007880926132202, -2.600283622741699, 6.196935176849365, -0.250532865524292, 0.0, 0.0, 0.0, 0, 0, 0, 0, 0, 0, -2.600283622741699, 6.196935176849365, -0.250532865524292
55830, -0.10677383095026016, 0.9209578037261963, -2.716430187225342, 0.2354242205619812, 0.04843377321958542, 0.121409572660923, 0.023610519245266914, 0.009235542267560959, 0.9991240501403809, -2.602875232696533, 6.2086262702941895, -0.25029513239860535, 0.0, 0.0, 0.0, 0, 0, 0, 0, 0, 0, -2.602875232696533, 6.2086262702941895, -0.25029513239860535
55840, -0.10706114768981934, 0.9189701080322266, -2.7131760120391846, -0.032319873571395874, 0.03838109225034714, -0.16479305922985077, 0.02282194420695305, 0.007595476694405079, 1.0005971193313599, -2.605459451675415, 6.220327854156494, -0.2500571012496948, 0.0, 0.0, 0.0, 0, 0, 0, 0, 0, 0, -2.605459451675415, 6.220327854156494, -0.2500571012496948
55850, -0.10742774605751038, 0.9182629585266113, -2.708707571029663, 0.055136725306510925, 0.0436176061630249, 0.2523380517959595, 0.02291538566350937, 0.00799198355525732, 1.000287652015686, -2.608036994934082, 6.232038974761963, -0.2498188465833664, 0.0, 0.0, 0.0, 0, 0, 0, 0, 0, 0, -2.608036994934082, 6.232038974761963, -0.2498188465833664
55860, -0.10769984126091003, 0.9152616262435913, -2.7047901153564453, 0.007369909901171923, 0.2538715898990631, 0.1633499562740326, 0.025175543501973152, 0.009682741016149521, 1.0005666017532349, -2.610607862472534, 6.2437591552734375, -0.24957995116710663, 0.0, 0.0, 0.0, 0, 0, 0, 0, 0, 0, -2.610607862472534, 6.2437591552734375, -0.24957995116710663
55870, -0.10745569318532944, 0.9118757843971252, -2.7014243602752686, 0.07071348279714584, 0.12858471274375916, 0.04439767077565193, 0.02529854141175747, 0.009554651565849781, 1.002018928527832, -2.613170862197876, 6.255489349365234, -0.24934019148349762, 0.0, 0.0, 0.0, 0, 0, 0, 0, 0, 0, -2.613170862197876, 6.255489349365234, -0.24934019148349762
55880, -0.10814440995454788, 0.9095703959465027, -2.6985507011413574, 0.05507836863398552, 0.17040683329105377, 0.012605751864612103, 0.02425890602171421, 0.008729524910449982, 1.001726746559143, -2.615725040435791, 6.267230033874512, -0.249098539352417, 0.0, 0.0, 0.0, 0, 0, 0, 0, 0, 0, -2.615725040435791, 6.267230033874512, -0.249098539352417
55890, -0.10751679539680481, 0.9092745184898376, -2.6960880756378174, 0.04324757680296898, 0.05332418158650398, 0.1126532107591629, 0.025758234784007072, 0.007942866533994675, 0.9998058080673218, -2.6182701587677, 6.2789812088012695, -0.24885480105876923, 0.0, 0.0, 0.0, 0, 0, 0, 0, 0, 0, -2.6182701587677, 6.2789812088012695, -0.24885480105876923
55900, -0.10729078948497772, 0.906706690788269, -2.693959951400757, -0.014623232185840607, 0.3761826157569885, -0.16653721034526825, 0.024756766855716705, 0.0073838625103235245, 0.9999184012413025, -2.6208062171936035, 6.290741920471191, -0.24861003458499908, 0.0, 0.0, 0.0, 0, 0, 0, 0, 0, 0, -2.6208062171936035, 6.290741920471191, -0.24861003458499908
55910, -0.10681725293397903, 0.9059286117553711, -2.690023899078369, 0.09079260379076004, -0.032447248697280884, 0.1782454252243042, 0.024127772077918053, 0.007133152335882187, 1.001930832862854, -2.623333215713501, 6.302511215209961, -0.24836479127407074, 0.0, 0.0, 0.0, 0, 0, 0, 0, 0, 0, -2.623333215713501, 6.302511215209961, -0.24836479127407074
55920, -0.10603102296590805, 0.904410719871521, -2.6871349811553955, 0.04464924335479736, -0.005069652572274208, -0.16004420816898346, 0.02480160817503929, 0.01077993679791689, 1.000046968460083, -2.625851631164551, 6.314289093017578, -0.24811819195747375, 0.0, 0.0, 0.0, 0, 0, 0, 0, 0, 0, -2.625851631164551, 6.314289093017578, -0.24811819195747375
55930, -0.10547012090682983, 0.903095543384552, -2.684522867202759, 0.05097087845206261, 0.009911731816828251, -0.0839216485619545, 0.02396332658827305, 0.008378569036722183, 0.9990963339805603, -2.628361701965332, 6.326076984405518, -0.24787041544914246, 0.0, 0.0, 0.0, 0, 0, 0, 0, 0, 0, -2.628361701965332, 6.326076984405518, -0.24787041544914246
55940, -0.10536561161279678, 0.9025188684463501, -2.681812286376953, 0.004239344038069248, -0.1984194666147232, 0.08724909275770187, 0.023949794471263885, 0.00939383264631033, 1.0001760721206665, -2.630863666534424, 6.3378753662109375, -0.24762286245822906, 0.0, 0.0, 0.0, 0, 0, 0, 0, 0, 0, -2.630863666534424, 6.3378753662109375, -0.24762286245822906
55950, -0.10479239374399185, 0.8998457789421082, -2.679551124572754, 0.1381588578224182, 0.20437395572662354, -0.026745935901999474, 0.0253423023968935, 0.009512040764093399, 0.9997146725654602, -2.6333577632904053, 6.34968376159668, -0.24737541377544403, 0.0, 0.0, 0.0, 0, 0, 0, 0, 0, 0, -2.6333577632904053, 6.34968376159668, -0.24737541377544403
55960, -0.10611855238676071, 0.8994274139404297, -2.677039384841919, -0.23119346797466278, -0.08840057998895645, 0.1530241072177887, 0.022820623591542244, 0.009775076061487198, 0.9993374943733215, -2.635843276977539, 6.361502647399902, -0.24712777137756348, 0.0, 0.0, 0.0, 0, 0, 0, 0, 0, 0, -2.635843276977539, 6.361502647399902, -0.24712777137756348
55970, -0.10666665434837341, 0.8982987403869629, -2.6753857135772705, -0.040932271629571915, 0.1119484007358551, -0.2090764194726944, 0.02479139156639576, 0.008992194198071957, 0.9998535513877869, -2.6383204460144043, 6.373332500457764, -0.24688030779361725, 0.0, 0.0, 0.0, 0, 0, 0, 0, 0, 0, -2.6383204460144043, 6.373332500457764, -0.24688030779361725
55980, -0.10664156824350357, 0.8971816897392273, -2.672231912612915, -0.06756293773651123, -0.030727185308933258, 0.006036339793354273, 0.02428116835653782, 0.007961610332131386, 1.0024588108062744, -2.64078950881958, 6.3851728439331055, -0.24663271009922028, 0.0, 0.0, 0.0, 0, 0, 0, 0, 0, 0, -2.64078950881958, 6.3851728439331055, -0.24663271009922028
55990, -0.10671273618936539, 0.89515620470047, -2.668858051300049, 0.05172806233167648, 0.06546156853437424, -0.08002828806638718, 0.02466566488146782, 0.008007924072444439, 1.0011065006256104, -2.643249750137329, 6.397022724151611, -0.24638362228870392, 0.0, 0.0, 0.0, 0, 0, 0, 0, 0, 0, -2.643249750137329, 6.397022724151611, -0.24638362228870392
56000, -0.10718277096748352, 0.8933840394020081, -2.6661014556884766, -0.04287145659327507, 0.09941697120666504, -0.037979792803525925, 0.02407822199165821, 0.007884169928729534, 0.9994415640830994, -2.6457014083862305, 6.408881664276123, -0.24613258242607117, 0.0, 0.0, 0.0, 0, 0, 0, 0, 0, 0, -2.6457014083862305, 6.408881664276123, -0.24613258242607117
56010, -0.10746857523918152, 0.8934798240661621, -2.662569999694824, -0.12831655144691467, -0.09247569739818573, 0.15442967414855957, 0.025172190740704536, 0.007300879340618849, 1.0011612176895142, -2.648144483566284, 6.420749664306641, -0.24588069319725037, 0.0, 0.0, 0.0, 0, 0, 0, 0, 0, 0, -2.648144483566284, 6.420749664306641, -0.24588069319725037
56020, -0.10614221543073654, 0.8920323848724365, -2.6595990657806396, 0.11472770571708679, 0.19970820844173431, -0.052706215530633926, 0.025794759392738342, 0.007080502342432737, 0.9994485378265381, -2.650578737258911, 6.432626247406006, -0.24562810361385345, 0.0, 0.0, 0.0, 0, 0, 0, 0, 0, 0, -2.650578737258911, 6.432626247406006, -0.24562810361385345
56030, -0.10622497648000717, 0.8888620138168335, -2.6576929092407227, -0.005839511286467314, 0.2694260776042938, 0.07201236486434937, 0.026110876351594925, 0.007298847194761038, 0.9996734261512756, -2.653003454208374, 6.4445109367370605, -0.24537497758865356, 0.0, 0.0, 0.0, 0, 0, 0, 0, 0, 0, -2.653003454208374, 6.4445109367370605, -0.24537497758865356
56040, -0.10586678981781006, 0.8864943981170654, -2.6561267375946045, 0.033402830362319946, -0.04614715650677681, -0.02508336491882801, 0.026420388370752335, 0.006478041410446167, 1.000556468963623, -2.6554179191589355, 6.4564032554626465, -0.24512189626693726, 0.0, 0.0, 0.0, 0, 0, 0, 0, 0, 0, -2.6554179191589355, 6.4564032554626465, -0.24512189626693726
56050, -0.10493094474077225, 0.885757565498352, -2.653188705444336, 0.007327278144657612, 0.014108655974268913, 0.02365109510719776, 0.02463940531015396, 0.006990544032305479, 1.0019104480743408, -2.6578221321105957, 6.468303680419922, -0.24486829340457916, 0.0, 0.0, 0.0, 0, 0, 0, 0, 0, 0, -2.6578221321105957, 6.468303680419922, -0.24486829340457916
56060, -0.10494862496852875, 0.8864327073097229, -2.6512250900268555, 0.03411241993308067, -0.20883741974830627, -0.1841936856508255, 0.02428455278277397, 0.008517215959727764, 1.002618432044983, -2.6602165699005127, 6.480212211608887, -0.24461309611797333, 0.0, 0.0, 0.0, 0, 0, 0, 0, 0, 0, -2.6602165699005127, 6.480212211608887, -0.24461309611797333
56070, -0.1041879653930664, 0.88418048620224, -2.6478002071380615, 0.15516912937164307, -0.030753368511795998, 0.26814940571784973, 0.024947993457317352, 0.007531626150012016, 1.000868797302246, -2.662602186203003, 6.492129325866699, -0.24435560405254364, 0.0, 0.0, 0.0, 0, 0, 0, 0, 0, 0, -2.662602186203003, 6.492129325866699, -0.24435560405254364
56080, -0.10491453111171722, 0.8827940225601196, -2.644747495651245, -0.03495625779032707, 0.11674369871616364, 0.15451855957508087, 0.025464434176683426, 0.008805421181023121, 1.0015655755996704, -2.6649789810180664, 6.504055023193359, -0.24409610033035278, 0.0, 0.0, 0.0, 0, 0, 0, 0, 0, 0, -2.6649789810180664, 6.504055023193359, -0.24409610033035278
56090, -0.10412681847810745, 0.8799627423286438, -2.6416306495666504, 0.17928650975227356, 0.10655650496482849, -0.006475840229541063, 0.025253059342503548, 0.006705837789922953, 1.0012025833129883, -2.6673460006713867, 6.515990257263184, -0.24383491277694702, 0.0, 0.0, 0.0, 0, 0, 0, 0, 0, 0, -2.6673460006713867, 6.515990257263184, -0.24383491277694702
56100, -0.10465353727340698, 0.8793607354164124, -2.6394870281219482, -0.16821321845054626, -0.1041107252240181, 0.0031919830944389105, 0.0245211161673069, 0.008524421602487564, 1.0018155574798584, -2.669703245162964, 6.5279340744018555, -0.2435721606016159, 0.0, 0.0, 0.0, 0, 0, 0, 0, 0, 0, -2.669703245162964, 6.5279340744018555, -0.2435721606016159
56110, -0.10479084402322769, 0.8780825734138489, -2.636200189590454, -0.016546159982681274, 0.06532689929008484, -0.07149699330329895, 0.024045836180448532, 0.008330589160323143, 1.000706434249878, -2.672050952911377, 6.539886474609375, -0.24330778419971466, 0.0, 0.0, 0.0, 0, 0, 0, 0, 0, 0, -2.672050952911377, 6.539886474609375, -0.24330778419971466
56120, -0.10429038107395172, 0.8783575296401978, -2.634042501449585, -0.04834185168147087, -0.18588873744010925, 0.08380096405744553, 0.02371472306549549, 0.00771566666662693, 0.9989807605743408, -2.6743898391723633, 6.551848411560059, -0.24304190278053284, 0.0, 0.0, 0.0, 0, 0, 0, 0, 0, 0, -2.6743898391723633, 6.551848411560059, -0.24304190278053284
56130, -0.10267576575279236, 0.8776785731315613, -2.6309971809387207, 0.15173780918121338, -0.04933222755789757, 0.06073229759931564, 0.023446671664714813, 0.008819344453513622, 1.0008734464645386, -2.676720380783081, 6.563819408416748, -0.24277573823928833, 0.0, 0.0, 0.0, 0, 0, 0, 0, 0, 0, -2.676720380783081, 6.563819408416748, -0.24277573823928833
56140, -0.10136312991380692, 0.8750395774841309, -2.6270389556884766, 0.1965712457895279, 0.17972290515899658, 0.16085848212242126, 0.022328706458210945, 0.008246628567576408, 1.0008726119995117, -2.6790430545806885, 6.575799942016602, -0.2425094097852707, 0.0, 0.0, 0.0, 0, 0, 0, 0, 0, 0, -2.6790430545806885, 6.575799942016602, -0.2425094097852707
56150, -0.10195235162973404, 0.8734716773033142, -2.624725818634033, 0.03679586946964264, 0.01996920257806778, -0.01538050826638937, 0.023698288947343826, 0.005785571411252022, 1.00165593624115, -2.681358575820923, 6.587790012359619, -0.24224187433719635, 0.0, 0.0, 0.0, 0, 0, 0, 0, 0, 0, -2.681358575820923, 6.587790012359619, -0.24224187433719635
56160, -0.10251662135124207, 0.8735736012458801, -2.6232750415802, -0.05798669531941414, -0.20738990604877472, -0.1731967329978943, 0.02706187777221203, 0.006975085474550724, 1.0004304647445679, -2.683666467666626, 6.599788188934326, -0.24197253584861755, 0.0, 0.0, 0.0, 0, 0, 0, 0, 0, 0, -2.683666467666626, 6.599788188934326, -0.24197253584861755
56170, -0.10271946340799332, 0.8723013401031494, -2.6204965114593506, -0.1244640201330185, 0.033503539860248566, 0.03892911598086357, 0.024706993252038956, 0.006949879229068756, 0.9994628429412842, -2.685964822769165, 6.611793518066406, -0.24170173704624176, 0.0, 0.0, 0.0, 0, 0, 0, 0, 0, 0, -2.685964822769165, 6.611793518066406, -0.24170173704624176
56180, -0.10256804525852203, 0.8714450597763062, -2.618279457092285, 0.04302409663796425, -0.0176241435110569, 0.018513735383749008, 0.02532590925693512, 0.00739592919126153, 1.001042127609253, -2.6882529258728027, 6.623806953430176, -0.24143053591251373, 0.0, 0.0, 0.0, 0, 0, 0, 0, 0, 0, -2.6882529258728027, 6.623806953430176, -0.24143053591251373
56190, -0.10149139910936356, 0.8711803555488586, -2.6148295402526855, 0.12201236933469772, 0.004995973315089941, 0.20095960795879364, 0.022531062364578247, 0.006235736887902021, 1.0015087127685547, -2.6905314922332764, 6.635828971862793, -0.24115866422653198, 0.0, 0.0, 0.0, 0, 0, 0, 0, 0, 0, -2.6905314922332764, 6.635828971862793, -0.24115866422653198
56200, -0.1016584038734436, 0.8708414435386658, -2.613766670227051, -0.03105960227549076, -0.07183757424354553, -0.16666416823863983, 0.0228359904140234, 0.010437927208840847, 0.9999945163726807, -2.6928014755249023, 6.6478590965271, -0.24088533222675323, 0.0, 0.0, 0.0, 0, 0, 0, 0, 0, 0, -2.6928014755249023, 6.6478590965271, -0.24088533222675323
56210, -0.10211307555437088, 0.8699805736541748, -2.610797166824341, -0.01608208194375038, -0.004327729344367981, 0.13447360694408417, 0.025302402675151825, 0.00989336147904396, 1.0015809535980225, -2.6950643062591553, 6.65989875793457, -0.24061106145381927, 0.0, 0.0, 0.0, 0, 0, 0, 0, 0, 0, -2.6950643062591553, 6.65989875793457, -0.24061106145381927
56220, -0.10217586159706116, 0.8701545000076294, -2.607445240020752, -0.021859601140022278, -0.07723753899335861, 0.16493390500545502, 0.02607301063835621, 0.007822094485163689, 1.0001013278961182, -2.6973185539245605, 6.67194938659668, -0.24033582210540771, 0.0, 0.0, 0.0, 0, 0, 0, 0, 0, 0, -2.6973185539245605, 6.67194938659668, -0.24033582210540771
56230, -0.10091210156679153, 0.8707367181777954, -2.6045477390289307, 0.20511683821678162, -0.26484939455986023, 0.016097484156489372, 0.026542723178863525, 0.006650128401815891, 1.0018714666366577, -2.6995627880096436, 6.684010028839111, -0.24005934596061707, 0.0, 0.0, 0.0, 0, 0, 0, 0, 0, 0, -2.6995627880096436, 6.684010028839111, -0.24005934596061707
56240, -0.10091210156679153, 0.8707367181777954, -2.6045477390289307, 0.016519907861948013, 0.07727205008268356, 0.018552226945757866, 0.025165323168039322, 0.008019889704883099, 0.9998725652694702, -2.701796054840088, 6.696078777313232, -0.23978155851364136, 0.0, 0.0, 0.0, 0, 0, 0, 0, 0, 0, -2.701796054840088, 6.696078777313232, -0.23978155851364136
56250, -0.10050693154335022, 0.8687663078308105, -2.5993714332580566, -0.003880324074998498, -0.28056129813194275, 0.0808311253786087, 0.02798498421907425, 0.007808521389961243, 1.0007812976837158, -2.704240560531616, 6.70936393737793, -0.23947462439537048, 0.0, 0.0, 0.0, 0, 0, 0, 0, 0, 0, -2.704240560531616, 6.70936393737793, -0.23947462439537048
56260, -0.10050693154335022, 0.8687663078308105, -2.5993714332580566, -0.16723434627056122, 0.13539353013038635, -0.26592108607292175, 0.027523446828126907, 0.00757462065666914, 1.0037333965301514, -2.706451416015625, 6.7214508056640625, -0.2391946166753769, 0.0, 0.0, 0.0, 0, 0, 0, 0, 0, 0, -2.706451416015625, 6.7214508056640625, -0.2391946166753769
56270, -0.09978941082954407, 0.8649746179580688, -2.5952999591827393, -0.11432256549596786, 0.11555270105600357, 0.003533096518367529, 0.025421055033802986, 0.009606649167835712, 1.0024768114089966, -2.7086501121520996, 6.733546257019043, -0.23891213536262512, 0.0, 0.0, 0.0, 0, 0, 0, 0, 0, 0, -2.7086501121520996, 6.733546257019043, -0.23891213536262512
56280, -0.09978941082954407, 0.8649746179580688, -2.5952999591827393, 0.09359031170606613, 0.29331642389297485, 0.11711891740560532, 0.02639358676970005, 0.007887124083936214, 1.001999855041504, -2.7108380794525146, 6.745651721954346, -0.2386263757944107, 0.0, 0.0, 0.0, 0, 0, 0, 0, 0, 0, -2.7108380794525146, 6.745651721954346, -0.2386263757944107
56290, -0.09855441004037857, 0.8606100082397461, -2.589472770690918, 0.2692909240722656, -0.13435138761997223, -0.07961933314800262, 0.025799361988902092, 0.00851905532181263, 1.0013375282287598, -2.713015556335449, 6.7577667236328125, -0.23833811283111572, 0.0, 0.0, 0.0, 0, 0, 0, 0, 0, 0, -2.713015556335449, 6.7577667236328125, -0.23833811283111572
56300, -0.09855441004037857, 0.8606100082397461, -2.589472770690918, -0.018104717135429382, 0.06616387516260147, -0.15477827191352844, 0.02529926784336567, 0.008902426809072495, 1.0021270513534546, -2.715182304382324, 6.769891262054443, -0.23804770410060883, 0.0, 0.0, 0.0, 0, 0, 0, 0, 0, 0, -2.715182304382324, 6.769891262054443, -0.23804770410060883
56310, -0.09951947629451752, 0.8588485717773438, -2.5876986980438232, 0.1024196594953537, 0.10210802406072617, 0.09430941939353943, 0.024959653615951538, 0.009012997150421143, 1.0029605627059937, -2.717338800430298, 6.782025337219238, -0.23775506019592285, 0.0, 0.0, 0.0, 0, 0, 0, 0, 0, 0, -2.717338800430298, 6.782025337219238, -0.23775506019592285
56320, -0.09996780008077621, 0.8564895987510681, -2.5847396850585938, -0.0912695974111557, 0.34752434492111206, 0.19343113899230957, 0.02608921378850937, 0.010177185758948326, 1.0029617547988892, -2.719485282897949, 6.794169902801514, -0.23745957016944885, 0.0, 0.0, 0.0, 0, 0, 0, 0, 0, 0, -2.719485282897949, 6.794169902801514, -0.23745957016944885
56330, -0.10041224211454391, 0.853816032409668, -2.581141471862793, -0.09511718153953552, 0.10849498212337494, -0.041275039315223694, 0.025480326265096664, 0.010813347063958645, 1.000488519668579, -2.721834421157837, 6.8075408935546875, -0.23713107407093048, 0.0, 0.0, 0.0, 0, 0, 0, 0, 0, 0, -2.721834421157837, 6.8075408935546875, -0.23713107407093048
56340, -0.10081438720226288, 0.8524882197380066, -2.5781376361846924, -0.06767777353525162, -0.29818618297576904, -0.10481232404708862, 0.024632226675748825, 0.007390815299004316, 1.00040602684021, -2.723958969116211, 6.819708347320557, -0.23683041334152222, 0.0, 0.0, 0.0, 0, 0, 0, 0, 0, 0, -2.723958969116211, 6.819708347320557, -0.23683041334152222
56350, -0.10180092602968216, 0.8518065810203552, -2.5765151977539062, -0.15373913943767548, -0.029434658586978912, 0.0031524538062512875, 0.02640148624777794, 0.0075215366668999195, 1.0002951622009277, -2.726073741912842, 6.83188533782959, -0.2365289181470871, 0.0, 0.0, 0.0, 0, 0, 0, 0, 0, 0, -2.726073741912842, 6.83188533782959, -0.2365289181470871
56360, -0.10174351185560226, 0.8515359163284302, -2.573458671569824, 0.11750669777393341, 0.00907447375357151, -0.07740576565265656, 0.026045842096209526, 0.008786246180534363, 0.9996265769004822, -2.7281782627105713, 6.844070911407471, -0.23622696101665497, 0.0, 0.0, 0.0, 0, 0, 0, 0, 0, 0, -2.7281782627105713, 6.844070911407471, -0.23622696101665497
56370, -0.1013747826218605, 0.8490920662879944, -2.5724918842315674, -0.01434963196516037, 0.01949736662209034, 0.1047457680106163, 0.02465098723769188, 0.009850629605352879, 0.9990247488021851, -2.730271816253662, 6.856266021728516, -0.23592481017112732, 0.0, 0.0, 0.0, 0, 0, 0, 0, 0, 0, -2.730271816253662, 6.856266021728516, -0.23592481017112732
56380, -0.10153579711914062, 0.850483775138855, -2.5695793628692627, 0.06852035969495773, 0.15391522645950317, 0.10645145177841187, 0.025088509544730186, 0.009764046408236027, 1.000272512435913, -2.7323551177978516, 6.868471622467041, -0.2356228232383728, 0.0, 0.0, 0.0, 0, 0, 0, 0, 0, 0, -2.7323551177978516, 6.868471622467041, -0.2356228232383728
56390, -0.10011425614356995, 0.8475790619850159, -2.5671749114990234, -0.15531319379806519, -0.04215461388230324, 0.04925016313791275, 0.025638297200202942, 0.009901288896799088, 1.0003780126571655, -2.7344284057617188, 6.880687713623047, -0.235320582985878, 0.0, 0.0, 0.0, 0, 0, 0, 0, 0, 0, -2.7344284057617188, 6.880687713623047, -0.235320582985878
56400, -0.10085979849100113, 0.8479378819465637, -2.5648021697998047, 0.28243958950042725, -0.46834510564804077, -0.11754989624023438, 0.025358743965625763, 0.0088210953399539, 0.9997467994689941, -2.7364914417266846, 6.892914772033691, -0.23501749336719513, 0.0, 0.0, 0.0, 0, 0, 0, 0, 0, 0, -2.7364914417266846, 6.892914772033691, -0.23501749336719513
56410, -0.10084830969572067, 0.8473747968673706, -2.5626907348632812, 0.020418444648385048, -0.12383393943309784, -0.10205594450235367, 0.02512972801923752, 0.006470953114330769, 0.999900221824646, -2.73854398727417, 6.905151844024658, -0.23471401631832123, 0.0, 0.0, 0.0, 0, 0, 0, 0, 0, 0, -2.73854398727417, 6.905151844024658, -0.23471401631832123
56420, -0.10030040889978409, 0.8464266657829285, -2.5592000484466553, 0.08763483911752701, 0.4154816269874573, 0.33083459734916687, 0.023933297023177147, 0.006939856801182032, 1.0003327131271362, -2.740586757659912, 6.9173970222473145, -0.23441030085086823, 0.0, 0.0, 0.0, 0, 0, 0, 0, 0, 0, -2.740586757659912, 6.9173970222473145, -0.23441030085086823
56430, -0.10096660256385803, 0.843366265296936, -2.5559334754943848, 0.007290563080459833, 0.07840149104595184, -0.04235828295350075, 0.022998575121164322, 0.00900568813085556, 1.0024349689483643, -2.7426202297210693, 6.92965030670166, -0.23410579562187195, 0.0, 0.0, 0.0, 0, 0, 0, 0, 0, 0, -2.7426202297210693, 6.92965030670166, -0.23410579562187195
56440, -0.1016642153263092, 0.84111088514328, -2.55344820022583, 0.013765871524810791, 0.09906477481126785, 0.1672939509153366, 0.025223378092050552, 0.009353302419185638, 1.000336766242981, -2.744645118713379, 6.94191312789917, -0.233799546957016, 0.0, 0.0, 0.0, 0, 0, 0, 0, 0, 0, -2.744645118713379, 6.94191312789917, -0.233799546957016
56450, -0.10193514823913574, 0.839662492275238, -2.550379991531372, -0.017922820523381233, 0.23465578258037567, -0.18293815851211548, 0.023498188704252243, 0.007199872750788927, 0.9994239211082458, -2.7466609477996826, 6.954185962677002, -0.23349200189113617, 0.0, 0.0, 0.0, 0, 0, 0, 0, 0, 0, -2.7466609477996826, 6.954185962677002, -0.23349200189113617
56460, -0.10210808366537094, 0.8365575671195984, -2.5489580631256104, 0.05369005352258682, -0.18699535727500916, 0.23779559135437012, 0.02489800937473774, 0.007240904029458761, 0.9989340305328369, -2.7486674785614014, 6.96646785736084, -0.23318469524383545, 0.0, 0.0, 0.0, 0, 0, 0, 0, 0, 0, -2.7486674785614014, 6.96646785736084, -0.23318469524383545
56470, -0.10107714682817459, 0.8371464014053345, -2.5439863204956055, 0.0718630850315094, 0.19269780814647675, -0.05935404822230339, 0.024748029187321663, 0.008847925812005997, 1.002152919769287, -2.750664472579956, 6.978758335113525, -0.23287764191627502, 0.0, 0.0, 0.0, 0, 0, 0, 0, 0, 0, -2.750664472579956, 6.978758335113525, -0.23287764191627502
56480, -0.10081931948661804, 0.835089921951294, -2.541895866394043, -0.1002122089266777, -0.22144430875778198, 0.19179342687129974, 0.023672055453062057, 0.01005459949374199, 1.0034801959991455, -2.7526516914367676, 6.991058349609375, -0.23256924748420715, 0.0, 0.0, 0.0, 0, 0, 0, 0, 0, 0, -2.7526516914367676, 6.991058349609375, -0.23256924748420715
56490, -0.10069429874420166, 0.8353453874588013, -2.5388529300689697, 0.21205852925777435, -0.04228056222200394, -0.0666450783610344, 0.024870436638593674, 0.009376758709549904, 1.000913381576538, -2.754629611968994, 7.003368854522705, -0.2322581708431244, 0.0, 0.0, 0.0, 0, 0, 0, 0, 0, 0, -2.754629611968994, 7.003368854522705, -0.2322581708431244
56500, -0.10027145594358444, 0.835074245929718, -2.536079168319702, 0.03621817007660866, -0.020609423518180847, -0.15766049921512604, 0.02810538187623024, 0.010070513002574444, 1.001569151878357, -2.7565977573394775, 7.015690326690674, -0.2319449484348297, 0.0, 0.0, 0.0, 0, 0, 0, 0, 0, 0, -2.7565977573394775, 7.015690326690674, -0.2319449484348297
56510, -0.10021479427814484, 0.8335167765617371, -2.533386707305908, -0.02709917724132538, -0.002735736547037959, 0.13867828249931335, 0.026746083050966263, 0.009815094992518425, 0.9975872039794922, -2.7585537433624268, 7.028022289276123, -0.23163077235221863, 0.0, 0.0, 0.0, 0, 0, 0, 0, 0, 0, -2.7585537433624268, 7.028022289276123, -0.23163077235221863
56520, -0.10033313930034637, 0.8323066234588623, -2.5302469730377197, -0.07993786036968231, 0.10720393061637878, 0.059117019176483154, 0.023779286071658134, 0.00872963760048151, 0.9972260594367981, -2.760497808456421, 7.040365219116211, -0.23131732642650604, 0.0, 0.0, 0.0, 0, 0, 0, 0, 0, 0, -2.760497808456421, 7.040365219116211, -0.23131732642650604
56530, -0.10000621527433395, 0.829088568687439, -2.5260300636291504, -0.06386867165565491, 0.3325121998786926, 0.015126874670386314, 0.025110146030783653, 0.006789141800254583, 1.000119686126709, -2.7624316215515137, 7.052717685699463, -0.23100557923316956, 0.0, 0.0, 0.0, 0, 0, 0, 0, 0, 0, -2.7624316215515137, 7.052717685699463, -0.23100557923316956
56540, -0.10108020156621933, 0.8274484276771545, -2.523122787475586, -0.2762400507926941, -0.09431388229131699, 0.09976581484079361, 0.02406691573560238, 0.009471429511904716, 1.0002059936523438, -2.7643558979034424, 7.065079212188721, -0.23069466650485992, 0.0, 0.0, 0.0, 0, 0, 0, 0, 0, 0, -2.7643558979034424, 7.065079212188721, -0.23069466650485992
56550, -0.10179345309734344, 0.8268093466758728, -2.5212185382843018, 0.14945639669895172, 0.12481816858053207, -0.2070872187614441, 0.024066412821412086, 0.00865828525274992, 1.0003738403320312, -2.766270399093628, 7.077450275421143, -0.23038366436958313, 0.0, 0.0, 0.0, 0, 0, 0, 0, 0, 0, -2.766270399093628, 7.077450275421143, -0.23038366436958313
56560, -0.10116201639175415, 0.8260113596916199, -2.518869400024414, -0.04333506524562836, 0.14213474094867706, 0.06264470517635345, 0.0247475765645504, 0.006793409585952759, 1.0003387928009033, -2.7681756019592285, 7.089831352233887, -0.2300722301006317, 0.0, 0.0, 0.0, 0, 0, 0, 0, 0, 0, -2.7681756019592285, 7.089831352233887, -0.2300722301006317
56570, -0.1014605462551117, 0.8240427374839783, -2.5160269737243652, -0.011538030579686165, 0.010588280856609344, -0.06355386227369308, 0.0232787374407053, 0.00728903291746974, 1.001816987991333, -2.770071268081665, 7.1022210121154785, -0.22975996136665344, 0.0, 0.0, 0.0, 0, 0, 0, 0, 0, 0, -2.770071268081665, 7.1022210121154785, -0.22975996136665344
56580, -0.10121168196201324, 0.8229596018791199, -2.5133626461029053, -0.11561915278434753, 0.056674834340810776, -0.020263053476810455, 0.025074010714888573, 0.008830899372696877, 1.000957727432251, -2.7719576358795166, 7.11461877822876, -0.22944596409797668, 0.0, 0.0, 0.0, 0, 0, 0, 0, 0, 0, -2.7719576358795166, 7.11461877822876, -0.22944596409797668
56590, -0.1015772819519043, 0.8220874667167664, -2.509331464767456, -0.09729347378015518, 0.11332590878009796, 0.030542224645614624, 0.024555744603276253, 0.008111433126032352, 1.0000046491622925, -2.773834228515625, 7.127026081085205, -0.22913053631782532, 0.0, 0.0, 0.0, 0, 0, 0, 0, 0, 0, -2.773834228515625, 7.127026081085205, -0.22913053631782532
56600, -0.10166431963443756, 0.8215674757957458, -2.5078015327453613, 0.19400447607040405, -0.261284202337265, -0.13078543543815613, 0.02514602430164814, 0.007686975412070751, 1.0008435249328613, -2.775700807571411, 7.139442443847656, -0.2288142889738083, 0.0, 0.0, 0.0, 0, 0, 0, 0, 0, 0, -2.775700807571411, 7.139442443847656, -0.2288142889738083
56610, -0.10055915266275406, 0.8216354846954346, -2.506180763244629, -0.1598779559135437, -0.21462668478488922, -0.1407884806394577, 0.023090742528438568, 0.009853520430624485, 0.9997049570083618, -2.777557373046875, 7.151867866516113, -0.2284972220659256, 0.0, 0.0, 0.0, 0, 0, 0, 0, 0, 0, -2.777557373046875, 7.151867866516113, -0.2284972220659256
56620, -0.10135488212108612, 0.8198093175888062, -2.5039820671081543, -0.05273899808526039, -0.00144553417339921, -0.03793519362807274, 0.024086089804768562, 0.01048856321722269, 1.0013900995254517, -2.779404640197754, 7.164303779602051, -0.22817952930927277, 0.0, 0.0, 0.0, 0, 0, 0, 0, 0, 0, -2.779404640197754, 7.164303779602051, -0.22817952930927277
56630, -0.10070668160915375, 0.8184716701507568, -2.501070022583008, 0.047544803470373154, -0.032473284751176834, -0.014299680478870869, 0.02309226803481579, 0.01014992967247963, 1.0016093254089355, -2.781242847442627, 7.176751136779785, -0.22786061465740204, 0.0, 0.0, 0.0, 0, 0, 0, 0, 0, 0, -2.781242847442627, 7.176751136779785, -0.22786061465740204
56640, -0.10059183090925217, 0.8167526125907898, -2.498727560043335, 0.13547441363334656, 0.2256312519311905, -0.02176528237760067, 0.023983793333172798, 0.006795716937631369, 0.9994534254074097, -2.783071994781494, 7.189209461212158, -0.2275402843952179, 0.0, 0.0, 0.0, 0, 0, 0, 0, 0, 0, -2.783071994781494, 7.189209461212158, -0.2275402843952179
56650, -0.09984471648931503, 0.8155961036682129, -2.4955339431762695, -0.2167348861694336, -0.008596296422183514, 0.0009039558353833854, 0.024727925658226013, 0.007147334050387144, 1.000274896621704, -2.7848920822143555, 7.201677322387695, -0.22721947729587555, 0.0, 0.0, 0.0, 0, 0, 0, 0, 0, 0, -2.7848920822143555, 7.201677322387695, -0.22721947729587555
56660, -0.10029467940330505, 0.8131840229034424, -2.492947816848755, -0.11035031080245972, 0.255037784576416, -0.073374904692173, 0.023196423426270485, 0.008698143996298313, 1.0006980895996094, -2.7867026329040527, 7.214153289794922, -0.22689825296401978, 0.0, 0.0, 0.0, 0, 0, 0, 0, 0, 0, -2.7867026329040527, 7.214153289794922, -0.22689825296401978
56670, -0.10104451328516006, 0.8115145564079285, -2.4901063442230225, 0.08883572369813919, -0.005329708568751812, -0.07493296265602112, 0.024501318112015724, 0.008263858035206795, 1.0005168914794922, -2.788504123687744, 7.226638317108154, -0.22657610476016998, 0.0, 0.0, 0.0, 0, 0, 0, 0, 0, 0, -2.788504123687744, 7.226638317108154, -0.22657610476016998
56680, -0.10039108246564865, 0.809396505355835, -2.4858644008636475, 0.01460824441164732, 0.4024655818939209, 0.1358654648065567, 0.024578724056482315, 0.00739839905872941, 1.0006309747695923, -2.7902960777282715, 7.239132881164551, -0.2262529581785202, 0.0, 0.0, 0.0, 0, 0, 0, 0, 0, 0, -2.7902960777282715, 7.239132881164551, -0.2262529581785202
56690, -0.09988399595022202, 0.8081483840942383, -2.483708620071411, 0.16706165671348572, -0.18539772927761078, -0.08347909897565842, 0.026523897424340248, 0.008010653778910637, 1.00182044506073, -2.7920780181884766, 7.251636505126953, -0.22592893242835999, 0.0, 0.0, 0.0, 0, 0, 0, 0, 0, 0, -2.7920780181884766, 7.251636505126953, -0.22592893242835999
56700, -0.09951302409172058, 0.8073151111602783, -2.482189178466797, 0.10427650064229965, 0.022082684561610222, 0.10738082975149155, 0.026165885850787163, 0.0071826172061264515, 1.0007712841033936, -2.7938485145568848, 7.264148712158203, -0.22560350596904755, 0.0, 0.0, 0.0, 0, 0, 0, 0, 0, 0, -2.7938485145568848, 7.264148712158203, -0.22560350596904755
56710, -0.09905649721622467, 0.8059700727462769, -2.4795358180999756, -0.06316834688186646, -0.08307135105133057, -0.0754171833395958, 0.024369824677705765, 0.00912601687014103, 0.9990589022636414, -2.795607328414917, 7.276669502258301, -0.22527684271335602, 0.0, 0.0, 0.0, 0, 0, 0, 0, 0, 0, -2.795607328414917, 7.276669502258301, -0.22527684271335602
56720, -0.09907984733581543, 0.8054558038711548, -2.4781806468963623, -0.13858084380626678, 0.209541454911232, 0.1988803595304489, 0.02429797314107418, 0.009653618559241295, 1.0020614862442017, -2.7973556518554688, 7.2891998291015625, -0.2249498963356018, 0.0, 0.0, 0.0, 0, 0, 0, 0, 0, 0, -2.7973556518554688, 7.2891998291015625, -0.2249498963356018
56730, -0.10017348825931549, 0.8021348118782043, -2.475698947906494, 0.08619825541973114, -0.10773957520723343, -0.05812475085258484, 0.025360623374581337, 0.009113602340221405, 1.0016623735427856, -2.799093723297119, 7.301741123199463, -0.2246217429637909, 0.0, 0.0, 0.0, 0, 0, 0, 0, 0, 0, -2.799093723297119, 7.301741123199463, -0.2246217429637909
56740, -0.09945029020309448, 0.8020661473274231, -2.473928451538086, -0.024452537298202515, -0.14515645802021027, 0.08790988475084305, 0.025418860837817192, 0.0068282498978078365, 0.9989197254180908, -2.80082106590271, 7.3142924308776855, -0.22429189085960388, 0.0, 0.0, 0.0, 0, 0, 0, 0, 0, 0, -2.80082106590271, 7.3142924308776855, -0.22429189085960388
56750, -0.09970954060554504, 0.8015328049659729, -2.471564292907715, -0.09889772534370422, 0.027796007692813873, 0.19206172227859497, 0.023148950189352036, 0.005583419464528561, 0.9989955425262451, -2.802537679672241, 7.326851844787598, -0.22396178543567657, 0.0, 0.0, 0.0, 0, 0, 0, 0, 0, 0, -2.802537679672241, 7.326851844787598, -0.22396178543567657
56760, -0.10043241083621979, 0.7990491986274719, -2.4675514698028564, -0.1898428052663803, 0.3316989839076996, 0.2632479965686798, 0.023816578090190887, 0.009371875785291195, 0.9997574687004089, -2.8042445182800293, 7.339418888092041, -0.223632350564003, 0.0, 0.0, 0.0, 0, 0, 0, 0, 0, 0, -2.8042445182800293, 7.339418888092041, -0.223632350564003
56770, -0.1016562432050705, 0.797104001045227, -2.4655723571777344, 0.037885911762714386, 0.32223379611968994, -0.16564257442951202, 0.024364884942770004, 0.008296649903059006, 1.0009281635284424, -2.8059420585632324, 7.35199499130249, -0.22330276668071747, 0.0, 0.0, 0.0, 0, 0, 0, 0, 0, 0, -2.8059420585632324, 7.35199499130249, -0.22330276668071747
56780, -0.10131075978279114, 0.793647050857544, -2.4624016284942627, 0.05639908090233803, -0.13515004515647888, 0.015064436011016369, 0.02673671580851078, 0.007003470323979855, 1.0015239715576172, -2.8076295852661133, 7.3645806312561035, -0.22297202050685883, 0.0, 0.0, 0.0, 0, 0, 0, 0, 0, 0, -2.8076295852661133, 7.3645806312561035, -0.22297202050685883
56790, -0.10099468380212784, 0.793836772441864, -2.460515260696411, 0.038268666714429855, -0.0684579387307167, 0.11837466806173325, 0.025579433888196945, 0.008170360699295998, 1.001327395439148, -2.8093056678771973, 7.3771748542785645, -0.22263982892036438, 0.0, 0.0, 0.0, 0, 0, 0, 0, 0, 0, -2.8093056678771973, 7.3771748542785645, -0.22263982892036438
56800, -0.10046448558568954, 0.7930889129638672, -2.4566190242767334, -0.16258378326892853, 0.22292765974998474, 0.11848875880241394, 0.02552361600100994, 0.008595220744609833, 1.002621054649353, -2.8109703063964844, 7.389777660369873, -0.22230590879917145, 0.0, 0.0, 0.0, 0, 0, 0, 0, 0, 0, -2.8109703063964844, 7.389777660369873, -0.22230590879917145
56810, -0.10124737024307251, 0.792771577835083, -2.453758478164673, -0.08864762634038925, -0.3087277114391327, -0.10721591114997864, 0.02588643692433834, 0.008605209179222584, 1.0013000965118408, -2.8126232624053955, 7.4023895263671875, -0.2219696342945099, 0.0, 0.0, 0.0, 0, 0, 0, 0, 0, 0, -2.8126232624053955, 7.4023895263671875, -0.2219696342945099
56820, -0.10043039917945862, 0.7944315075874329, -2.451241970062256, 0.09478245675563812, 0.28869959712028503, 0.2127784937620163, 0.025951186195015907, 0.008921332657337189, 1.0007352828979492, -2.8142645359039307, 7.415010929107666, -0.22163119912147522, 0.0, 0.0, 0.0, 0, 0, 0, 0, 0, 0, -2.8142645359039307, 7.415010929107666, -0.22163119912147522
56830, -0.10080266743898392, 0.7924983501434326, -2.4485225677490234, 0.012937355786561966, -0.08329403400421143, -0.029300613328814507, 0.02478010207414627, 0.008953983895480633, 1.0015454292297363, -2.81589412689209, 7.427642345428467, -0.22129149734973907, 0.0, 0.0, 0.0, 0, 0, 0, 0, 0, 0, -2.81589412689209, 7.427642345428467, -0.22129149734973907
56840, -0.10028775781393051, 0.7922039031982422, -2.4461135864257812, -0.11481796205043793, 0.05506959185004234, 0.08687826991081238, 0.02475244365632534, 0.008560983464121819, 1.0019134283065796, -2.8175125122070312, 7.44028377532959, -0.22095033526420593, 0.0, 0.0, 0.0, 0, 0, 0, 0, 0, 0, -2.8175125122070312, 7.44028377532959, -0.22095033526420593
56850, -0.10058972984552383, 0.7905483841896057, -2.4433085918426514, -0.07682394981384277, 0.10192538052797318, -0.11966944485902786, 0.024296101182699203, 0.007981427013874054, 1.0002745389938354, -2.8191206455230713, 7.452934741973877, -0.22060728073120117, 0.0, 0.0, 0.0, 0, 0, 0, 0, 0, 0, -2.8191206455230713, 7.452934741973877, -0.22060728073120117
56860, -0.1004413589835167, 0.7884520888328552, -2.441531181335449, -0.011846880428493023, 0.05995761230587959, 0.21322117745876312, 0.02441859245300293, 0.006904330104589462, 1.0022189617156982, -2.82071852684021, 7.46559476852417, -0.22026292979717255, 0.0, 0.0, 0.0, 0, 0, 0, 0, 0, 0, -2.82071852684021, 7.46559476852417, -0.22026292979717255
56870, -0.10043369233608246, 0.7884883880615234, -2.440446615219116, 0.1321168690919876, -0.09441952407360077, -0.01608670875430107, 0.02585003897547722, 0.008890150114893913, 1.0009996891021729, -2.8223061561584473, 7.478262901306152, -0.21991701424121857, 0.0, 0.0, 0.0, 0, 0, 0, 0, 0, 0, -2.8223061561584473, 7.478262901306152, -0.21991701424121857
56880, -0.10050418227910995, 0.7865243554115295, -2.437129497528076, -0.1737772822380066, 0.04100139066576958, -0.2448185384273529, 0.026129448786377907, 0.0073931957595050335, 1.0011075735092163, -2.823882579803467, 7.490940093994141, -0.21956941485404968, 0.0, 0.0, 0.0, 0, 0, 0, 0, 0, 0, -2.823882579803467, 7.490940093994141, -0.21956941485404968
56890, -0.10128191858530045, 0.7840213179588318, -2.4353084564208984, 0.03245190158486366, 0.0904729813337326, 0.03244128078222275, 0.02475690469145775, 0.009478354826569557, 1.001198172569275, -2.8254473209381104, 7.503626823425293, -0.21922072768211365, 0.0, 0.0, 0.0, 0, 0, 0, 0, 0, 0, -2.8254473209381104, 7.503626823425293, -0.21922072768211365
56900, -0.10135845839977264, 0.7829017639160156, -2.433422803878784, 0.16039033234119415, -0.120852030813694, 0.14335033297538757, 0.028352616354823112, 0.008504189550876617, 1.001756191253662, -2.827000379562378, 7.516323089599609, -0.21887058019638062, 0.0, 0.0, 0.0, 0, 0, 0, 0, 0, 0, -2.827000379562378, 7.516323089599609, -0.21887058019638062
56910, -0.10073032975196838, 0.7842695713043213, -2.431332588195801, 0.09191278368234634, -0.12355564534664154, 0.20865261554718018, 0.026721633970737457, 0.00705116568133235, 1.0011037588119507, -2.828540802001953, 7.529029369354248, -0.2185186743736267, 0.0, 0.0, 0.0, 0, 0, 0, 0, 0, 0, -2.828540802001953, 7.529029369354248, -0.2185186743736267
56920, -0.09982996433973312, 0.7844715118408203, -2.4283950328826904, 0.12443823367357254, -0.09571192413568497, 0.054861292243003845, 0.02618277445435524, 0.007162490393966436, 1.0004637241363525, -2.8300681114196777, 7.541743755340576, -0.21816504001617432, 0.0, 0.0, 0.0, 0, 0, 0, 0, 0, 0, -2.8300681114196777, 7.541743755340576, -0.21816504001617432
56930, -0.09884811192750931, 0.7842101454734802, -2.426435708999634, -0.0802045464515686, -0.012702367268502712, 0.05069573596119881, 0.024755172431468964, 0.0064135706052184105, 0.9984135627746582, -2.831583261489868, 7.5544657707214355, -0.2178107053041458, 0.0, 0.0, 0.0, 0, 0, 0, 0, 0, 0, -2.831583261489868, 7.5544657707214355, -0.2178107053041458
56940, -0.098897784948349, 0.7815496325492859, -2.4235854148864746, -0.14817927777767181, -0.04960263520479202, -0.134754478931427, 0.025267602875828743, 0.009841110557317734, 0.9990617036819458, -2.833087205886841, 7.567195892333984, -0.21745702624320984, 0.0, 0.0, 0.0, 0, 0, 0, 0, 0, 0, -2.833087205886841, 7.567195892333984, -0.21745702624320984
56950, -0.09968811273574829, 0.7809311747550964, -2.4215199947357178, 0.13548880815505981, -0.06760503351688385, 0.15183311700820923, 0.024008318781852722, 0.009376957081258297, 1.0027958154678345, -2.834580183029175, 7.579935550689697, -0.21710385382175446, 0.0, 0.0, 0.0, 0, 0, 0, 0, 0, 0, -2.834580183029175, 7.579935550689697, -0.21710385382175446
56960, -0.09917585551738739, 0.7795814871788025, -2.4183430671691895, -0.08392167091369629, 0.22809191048145294, -0.03376501426100731, 0.024970751255750656, 0.0075655048713088036, 0.9997638463973999, -2.83606219291687, 7.592685699462891, -0.21674944460391998, 0.0, 0.0, 0.0, 0, 0, 0, 0, 0, 0, -2.83606219291687, 7.592685699462891, -0.21674944460391998
56970, -0.09973394870758057, 0.77641761302948, -2.415565013885498, -0.1792360097169876, 0.2820603847503662, -0.16870374977588654, 0.02661486156284809, 0.009004497900605202, 1.000113844871521, -2.837533473968506, 7.60544490814209, -0.21639379858970642, 0.0, 0.0, 0.0, 0, 0, 0, 0, 0, 0, -2.837533473968506, 7.60544490814209, -0.21639379858970642
56980, -0.1005801260471344, 0.7748734354972839, -2.4136478900909424, -0.0714782252907753, 0.001434994745068252, 0.04493796080350876, 0.02690085582435131, 0.009128926321864128, 1.0015485286712646, -2.8389925956726074, 7.618213653564453, -0.21603798866271973, 0.0, 0.0, 0.0, 0, 0, 0, 0, 0, 0, -2.8389925956726074, 7.618213653564453, -0.21603798866271973
56990, -0.10141615569591522, 0.7740907073020935, -2.41055965423584, 0.013640695251524448, 0.01796734891831875, -0.16940386593341827, 0.02294950559735298, 0.00818698201328516, 1.002274513244629, -2.8404393196105957, 7.630992412567139, -0.2156810313463211, 0.0, 0.0, 0.0, 0, 0, 0, 0, 0, 0, -2.8404393196105957, 7.630992412567139, -0.2156810313463211
57000, -0.10019848495721817, 0.773520827293396, -2.4094834327697754, -0.049114324152469635, 0.2986002564430237, 0.12171567976474762, 0.022768758237361908, 0.005869862623512745, 1.0019290447235107, -2.8418757915496826, 7.643780708312988, -0.2153216451406479, 0.0, 0.0, 0.0, 0, 0, 0, 0, 0, 0, -2.8418757915496826, 7.643780708312988, -0.2153216451406479
57010, -0.10001568496227264, 0.7713419795036316, -2.40663480758667, -0.033797819167375565, -0.12048720568418503, -0.03226670250296593, 0.023324748501181602, 0.008735409937798977, 1.0024179220199585, -2.8433032035827637, 7.656577110290527, -0.2149597555398941, 0.0, 0.0, 0.0, 0, 0, 0, 0, 0, 0, -2.8433032035827637, 7.656577110290527, -0.2149597555398941
57020, -0.1004980057477951, 0.7699325084686279, -2.4040327072143555, -0.048095785081386566, 0.10703779011964798, 0.02279231697320938, 0.022277694195508957, 0.01043777633458376, 1.0018303394317627, -2.844721555709839, 7.669382572174072, -0.21459542214870453, 0.0, 0.0, 0.0, 0, 0, 0, 0, 0, 0, -2.844721555709839, 7.669382572174072, -0.21459542214870453
57030, -0.10040467232465744, 0.7676310539245605, -2.400062322616577, 0.06845034658908844, -0.04118586331605911, -0.21433709561824799, 0.02508079633116722, 0.008474232628941536, 1.0004220008850098, -2.846130847930908, 7.682199001312256, -0.2142287790775299, 0.0, 0.0, 0.0, 0, 0, 0, 0, 0, 0, -2.846130847930908, 7.682199001312256, -0.2142287790775299
57040, -0.10021012276411057, 0.7672406435012817, -2.39936900138855, 0.02906675450503826, 0.17704418301582336, 0.11050939559936523, 0.025471478700637817, 0.00815233401954174, 0.9988172650337219, -2.8475301265716553, 7.69502592086792, -0.2138608992099762, 0.0, 0.0, 0.0, 0, 0, 0, 0, 0, 0, -2.8475301265716553, 7.69502592086792, -0.2138608992099762
57050, -0.10039042681455612, 0.7659123539924622, -2.3981289863586426, -0.11939546465873718, -0.23075340688228607, 0.019651418551802635, 0.024248549714684486, 0.006585473660379648, 1.0028399229049683, -2.8489181995391846, 7.70786190032959, -0.21349288523197174, 0.0, 0.0, 0.0, 0, 0, 0, 0, 0, 0, -2.8489181995391846, 7.70786190032959, -0.21349288523197174
57060, -0.10072769224643707, 0.7674856781959534, -2.3957290649414062, 0.044045209884643555, -0.11490696668624878, -0.08946668356657028, 0.023300932720303535, 0.006449754815548658, 1.00138258934021, -2.8502955436706543, 7.720705986022949, -0.21312370896339417, 0.0, 0.0, 0.0, 0, 0, 0, 0, 0, 0, -2.8502955436706543, 7.720705986022949, -0.21312370896339417
57070, -0.10012692958116531, 0.7658678889274597, -2.3936638832092285, -0.16355159878730774, 0.013581004925072193, 0.011686739511787891, 0.02514471299946308, 0.008155048824846745, 0.9998297691345215, -2.8516628742218018, 7.73355770111084, -0.2127525359392166, 0.0, 0.0, 0.0, 0, 0, 0, 0, 0, 0, -2.8516628742218018, 7.73355770111084, -0.2127525359392166
57080, -0.1001579537987709, 0.7669137120246887, -2.3907952308654785, -0.15898984670639038, 0.02495015412569046, 0.1698969006538391, 0.0243123397231102, 0.008929088711738586, 1.000476360321045, -2.853019952774048, 7.746417999267578, -0.21238067746162415, 0.0, 0.0, 0.0, 0, 0, 0, 0, 0, 0, -2.853019952774048, 7.746417999267578, -0.21238067746162415
57090, -0.09997528791427612, 0.7665245532989502, -2.387789011001587, -0.040393635630607605, -0.185426265001297, 0.09131129086017609, 0.026582814753055573, 0.008853725157678127, 1.0000884532928467, -2.854365825653076, 7.759287357330322, -0.2120085209608078, 0.0, 0.0, 0.0, 0, 0, 0, 0, 0, 0, -2.854365825653076, 7.759287357330322, -0.2120085209608078
57100, -0.10022236406803131, 0.7672948837280273, -2.3845314979553223, 0.06577872484922409, -0.22445540130138397, 0.06057942658662796, 0.025938112288713455, 0.0077121201902627945, 1.000264048576355, -2.8557000160217285, 7.772166728973389, -0.2116357684135437, 0.0, 0.0, 0.0, 0, 0, 0, 0, 0, 0, -2.8557000160217285, 7.772166728973389, -0.2116357684135437
57110, -0.10007484257221222, 0.7661799192428589, -2.3824713230133057, 0.016171375289559364, 0.05577889457345009, -0.02194831147789955, 0.024533668532967567, 0.0059190490283071995, 0.9995499849319458, -2.8570220470428467, 7.785055160522461, -0.21126246452331543, 0.0, 0.0, 0.0, 0, 0, 0, 0, 0, 0, -2.8570220470428467, 7.785055160522461, -0.21126246452331543
57120, -0.09969973564147949, 0.763496458530426, -2.380260944366455, 0.09744357317686081, -0.2327025830745697, -0.19061362743377686, 0.024017786607146263, 0.0088422242552042, 1.0002281665802002, -2.858332872390747, 7.797951698303223, -0.21088907122612, 0.0, 0.0, 0.0, 0, 0, 0, 0, 0, 0, -2.858332872390747, 7.797951698303223, -0.21088907122612
57130, -0.0993131771683693, 0.7632024884223938, -2.3787078857421875, -0.04570704326033592, 0.09181982278823853, -0.11867178231477737, 0.023195786401629448, 0.00813430268317461, 0.9998037815093994, -2.859633445739746, 7.810856819152832, -0.2105156034231186, 0.0, 0.0, 0.0, 0, 0, 0, 0, 0, 0, -2.859633445739746, 7.810856819152832, -0.2105156034231186
57140, -0.09938856214284897, 0.7607529759407043, -2.376574993133545, 0.02784104458987713, 0.0006141364574432373, -0.06726264208555222, 0.025209534913301468, 0.007696096785366535, 0.9982056021690369, -2.8609237670898438, 7.8237714767456055, -0.2101423442363739, 0.0, 0.0, 0.0, 0, 0, 0, 0, 0, 0, -2.8609237670898438, 7.8237714767456055, -0.2101423442363739
57150, -0.09797831624746323, 0.7590495944023132, -2.3742897510528564, 0.08815913647413254, 0.2122947722673416, 0.12472235411405563, 0.024494053795933723, 0.007841010577976704, 0.9989274144172668, -2.8622031211853027, 7.836694717407227, -0.20976994931697845, 0.0, 0.0, 0.0, 0, 0, 0, 0, 0, 0, -2.8622031211853027, 7.836694717407227, -0.20976994931697845
57160, -0.09768375009298325, 0.757571816444397, -2.3704397678375244, -0.04652513563632965, -0.10862475633621216, -0.06099144369363785, 0.025778964161872864, 0.008321085944771767, 1.0018314123153687, -2.863471269607544, 7.8496270179748535, -0.20939794182777405, 0.0, 0.0, 0.0, 0, 0, 0, 0, 0, 0, -2.863471269607544, 7.8496270179748535, -0.20939794182777405
57170, -0.09840421378612518, 0.7587063312530518, -2.3689019680023193, -0.07268601655960083, 0.07636771351099014, -0.00013915388262830675, 0.024049323052167892, 0.008760371245443821, 0.9999138712882996, -2.864727735519409, 7.8625688552856445, -0.20902514457702637, 0.0, 0.0, 0.0, 0, 0, 0, 0, 0, 0, -2.864727735519409, 7.8625688552856445, -0.20902514457702637
57180, -0.09913882613182068, 0.7579858303070068, -2.3667311668395996, -0.15572930872440338, 0.2801841199398041, -0.21243707835674286, 0.024458549916744232, 0.009996097534894943, 0.9999746680259705, -2.8659729957580566, 7.8755202293396, -0.2086516171693802, 0.0, 0.0, 0.0, 0, 0, 0, 0, 0, 0, -2.8659729957580566, 7.8755202293396, -0.2086516171693802
57190, -0.10006692260503769, 0.7567868828773499, -2.3653292655944824, 0.18357376754283905, -0.2239205688238144, 0.30236709117889404, 0.026176726445555687, 0.011758112348616123, 1.0020323991775513, -2.8672070503234863, 7.888482570648193, -0.2082776129245758, 0.0, 0.0, 0.0, 0, 0, 0, 0, 0, 0, -2.8672070503234863, 7.888482570648193, -0.2082776129245758
57200, -0.0997343361377716, 0.7553560733795166, -2.3617801666259766, 0.007355759851634502, 0.019106291234493256, 0.2270326316356659, 0.02511216700077057, 0.009498950093984604, 1.0007811784744263, -2.868429183959961, 7.901456832885742, -0.207902193069458, 0.0, 0.0, 0.0, 0, 0, 0, 0, 0, 0, -2.868429183959961, 7.901456832885742, -0.207902193069458
57210, -0.09933420270681381, 0.755500078201294, -2.358574390411377, -0.09586305171251297, 0.22964558005332947, -0.017204102128744125, 0.02465452253818512, 0.009180659428238869, 1.0012215375900269, -2.8696396350860596, 7.914442539215088, -0.20752523839473724, 0.0, 0.0, 0.0, 0, 0, 0, 0, 0, 0, -2.8696396350860596, 7.914442539215088, -0.20752523839473724
57220, -0.09919638931751251, 0.7544894218444824, -2.3556101322174072, 0.21971853077411652, -0.02417381852865219, 0.2157471776008606, 0.025239797309041023, 0.007801779080182314, 0.9999023079872131, -2.8708386421203613, 7.927438259124756, -0.2071470022201538, 0.0, 0.0, 0.0, 0, 0, 0, 0, 0, 0, -2.8708386421203613, 7.927438259124756, -0.2071470022201538
57230, -0.09837792068719864, 0.7546557784080505, -2.353403329849243, 0.00265566841699183, -0.1569727510213852, 0.01443851925432682, 0.023522546514868736, 0.008049847558140755, 0.9995598793029785, -2.8720264434814453, 7.940443515777588, -0.2067679464817047, 0.0, 0.0, 0.0, 0, 0, 0, 0, 0, 0, -2.8720264434814453, 7.940443515777588, -0.2067679464817047
57240, -0.09763817489147186, 0.7536845207214355, -2.350389242172241, 0.1735791712999344, 0.18046541512012482, 0.07528461515903473, 0.024212181568145752, 0.008814002387225628, 1.0005629062652588, -2.8732035160064697, 7.953457832336426, -0.206388920545578, 0.0, 0.0, 0.0, 0, 0, 0, 0, 0, 0, -2.8732035160064697, 7.953457832336426, -0.206388920545578
57250, -0.09764622896909714, 0.7543227076530457, -2.3474912643432617, -0.0271756611764431, -0.12822844088077545, 0.05527917295694351, 0.025723230093717575, 0.010219701565802097, 1.0004966259002686, -2.8743698596954346, 7.966481685638428, -0.20600953698158264, 0.0, 0.0, 0.0, 0, 0, 0, 0, 0, 0, -2.8743698596954346, 7.966481685638428, -0.20600953698158264
57260, -0.09737055748701096, 0.7553057074546814, -2.345097780227661, 0.010298127308487892, -0.20694544911384583, 0.026811877265572548, 0.025893447920680046, 0.008632251992821693, 1.0006600618362427, -2.8755245208740234, 7.979516506195068, -0.20562933385372162, 0.0, 0.0, 0.0, 0, 0, 0, 0, 0, 0, -2.8755245208740234, 7.979516506195068, -0.20562933385372162
57270, -0.09676693379878998, 0.7553613185882568, -2.34255051612854, -0.10253190249204636, 0.3171723186969757, -0.1786314994096756, 0.025284629315137863, 0.009107371792197227, 0.998878538608551, -2.876666784286499, 7.992561340332031, -0.20524854958057404, 0.0, 0.0, 0.0, 0, 0, 0, 0, 0, 0, -2.876666784286499, 7.992561340332031, -0.20524854958057404
57280, -0.09780777245759964, 0.7551239132881165, -2.3414509296417236, -0.07310613989830017, -0.0083222147077322, 0.005095706321299076, 0.02533869445323944, 0.009793090634047985, 0.9991346597671509, -2.8777971267700195, 8.005616188049316, -0.20486821234226227, 0.0, 0.0, 0.0, 0, 0, 0, 0, 0, 0, -2.8777971267700195, 8.005616188049316, -0.20486821234226227
57290, -0.09730513393878937, 0.7531588077545166, -2.338812828063965, -0.10930205136537552, 0.020800825208425522, 0.0652615875005722, 0.025990819558501244, 0.008372192271053791, 1.0006144046783447, -2.878915548324585, 8.018681526184082, -0.2044885754585266, 0.0, 0.0, 0.0, 0, 0, 0, 0, 0, 0, -2.878915548324585, 8.018681526184082, -0.2044885754585266
57300, -0.09743761271238327, 0.7520531415939331, -2.3356471061706543, -0.08336935937404633, 0.022373303771018982, 0.021090950816869736, 0.026510359719395638, 0.008271660655736923, 1.0012742280960083, -2.880021572113037, 8.031756401062012, -0.20410819351673126, 0.0, 0.0, 0.0, 0, 0, 0, 0, 0, 0, -2.880021572113037, 8.031756401062012, -0.20410819351673126
57310, -0.09858338534832001, 0.751895546913147, -2.333676815032959, 0.08370579034090042, 0.0744805634021759, 0.0880589634180069, 0.026336506009101868, 0.00960763730108738, 1.000876784324646, -2.881114959716797, 8.044840812683105, -0.2037263959646225, 0.0, 0.0, 0.0, 0, 0, 0, 0, 0, 0, -2.881114959716797, 8.044840812683105, -0.2037263959646225
57320, -0.09813488274812698, 0.7499409914016724, -2.329430341720581, 0.013818926177918911, -0.0624094121158123, 0.02244008332490921, 0.02584376558661461, 0.005964519456028938, 0.9992175698280334, -2.8821957111358643, 8.057934761047363, -0.20334357023239136, 0.0, 0.0, 0.0, 0, 0, 0, 0, 0, 0, -2.8821957111358643, 8.057934761047363, -0.20334357023239136
57330, -0.09902520477771759, 0.7473644614219666, -2.325913429260254, 0.13519558310508728, 0.2529820501804352, -0.01405559666454792, 0.025927651673555374, 0.007367138285189867, 0.9993277192115784, -2.8832643032073975, 8.071037292480469, -0.20296072959899902, 0.0, 0.0, 0.0, 0, 0, 0, 0, 0, 0, -2.8832643032073975, 8.071037292480469, -0.20296072959899902
57340, -0.09792348742485046, 0.7447563409805298, -2.3235013484954834, 0.14617687463760376, 0.2278701364994049, 0.012245393358170986, 0.026306919753551483, 0.008219101466238499, 0.9991573691368103, -2.8843204975128174, 8.084147453308105, -0.2025783658027649, 0.0, 0.0, 0.0, 0, 0, 0, 0, 0, 0, -2.8843204975128174, 8.084147453308105, -0.2025783658027649
57350, -0.09852022677659988, 0.7440558671951294, -2.3216381072998047, 0.1914670318365097, 0.17562280595302582, 0.13008294999599457, 0.02361695095896721, 0.008717316202819347, 1.0010892152786255, -2.885364294052124, 8.097267150878906, -0.20219597220420837, 0.0, 0.0, 0.0, 0, 0, 0, 0, 0, 0, -2.885364294052124, 8.097267150878906, -0.20219597220420837
57360, -0.09703385084867477, 0.7428705096244812, -2.3176491260528564, 0.1958627700805664, -0.24533343315124512, -0.027047215029597282, 0.025430992245674133, 0.0070016649551689625, 1.0004962682724, -2.886396646499634, 8.110395431518555, -0.20181302726268768, 0.0, 0.0, 0.0, 0, 0, 0, 0, 0, 0, -2.886396646499634, 8.110395431518555, -0.20181302726268768
57370, -0.0964810848236084, 0.7435010671615601, -2.315687894821167, -0.10420029610395432, -0.2709794342517853, -0.1485433727502823, 0.023741863667964935, 0.008976968936622143, 0.9997923374176025, -2.8874175548553467, 8.123533248901367, -0.20142923295497894, 0.0, 0.0, 0.0, 0, 0, 0, 0, 0, 0, -2.8874175548553467, 8.123533248901367, -0.20142923295497894
57380, -0.09619957953691483, 0.7452127933502197, -2.3139212131500244, 0.04835575446486473, -0.012120448984205723, -0.14263887703418732, 0.025498932227492332, 0.007588313892483711, 0.9994292855262756, -2.888427257537842, 8.136679649353027, -0.20104515552520752, 0.0, 0.0, 0.0, 0, 0, 0, 0, 0, 0, -2.888427257537842, 8.136679649353027, -0.20104515552520752
57390, -0.09628452360630035, 0.7443267703056335, -2.312870502471924, -0.051707010716199875, 0.3590395450592041, -0.030481183901429176, 0.026215849444270134, 0.007217008154839277, 0.9995825290679932, -2.889425277709961, 8.149835586547852, -0.20066151022911072, 0.0, 0.0, 0.0, 0, 0, 0, 0, 0, 0, -2.889425277709961, 8.149835586547852, -0.20066151022911072
57400, -0.09672262519598007, 0.7417195439338684, -2.311077356338501, 0.09045477956533432, 0.5141589641571045, 0.14899511635303497, 0.02569311298429966, 0.00731244869530201, 1.0013902187347412, -2.890410900115967, 8.162999153137207, -0.20027759671211243, 0.0, 0.0, 0.0, 0, 0, 0, 0, 0, 0, -2.890410900115967, 8.162999153137207, -0.20027759671211243
57410, -0.09641839563846588, 0.7378578186035156, -2.307596445083618, -0.009796930477023125, -0.2971991002559662, -0.1532781571149826, 0.024352677166461945, 0.006512240972369909, 0.9997519850730896, -2.8913843631744385, 8.17617130279541, -0.19989262521266937, 0.0, 0.0, 0.0, 0, 0, 0, 0, 0, 0, -2.8913843631744385, 8.17617130279541, -0.19989262521266937
57420, -0.096795953810215, 0.737415611743927, -2.306145191192627, 0.2172749936580658, 0.10044830292463303, 0.13512995839118958, 0.026560915634036064, 0.00820481963455677, 0.9986034631729126, -2.892346143722534, 8.189351081848145, -0.1995072364807129, 0.0, 0.0, 0.0, 0, 0, 0, 0, 0, 0, -2.892346143722534, 8.189351081848145, -0.1995072364807129
57430, -0.09513223171234131, 0.7365712523460388, -2.3033347129821777, -0.33472874760627747, -0.1664268523454666, -0.08881913870573044, 0.026740873232483864, 0.00869949720799923, 1.000548005104065, -2.8932955265045166, 8.202539443969727, -0.19912226498126984, 0.0, 0.0, 0.0, 0, 0, 0, 0, 0, 0, -2.8932955265045166, 8.202539443969727, -0.19912226498126984
57440, -0.09638803452253342, 0.7355610132217407, -2.3006415367126465, 0.07886631786823273, 0.08458958566188812, -0.16862358152866364, 0.024823186919093132, 0.00823754072189331, 1.0019112825393677, -2.8942317962646484, 8.215737342834473, -0.19873686134815216, 0.0, 0.0, 0.0, 0, 0, 0, 0, 0, 0, -2.8942317962646484, 8.215737342834473, -0.19873686134815216
57450, -0.09596658498048782, 0.7346205711364746, -2.298663854598999, 0.008949421346187592, 0.10625381767749786, 0.24112965166568756, 0.02430201694369316, 0.006581409368664026, 1.000766396522522, -2.895155668258667, 8.228944778442383, -0.19834980368614197, 0.0, 0.0, 0.0, 0, 0, 0, 0, 0, 0, -2.895155668258667, 8.228944778442383, -0.19834980368614197
57460, -0.09508980065584183, 0.7312409281730652, -2.2957332134246826, -0.12665364146232605, 0.0653943419456482, -0.09721317142248154, 0.02550518326461315, 0.004000179003924131, 1.0012456178665161, -2.8960683345794678, 8.242159843444824, -0.1979614794254303, 0.0, 0.0, 0.0, 0, 0, 0, 0, 0, 0, -2.8960683345794678, 8.242159843444824, -0.1979614794254303
57470, -0.09583276510238647, 0.731514036655426, -2.294161319732666, -0.06416179239749908, -0.13519978523254395, -0.14824794232845306, 0.025225959718227386, 0.006846725940704346, 0.9996087551116943, -2.8969695568084717, 8.255380630493164, -0.19757221639156342, 0.0, 0.0, 0.0, 0, 0, 0, 0, 0, 0, -2.8969695568084717, 8.255380630493164, -0.19757221639156342
57480, -0.09625422954559326, 0.7301496863365173, -2.291393518447876, 0.004150981083512306, 0.015606182627379894, 0.018846644088625908, 0.02510935626924038, 0.00922991894185543, 1.0000927448272705, -2.8978588581085205, 8.268608093261719, -0.1971825212240219, 0.0, 0.0, 0.0, 0, 0, 0, 0, 0, 0, -2.8978588581085205, 8.268608093261719, -0.1971825212240219
57490, -0.09585510939359665, 0.7305915951728821, -2.288712978363037, -0.10745729506015778, -0.05822654813528061, -0.05234528332948685, 0.024704432114958763, 0.007921850308775902, 1.0005850791931152, -2.8987362384796143, 8.281845092773438, -0.19679276645183563, 0.0, 0.0, 0.0, 0, 0, 0, 0, 0, 0, -2.8987362384796143, 8.281845092773438, -0.19679276645183563
57500, -0.09628675878047943, 0.7312644124031067, -2.286391019821167, -0.11216746270656586, -0.028248941525816917, -0.10725416988134384, 0.025607164949178696, 0.00862068124115467, 1.0008938312530518, -2.899601697921753, 8.295090675354004, -0.19640208780765533, 0.0, 0.0, 0.0, 0, 0, 0, 0, 0, 0, -2.899601697921753, 8.295090675354004, -0.19640208780765533
57510, -0.09669791907072067, 0.7310394644737244, -2.284625291824341, -0.06991071254014969, 0.42279312014579773, -0.25424477458000183, 0.026270993053913116, 0.007695208303630352, 0.9974256753921509, -2.9004549980163574, 8.308345794677734, -0.19601085782051086, 0.0, 0.0, 0.0, 0, 0, 0, 0, 0, 0, -2.9004549980163574, 8.308345794677734, -0.19601085782051086
57520, -0.09704972058534622, 0.728077232837677, -2.283198118209839, 0.01878422498703003, 0.07632803171873093, -0.07539571076631546, 0.026543527841567993, 0.007150950375944376, 0.9985331892967224, -2.9012951850891113, 8.321610450744629, -0.1956205666065216, 0.0, 0.0, 0.0, 0, 0, 0, 0, 0, 0, -2.9012951850891113, 8.321610450744629, -0.1956205666065216
57530, -0.09726107120513916, 0.7261324524879456, -2.2817556858062744, -0.1503874510526657, 0.11589281260967255, -0.12461051344871521, 0.025945520028471947, 0.009033441543579102, 1.0018372535705566, -2.9021220207214355, 8.334883689880371, -0.19523130357265472, 0.0, 0.0, 0.0, 0, 0, 0, 0, 0, 0, -2.9021220207214355, 8.334883689880371, -0.19523130357265472
57540, -0.09720902889966965, 0.7254835367202759, -2.2801926136016846, -0.04811100661754608, -0.023958951234817505, -0.05064399912953377, 0.025146588683128357, 0.009313775226473808, 0.9996038675308228, -2.9029359817504883, 8.348165512084961, -0.19484145939350128, 0.0, 0.0, 0.0, 0, 0, 0, 0, 0, 0, -2.9029359817504883, 8.348165512084961, -0.19484145939350128
57550, -0.09841310232877731, 0.7255588173866272, -2.2798447608947754, -0.0322139635682106, 0.13023251295089722, -0.03699643909931183, 0.02595767192542553, 0.010869606398046017, 1.0015993118286133, -2.9037373065948486, 8.361457824707031, -0.19445061683654785, 0.0, 0.0, 0.0, 0, 0, 0, 0, 0, 0, -2.9037373065948486, 8.361457824707031, -0.19445061683654785
57560, -0.09865576773881912, 0.7224148511886597, -2.277216672897339, -0.11377260088920593, -0.03723149746656418, -0.13988780975341797, 0.02536574937403202, 0.009036843664944172, 1.0025166273117065, -2.9045259952545166, 8.374761581420898, -0.19405844807624817, 0.0, 0.0, 0.0, 0, 0, 0, 0, 0, 0, -2.9045259952545166, 8.374761581420898, -0.19405844807624817
57570, -0.09833157807588577, 0.7210512757301331, -2.27579927444458, 0.24268335103988647, 0.1255689114332199, -0.04370106756687164, 0.025036586448550224, 0.009540320374071598, 1.001461148262024, -2.9053022861480713, 8.388075828552246, -0.1936638206243515, 0.0, 0.0, 0.0, 0, 0, 0, 0, 0, 0, -2.9053022861480713, 8.388075828552246, -0.1936638206243515
57580, -0.09786321967840195, 0.720582127571106, -2.2726778984069824, -0.019591957330703735, -0.3303995132446289, 0.1598241627216339, 0.024913877248764038, 0.010299191810190678, 1.0038108825683594, -2.906066417694092, 8.401400566101074, -0.19326701760292053, 0.0, 0.0, 0.0, 0, 0, 0, 0, 0, 0, -2.906066417694092, 8.401400566101074, -0.19326701760292053
57590, -0.09800612926483154, 0.7204341292381287, -2.2698607444763184, 0.04420878738164902, 0.01938553713262081, 0.16798841953277588, 0.023523181676864624, 0.00895716156810522, 1.001525640487671, -2.9068188667297363, 8.414735794067383, -0.19286754727363586, 0.0, 0.0, 0.0, 0, 0, 0, 0, 0, 0, -2.9068188667297363, 8.414735794067383, -0.19286754727363586
57600, -0.09772979468107224, 0.7185350060462952, -2.2675509452819824, 0.0496869832277298, -0.023897262290120125, 0.12008628249168396, 0.02335561439394951, 0.00866666715592146, 1.0003986358642578, -2.907560110092163, 8.428081512451172, -0.19246545433998108, 0.0, 0.0, 0.0, 0, 0, 0, 0, 0, 0, -2.907560110092163, 8.428081512451172, -0.19246545433998108
57610, -0.09828630834817886, 0.7182179093360901, -2.265202283859253, 0.007115332409739494, -0.0030501580331474543, 0.22446438670158386, 0.02386891469359398, 0.008269498124718666, 0.9996718168258667, -2.9082908630371094, 8.441436767578125, -0.19206242263317108, 0.0, 0.0, 0.0, 0, 0, 0, 0, 0, 0, -2.9082908630371094, 8.441436767578125, -0.19206242263317108
57620, -0.09806400537490845, 0.7180819511413574, -2.262079954147339, -0.02019001916050911, -0.04144907742738724, 0.04271576926112175, 0.024332918226718903, 0.01032302901148796, 1.0008363723754883, -2.909010648727417, 8.454802513122559, -0.19165924191474915, 0.0, 0.0, 0.0, 0, 0, 0, 0, 0, 0, -2.909010648727417, 8.454802513122559, -0.19165924191474915
57630, -0.09774122387170792, 0.7175718545913696, -2.258674144744873, 0.020879806950688362, -0.009622462093830109, 0.10349460691213608, 0.025123296305537224, 0.008964627981185913, 1.001708745956421, -2.9097189903259277, 8.468178749084473, -0.19125515222549438, 0.0, 0.0, 0.0, 0, 0, 0, 0, 0, 0, -2.9097189903259277, 8.468178749084473, -0.19125515222549438
