timeTick, roll, pitch, yaw, gyroX, gyroY, gyroZ, accX, accY, accZ, stateX, stateY, stateZ, target_x, target_y, target_z, otX, otY, otZ, otRoll, otPitch, otYaw, kalX, kalY, kalZ
11919, 0.018863750621676445, -0.20227201282978058, 0.046318575739860535, 0, 0, 0, 0, 0, 0, 0, 0, 0, 0, 0, 0, 0, 0, 0, 0, 0, 0, 0, 0, 0
11929, 0.018997149541974068, -0.20111657679080963, 0.046319570392370224, 0.04406830295920372, -0.09817655384540558, 0.10676531493663788, -0.0038481620140373707, 0.00012753123883157969, 1.0000407695770264, -0.2868759036064148, -0.9255107045173645, 0.16414904594421387, 0.0, 0.0, 0.0, 0, 0, 0, 0, 0, 0, -0.28713107109069824, -0.9276698231697083, 0.16457825899124146
11939, 0.019277391955256462, -0.20122173428535461, 0.045770313590765, 0.10552039742469788, 0.1483938843011856, 0.09550537168979645, -0.0012104553170502186, 0.0001623443968128413, 1.0006099939346313, -0.28713107109069824, -0.9276698231697083, 0.16457825899124146, 0.0, 0.0, 0.0, 0, 0, 0, 0, 0, 0, -0.28738561272621155, -0.9298294186592102, 0.1650076061487198
11949, 0.019241109490394592, -0.20245839655399323, 0.04527207091450691, 0.04780540615320206, 0.07118667662143707, -0.05596961826086044, -0.004296961706131697, -0.0020679659210145473, 0.9992691278457642, -0.28738561272621155, -0.9298294186592102, 0.1650076061487198, 0.0, 0.0, 0.0, 0, 0, 0, 0, 0, 0, -0.2876395285129547, -0.931989848613739, 0.1654372364282608
11959, 0.021110517904162407, -0.20368348062038422, 0.04579664394259453, 0.17022521793842316, -0.1309792548418045, 0.2079012244939804, -0.0022997732739895582, -0.0008854691404849291, 0.9991617202758789, -0.2876395285129547, -0.931989848613739, 0.1654372364282608, 0.0, 0.0, 0.0, 0, 0, 0, 0, 0, 0, -0.2878932058811188, -0.9341520071029663, 0.16586604714393616
11969, 0.021294686943292618, -0.2029619663953781, 0.04513273015618324, 0.029637224972248077, -0.003079339861869812, -0.05233827978372574, -0.001407958217896521, -0.0005659419111907482, 1.0001293420791626, -0.2878932058811188, -0.9341520071029663, 0.16586604714393616, 0.0, 0.0, 0.0, 0, 0, 0, 0, 0, 0, -0.28814539313316345, -0.9363155364990234, 0.16629444062709808
11979, 0.02155473083257675, -0.20290395617485046, 0.04411984235048294, -0.020653318613767624, -0.18310745060443878, -0.2374897301197052, -0.002555489307269454, -0.0022065916564315557, 1.0003060102462769, -0.28814539313316345, -0.9363155364990234, 0.16629444062709808, 0.0, 0.0, 0.0, 0, 0, 0, 0, 0, 0, -0.2883957326412201, -0.9384803771972656, 0.16672328114509583
11989, 0.022110644727945328, -0.20683029294013977, 0.044201117008924484, 0.11166785657405853, 0.7017068862915039, -0.003176402999088168, -0.0036724586971104145, -0.0028918965253978968, 1.0014456510543823, -0.2883957326412201, -0.9384803771972656, 0.16672328114509583, 0.0, 0.0, 0.0, 0, 0, 0, 0, 0, 0, -0.28864535689353943, -0.9406476616859436, 0.16715261340141296
11999, 0.021931808441877365, -0.2057437002658844, 0.04387727379798889, -0.06123786047101021, -0.04661870747804642, -0.01671803742647171, -0.0028548119589686394, -0.0036177271977066994, 1.0020263195037842, -0.28864535689353943, -0.9406476616859436, 0.16715261340141296, 0.0, 0.0, 0.0, 0, 0, 0, 0, 0, 0, -0.288894921541214, -0.9428183436393738, 0.16758331656455994
12009, 0.02173217572271824, -0.20530691742897034, 0.04434764385223389, -0.053634658455848694, -0.26401183009147644, -0.08692150563001633, -0.0024391189217567444, -0.0026634251698851585, 0.9978525042533875, -0.288894921541214, -0.9428183436393738, 0.16758331656455994, 0.0, 0.0, 0.0, 0, 0, 0, 0, 0, 0, -0.2891438901424408, -0.9449927806854248, 0.16801467537879944
12019, 0.021401304751634598, -0.2052648514509201, 0.04365280643105507, 0.1242360770702362, 0.10956231504678726, -0.12182586640119553, -0.0021704616956412792, -0.002262706868350506, 0.9985533356666565, -0.2891438901424408, -0.9449927806854248, 0.16801467537879944, 0.0, 0.0, 0.0, 0, 0, 0, 0, 0, 0, -0.28939148783683777, -0.947170615196228, 0.16844481229782104
12029, 0.02012559212744236, -0.2045198678970337, 0.04319014400243759, -0.13728757202625275, -0.12401483207941055, 0.06429625302553177, -0.0013228957541286945, -0.0014625655021518469, 0.9982627630233765, -0.28939148783683777, -0.947170615196228, 0.16844481229782104, 0.0, 0.0, 0.0, 0, 0, 0, 0, 0, 0, -0.2896377146244049, -0.9493508338928223, 0.16887310147285461
12039, 0.020777160301804543, -0.20543745160102844, 0.042293731123209, -0.029045986011624336, 0.3011133670806885, -0.10405456274747849, -0.001329474151134491, 0.00030321485246531665, 0.9975670576095581, -0.2896377146244049, -0.9493508338928223, 0.16887310147285461, 0.0, 0.0, 0.0, 0, 0, 0, 0, 0, 0, -0.2898821234703064, -0.951532244682312, 0.16929979622364044
12049, 0.021111104637384415, -0.2048627883195877, 0.04337248206138611, 0.04027288407087326, 0.1399020552635193, 0.2519957423210144, -0.0022574150934815407, -0.0033843563869595528, 0.9987940788269043, -0.2898821234703064, -0.951532244682312, 0.16929979622364044, 0.0, 0.0, 0.0, 0, 0, 0, 0, 0, 0, -0.2901245057582855, -0.9537148475646973, 0.16972476243972778
12059, 0.02160998061299324, -0.2047634720802307, 0.044659629464149475, 0.1150202602148056, 0.09228843450546265, 0.15058118104934692, -0.004505115561187267, -0.004615727346390486, 0.9980742931365967, -0.2901245057582855, -0.9537148475646973, 0.16972476243972778, 0.0, 0.0, 0.0, 0, 0, 0, 0, 0, 0, -0.29036620259284973, -0.9559009075164795, 0.1701478660106659
12069, 0.021399689838290215, -0.20371976494789124, 0.0446445569396019, 0.1230355054140091, -0.015016981400549412, -0.1655997484922409, -0.0012068856740370393, -0.003074227599427104, 1.000160813331604, -0.29036620259284973, -0.9559009075164795, 0.1701478660106659, 0.0, 0.0, 0.0, 0, 0, 0, 0, 0, 0, -0.29060739278793335, -0.9580914974212646, 0.17056988179683685
12079, 0.02123875357210636, -0.2021399289369583, 0.04501980543136597, -0.12455973029136658, -0.18921764194965363, -0.056767720729112625, -0.003528377041220665, -0.0009259897633455694, 0.999714732170105, -0.29060739278793335, -0.9580914974212646, 0.17056988179683685, 0.0, 0.0, 0.0, 0, 0, 0, 0, 0, 0, -0.2908475399017334, -0.9602852463722229, 0.17099148035049438
12089, 0.021837016567587852, -0.20240511000156403, 0.044487982988357544, 0.0013953844318166375, 0.3741053342819214, -0.058504361659288406, -0.0038797068409621716, 0.0009351857588626444, 1.0012233257293701, -0.2908475399017334, -0.9602852463722229, 0.17099148035049438, 0.0, 0.0, 0.0, 0, 0, 0, 0, 0, 0, -0.29108738899230957, -0.9624802470207214, 0.1714133471250534
12099, 0.022400852292776108, -0.20240764319896698, 0.04325873777270317, 0.060861267149448395, -0.07457536458969116, -0.0359664186835289, -0.0022483556531369686, 0.00037401492591015995, 1.0015603303909302, -0.29108738899230957, -0.9624802470207214, 0.1714133471250534, 0.0, 0.0, 0.0, 0, 0, 0, 0, 0, 0, -0.2913270890712738, -0.9646751284599304, 0.17183639109134674
12109, 0.02345779351890087, -0.20198433101177216, 0.043510135263204575, 0.04444592073559761, -0.049158986657857895, -0.10133865475654602, -0.000989830121397972, 0.0004733582609333098, 0.9995777606964111, -0.2913270890712738, -0.9646751284599304, 0.17183639109134674, 0.0, 0.0, 0.0, 0, 0, 0, 0, 0, 0, -0.29156559705734253, -0.9668698906898499, 0.17226019501686096
12119, 0.02387448586523533, -0.20134221017360687, 0.04285413771867752, 0.04503734037280083, 0.1855650544166565, 0.01013980247080326, -0.0031634075567126274, -0.0025779714342206717, 1.002109408378601, -0.29156559705734253, -0.9668698906898499, 0.17226019501686096, 0.0, 0.0, 0.0, 0, 0, 0, 0, 0, 0, -0.29180270433425903, -0.9690658450126648, 0.17268478870391846
12129, 0.02343801036477089, -0.20153231918811798, 0.04322370886802673, -0.09059756994247437, -0.08562164008617401, 0.17592157423496246, -0.0036217274609953165, -0.0016794324619695544, 0.9999151229858398, -0.29180270433425903, -0.9690658450126648, 0.17268478870391846, 0.0, 0.0, 0.0, 0, 0, 0, 0, 0, 0, -0.2920396625995636, -0.9712642431259155, 0.1731102168560028
12139, 0.02475089579820633, -0.19909702241420746, 0.04285362735390663, 0.21838949620723724, -0.24250122904777527, -0.03561936318874359, -0.002572454046458006, -0.0012271549785509706, 0.9993845224380493, -0.2920396625995636, -0.9712642431259155, 0.1731102168560028, 0.0, 0.0, 0.0, 0, 0, 0, 0, 0, 0, -0.2922763526439667, -0.9734647870063782, 0.17353558540344238
12149, 0.02451477013528347, -0.20061548054218292, 0.04306011274456978, 0.10765894502401352, 0.15371854603290558, 0.04212324693799019, -0.0036831072065979242, -0.0028229113668203354, 0.9986488223075867, -0.2922763526439667, -0.9734647870063782, 0.17353558540344238, 0.0, 0.0, 0.0, 0, 0, 0, 0, 0, 0, -0.2925126850605011, -0.9756671786308289, 0.17396032810211182
12159, 0.02496466040611267, -0.1992259919643402, 0.042812298983335495, -0.014802283607423306, -0.31397923827171326, -0.13086991012096405, -0.0027561152819544077, -0.002951613161712885, 0.9988731145858765, -0.2925126850605011, -0.9756671786308289, 0.17396032810211182, 0.0, 0.0, 0.0, 0, 0, 0, 0, 0, 0, -0.2927487790584564, -0.9778722524642944, 0.1743839681148529
12169, 0.025630515068769455, -0.20008403062820435, 0.041959844529628754, -0.017817731946706772, 0.17118866741657257, -0.192752867937088, -0.0016707517206668854, -0.0026169961784034967, 1.0010428428649902, -0.2927487790584564, -0.9778722524642944, 0.1743839681148529, 0.0, 0.0, 0.0, 0, 0, 0, 0, 0, 0, -0.29298368096351624, -0.980080783367157, 0.17480728030204773
12179, 0.02667539194226265, -0.20012561976909637, 0.042038045823574066, 0.11375630646944046, -0.13722489774227142, 0.014540217816829681, -0.0036202888004481792, -0.0015565631911158562, 1.000394344329834, -0.29298368096351624, -0.980080783367157, 0.17480728030204773, 0.0, 0.0, 0.0, 0, 0, 0, 0, 0, 0, -0.29321756958961487, -0.9822923541069031, 0.17523087561130524
12189, 0.0273443590849638, -0.19974438846111298, 0.04236189275979996, 0.18318629264831543, 0.04032774642109871, -0.03238353505730629, -0.001069893129169941, -0.0037689933087676764, 1.0020877122879028, -0.29321756958961487, -0.9822923541069031, 0.17523087561130524, 0.0, 0.0, 0.0, 0, 0, 0, 0, 0, 0, -0.29345062375068665, -0.9845067858695984, 0.17565523087978363
12199, 0.02692890353500843, -0.19946226477622986, 0.04213832691311836, 0.079218789935112, -0.056440144777297974, 0.02834245376288891, -0.0027631635311990976, -0.0027292876038700342, 1.0028413534164429, -0.29345062375068665, -0.9845067858695984, 0.17565523087978363, 0.0, 0.0, 0.0, 0, 0, 0, 0, 0, 0, -0.29368269443511963, -0.9867249727249146, 0.1760816127061844
12209, 0.02700992301106453, -0.20135395228862762, 0.04259512573480606, 0.0019092438742518425, -0.045037586241960526, -0.10708432644605637, -0.0021851821802556515, -0.0006025498150847852, 1.0008810758590698, -0.29368269443511963, -0.9867249727249146, 0.1760816127061844, 0.0, 0.0, 0.0, 0, 0, 0, 0, 0, 0, -0.29391372203826904, -0.9889461398124695, 0.17651008069515228
12219, 0.027270257472991943, -0.20080968737602234, 0.04270188510417938, 0.1894562989473343, 0.07047625631093979, 0.058864280581474304, -0.0015250352444127202, -0.00016527246043551713, 1.0015705823898315, -0.29391372203826904, -0.9889461398124695, 0.17651008069515228, 0.0, 0.0, 0.0, 0, 0, 0, 0, 0, 0, -0.29414328932762146, -0.9911684989929199, 0.17693984508514404
12229, 0.027290524914860725, -0.20440183579921722, 0.04196757823228836, -0.11018446832895279, 0.39606812596321106, 0.09263332188129425, -0.0004929117276333272, -0.0024199646431952715, 1.0016499757766724, -0.29414328932762146, -0.9911684989929199, 0.17693984508514404, 0.0, 0.0, 0.0, 0, 0, 0, 0, 0, 0, -0.29437050223350525, -0.9933923482894897, 0.1773708611726761
12239, 0.027427472174167633, -0.20434686541557312, 0.04119542986154556, -0.04103919491171837, -0.09309353679418564, -0.012566057965159416, -0.00214972672984004, -0.00313937128521502, 0.999098002910614, -0.29437050223350525, -0.9933923482894897, 0.1773708611726761, 0.0, 0.0, 0.0, 0, 0, 0, 0, 0, 0, -0.2945951521396637, -0.9956189393997192, 0.1778029352426529
12249, 0.026288559660315514, -0.20393966138362885, 0.041930075734853745, -0.003963361494243145, -0.1667548269033432, -0.026380185037851334, -0.0010826759971678257, -0.0022870637476444244, 0.9999713897705078, -0.2945951521396637, -0.9956189393997192, 0.1778029352426529, 0.0, 0.0, 0.0, 0, 0, 0, 0, 0, 0, -0.29481804370880127, -0.9978487491607666, 0.17823496460914612
12259, 0.02561143785715103, -0.20541949570178986, 0.0408838726580143, -0.1511283665895462, -0.04644925519824028, -0.23884651064872742, -0.003675834508612752, -0.0021357957739382982, 1.0012072324752808, -0.29481804370880127, -0.9978487491607666, 0.17823496460914612, 0.0, 0.0, 0.0, 0, 0, 0, 0, 0, 0, -0.2950396239757538, -1.0000814199447632, 0.17866705358028412
12269, 0.02634035237133503, -0.20451176166534424, 0.03984557092189789, 0.015149359591305256, 0.074304960668087, -0.14056506752967834, -0.0007497907499782741, -0.00450001610442996, 1.0019915103912354, -0.2950396239757538, -1.0000814199447632, 0.17866705358028412, 0.0, 0.0, 0.0, 0, 0, 0, 0, 0, 0, -0.29525986313819885, -1.0023174285888672, 0.17910081148147583
12279, 0.026273146271705627, -0.20363077521324158, 0.04041982442140579, -0.034811198711395264, -0.12874695658683777, 0.17995226383209229, -0.003200884908437729, -0.0011947547318413854, 1.0006183385849, -0.29525986313819885, -1.0023174285888672, 0.17910081148147583, 0.0, 0.0, 0.0, 0, 0, 0, 0, 0, 0, -0.2954787015914917, -1.0045568943023682, 0.1795358806848526
12289, 0.026585284620523453, -0.20224124193191528, 0.040815096348524094, -0.1628517210483551, -0.1364712119102478, -0.07847757637500763, -0.0028794961981475353, -0.0010371197713539004, 1.001916527748108, -0.2954787015914917, -1.0045568943023682, 0.1795358806848526, 0.0, 0.0, 0.0, 0, 0, 0, 0, 0, 0, -0.29569655656814575, -1.0067983865737915, 0.17997224628925323
12299, 0.026056598871946335, -0.2012397050857544, 0.040621232241392136, -0.1583825945854187, -0.13233983516693115, -0.058428023010492325, -0.0028034865390509367, -0.0026210385840386152, 1.000856876373291, -0.29569655656814575, -1.0067983865737915, 0.17997224628925323, 0.0, 0.0, 0.0, 0, 0, 0, 0, 0, 0, -0.2959136962890625, -1.009041666984558, 0.1804104447364807
12309, 0.02606244385242462, -0.20167545974254608, 0.04146690294146538, -0.010956126265227795, 0.010931107215583324, 0.17489883303642273, -0.0032682595774531364, -0.0034142998047173023, 0.9997972249984741, -0.2959136962890625, -1.009041666984558, 0.1804104447364807, 0.0, 0.0, 0.0, 0, 0, 0, 0, 0, 0, -0.2961302399635315, -1.011288046836853, 0.180849090218544
12319, 0.025647304952144623, -0.2030482292175293, 0.04207472503185272, -0.0349741205573082, 0.20986787974834442, 0.059048302471637726, -0.002565448870882392, -0.0032992293126881123, 1.0032424926757812, -0.2961302399635315, -1.011288046836853, 0.180849090218544, 0.0, 0.0, 0.0, 0, 0, 0, 0, 0, 0, -0.2963463366031647, -1.0135382413864136, 0.1812886744737625
12329, 0.026798294857144356, -0.20310238003730774, 0.04283462092280388, 0.08172589540481567, -0.17853213846683502, 0.13568787276744843, -0.0029991604387760162, -0.003243381157517433, 1.003330945968628, -0.2963463366031647, -1.0135382413864136, 0.1812886744737625, 0.0, 0.0, 0.0, 0, 0, 0, 0, 0, 0, -0.2965618371963501, -1.0157922506332397, 0.18173089623451233
12339, 0.028096258640289307, -0.2035941779613495, 0.041401445865631104, 0.17242124676704407, 0.2643578350543976, -0.04298067092895508, -0.0021838638931512833, -0.00245648087002337, 1.0018972158432007, -0.2965618371963501, -1.0157922506332397, 0.18173089623451233, 0.0, 0.0, 0.0, 0, 0, 0, 0, 0, 0, -0.29677650332450867, -1.018049716949463, 0.18217600882053375
12349, 0.027948487550020218, -0.20334796607494354, 0.041828643530607224, -0.003967438358813524, -0.05714079365134239, -0.1506117731332779, -0.0044040074571967125, -0.0022244914434850216, 1.0018097162246704, -0.29677650332450867, -1.018049716949463, 0.18217600882053375, 0.0, 0.0, 0.0, 0, 0, 0, 0, 0, 0, -0.29699042439460754, -1.0203100442886353, 0.18262329697608948
12359, 0.028713323175907135, -0.2018546164035797, 0.04032301902770996, -0.09518150240182877, -0.19118419289588928, -0.3478531539440155, -1.9298515780974412e-06, -0.002294674515724182, 1.0006837844848633, -0.29699042439460754, -1.0203100442886353, 0.18262329697608948, 0.0, 0.0, 0.0, 0, 0, 0, 0, 0, 0, -0.29720330238342285, -1.0225728750228882, 0.18307195603847504
12369, 0.028707196936011314, -0.20069944858551025, 0.040038060396909714, 0.03488938510417938, -0.22843743860721588, -0.1918918639421463, -0.0004479722701944411, -0.0043634227477014065, 1.0021008253097534, -0.29720330238342285, -1.0225728750228882, 0.18307195603847504, 0.0, 0.0, 0.0, 0, 0, 0, 0, 0, 0, -0.2974139153957367, -1.024838924407959, 0.18352222442626953
12379, 0.027763675898313522, -0.201845183968544, 0.039717935025691986, -0.11796705424785614, 0.2809641659259796, 0.09365417063236237, -0.0015357229858636856, -0.0031439249869436026, 1.0005779266357422, -0.2974139153957367, -1.024838924407959, 0.18352222442626953, 0.0, 0.0, 0.0, 0, 0, 0, 0, 0, 0, -0.29762187600135803, -1.027108907699585, 0.18397392332553864
12389, 0.02879440225660801, -0.20281009376049042, 0.03980885446071625, 0.1827225387096405, 0.11424598842859268, 0.16010735929012299, -0.0013850294053554535, -0.004017641767859459, 0.9987229108810425, -0.29762187600135803, -1.027108907699585, 0.18397392332553864, 0.0, 0.0, 0.0, 0, 0, 0, 0, 0, 0, -0.2978278696537018, -1.0293828248977661, 0.18442639708518982
12399, 0.027478210628032684, -0.20254552364349365, 0.03972717747092247, -0.22719337046146393, 0.04792176932096481, -0.09039688110351562, 0.0013720946153625846, -0.0014099605614319444, 0.999832272529602, -0.2978278696537018, -1.0293828248977661, 0.18442639708518982, 0.0, 0.0, 0.0, 0, 0, 0, 0, 0, 0, -0.2980313003063202, -1.0316604375839233, 0.18487846851348877
12409, 0.028271805495023727, -0.2009485512971878, 0.03880060836672783, -0.08022701740264893, -0.18340204656124115, 0.0910801887512207, -0.0007807431975379586, -0.001739758299663663, 0.9995074272155762, -0.2980313003063202, -1.0316604375839233, 0.18487846851348877, 0.0, 0.0, 0.0, 0, 0, 0, 0, 0, 0, -0.29823124408721924, -1.0339404344558716, 0.18532966077327728
12419, 0.028726760298013687, -0.20212984085083008, 0.038526926189661026, 0.13309819996356964, 0.2607365846633911, -0.008184339851140976, -0.00034644699189811945, -0.003358806949108839, 1.0008915662765503, -0.29823124408721924, -1.0339404344558716, 0.18532966077327728, 0.0, 0.0, 0.0, 0, 0, 0, 0, 0, 0, -0.2984280586242676, -1.0362229347229004, 0.18578097224235535
12429, 0.028844524174928665, -0.20165351033210754, 0.0389716662466526, -0.00686072651296854, -0.06474482268095016, 0.16573163866996765, -0.0026171342469751835, -0.0033144832123070955, 1.0015400648117065, -0.2984280586242676, -1.0362229347229004, 0.18578097224235535, 0.0, 0.0, 0.0, 0, 0, 0, 0, 0, 0, -0.2986227571964264, -1.0385092496871948, 0.18623273074626923
12439, 0.02920781821012497, -0.2031581997871399, 0.039430856704711914, 0.09486353397369385, 0.20319890975952148, -0.09747878462076187, -0.0044268355704844, -0.0024991496466100216, 1.0009822845458984, -0.2986227571964264, -1.0385092496871948, 0.18623273074626923, 0.0, 0.0, 0.0, 0, 0, 0, 0, 0, 0, -0.2988165616989136, -1.0407991409301758, 0.18668587505817413
12449, 0.027714693918824196, -0.20503677427768707, 0.039462607353925705, -0.17645536363124847, 0.29456424713134766, 0.12388458847999573, -0.0031475245486944914, -0.002032260177657008, 1.0005197525024414, -0.2988165616989136, -1.0407991409301758, 0.18668587505817413, 0.0, 0.0, 0.0, 0, 0, 0, 0, 0, 0, -0.2990107834339142, -1.043091893196106, 0.18714001774787903
12459, 0.027124814689159393, -0.20498758554458618, 0.0397324375808239, -0.08268234133720398, 0.035436637699604034, 0.07933945953845978, -0.00020943327399436384, -0.004309800919145346, 1.002578616142273, -0.2990107834339142, -1.043091893196106, 0.18714001774787903, 0.0, 0.0, 0.0, 0, 0, 0, 0, 0, 0, -0.2992040812969208, -1.045388102531433, 0.1875949203968048
12469, 0.0273955836892128, -0.2074539214372635, 0.03979429230093956, 0.1747773140668869, 0.3307633697986603, 0.0709541067481041, -0.0007480388158001006, -0.0028167027048766613, 1.001135230064392, -0.2992040812969208, -1.045388102531433, 0.1875949203968048, 0.0, 0.0, 0.0, 0, 0, 0, 0, 0, 0, -0.2993944585323334, -1.0476881265640259, 0.18805205821990967
12479, 0.027568744495511055, -0.20838014781475067, 0.03982849046587944, -0.1576610803604126, -0.001037495443597436, -0.010935073718428612, -0.001854808651842177, -0.0030239506158977747, 1.000104546546936, -0.2993944585323334, -1.0476881265640259, 0.18805205821990967, 0.0, 0.0, 0.0, 0, 0, 0, 0, 0, 0, -0.29958218336105347, -1.0499917268753052, 0.18851034343242645
12489, 0.028148692101240158, -0.20856283605098724, 0.039003077894449234, -0.008827390149235725, -0.010920343920588493, -0.207899808883667, -0.0037867401260882616, -0.002541878493502736, 1.0018006563186646, -0.29958218336105347, -1.0499917268753052, 0.18851034343242645, 0.0, 0.0, 0.0, 0, 0, 0, 0, 0, 0, -0.29976850748062134, -1.0522987842559814, 0.18896928429603577
12499, 0.027534760534763336, -0.20891478657722473, 0.0385616272687912, -0.15243136882781982, 0.17946474254131317, -0.009820173494517803, -0.0009329367894679308, -0.0010931901633739471, 1.0026448965072632, -0.29976850748062134, -1.0522987842559814, 0.18896928429603577, 0.0, 0.0, 0.0, 0, 0, 0, 0, 0, 0, -0.29995420575141907, -1.0546083450317383, 0.18943004310131073
12509, 0.027850795537233353, -0.2086196094751358, 0.036610640585422516, -0.04842405393719673, -0.06275555491447449, -0.31543657183647156, -0.0008976394892670214, -0.0021137564908713102, 0.999680757522583, -0.29995420575141907, -1.0546083450317383, 0.18943004310131073, 0.0, 0.0, 0.0, 0, 0, 0, 0, 0, 0, -0.30013778805732727, -1.056919813156128, 0.18989214301109314
12519, 0.028309494256973267, -0.20899878442287445, 0.03783077001571655, 0.05839737132191658, 0.09298113733530045, 0.20410852134227753, 2.7463351216283627e-05, -0.005582999438047409, 1.001946210861206, -0.30013778805732727, -1.056919813156128, 0.18989214301109314, 0.0, 0.0, 0.0, 0, 0, 0, 0, 0, 0, -0.3003181219100952, -1.0592347383499146, 0.1903553605079651
12529, 0.02796093188226223, -0.21120867133140564, 0.03850381448864937, -0.010029462166130543, 0.03951588273048401, -0.0645517036318779, -0.0023172316141426563, -0.004178094677627087, 1.0007514953613281, -0.3003181219100952, -1.0592347383499146, 0.1903553605079651, 0.0, 0.0, 0.0, 0, 0, 0, 0, 0, 0, -0.30049577355384827, -1.0615549087524414, 0.19081979990005493
12539, 0.028430994600057602, -0.21148957312107086, 0.03869708254933357, 0.23081780970096588, 0.010315305553376675, 0.16047367453575134, -0.0025594711769372225, -0.0027883772272616625, 1.0008295774459839, -0.30049577355384827, -1.0615549087524414, 0.19081979990005493, 0.0, 0.0, 0.0, 0, 0, 0, 0, 0, 0, -0.3006717562675476, -1.0638797283172607, 0.19128520786762238
12549, 0.02791520580649376, -0.21165652573108673, 0.04003426805138588, -0.03866970166563988, -0.006589062046259642, 0.1483122855424881, -0.0001964168477570638, -0.0008028484880924225, 1.0021203756332397, -0.3006717562675476, -1.0638797283172607, 0.19128520786762238, 0.0, 0.0, 0.0, 0, 0, 0, 0, 0, 0, -0.3008460998535156, -1.0662075281143188, 0.19175207614898682
12559, 0.027734603732824326, -0.21222379803657532, 0.03955854848027229, 0.0508747398853302, 0.015803037211298943, 0.005609981250017881, -0.0024392311461269855, 0.0012942233588546515, 0.9986429810523987, -0.3008460998535156, -1.0662075281143188, 0.19175207614898682, 0.0, 0.0, 0.0, 0, 0, 0, 0, 0, 0, -0.3010181486606598, -1.0685362815856934, 0.19221988320350647
12569, 0.026243528351187706, -0.21380208432674408, 0.038709960877895355, -0.038157008588314056, 0.3180963695049286, 0.03169603645801544, -0.0029594304505735636, -0.0008512091590091586, 1.0002367496490479, -0.3010181486606598, -1.0685362815856934, 0.19221988320350647, 0.0, 0.0, 0.0, 0, 0, 0, 0, 0, 0, -0.3011886179447174, -1.0708649158477783, 0.19268758594989777
12579, 0.02604564093053341, -0.21379518508911133, 0.039851535111665726, -0.18026462197303772, 0.08528976887464523, 0.0636022761464119, -0.001985614886507392, -0.002739455085247755, 0.998997688293457, -0.3011886179447174, -1.0708649158477783, 0.19268758594989777, 0.0, 0.0, 0.0, 0, 0, 0, 0, 0, 0, -0.30135804414749146, -1.073195219039917, 0.19315487146377563
12589, 0.027317441999912262, -0.21644482016563416, 0.041190892457962036, 0.16213347017765045, 0.29146435856819153, 0.08473534882068634, -0.001440898166038096, -0.0003855754039250314, 0.9991719126701355, -0.30135804414749146, -1.073195219039917, 0.19315487146377563, 0.0, 0.0, 0.0, 0, 0, 0, 0, 0, 0, -0.30152571201324463, -1.0755276679992676, 0.19362139701843262
12599, 0.026055200025439262, -0.21480901539325714, 0.04201248660683632, -0.15067610144615173, -0.30478811264038086, 0.20138730108737946, 0.00042597076389938593, -0.002740164054557681, 1.0003498792648315, -0.30152571201324463, -1.0755276679992676, 0.19362139701843262, 0.0, 0.0, 0.0, 0, 0, 0, 0, 0, 0, -0.30169054865837097, -1.0778619050979614, 0.19408740103244781
12609, 0.027227405458688736, -0.21461956202983856, 0.0407073050737381, -0.0042585209012031555, -0.17610466480255127, -0.2375609129667282, 0.0004443155194167048, -0.0011654149275273085, 0.9984862208366394, -0.30169054865837097, -1.0778619050979614, 0.19408740103244781, 0.0, 0.0, 0.0, 0, 0, 0, 0, 0, 0, -0.30185142159461975, -1.0801985263824463, 0.19455274939537048
12619, 0.026869164779782295, -0.2140425741672516, 0.04048305004835129, -0.016216225922107697, 0.18955916166305542, 0.027266651391983032, -0.00023996809613890946, -0.001980383647605777, 1.0013128519058228, -0.30185142159461975, -1.0801985263824463, 0.19455274939537048, 0.0, 0.0, 0.0, 0, 0, 0, 0, 0, 0, -0.30200833082199097, -1.0825376510620117, 0.19501785933971405
12629, 0.026593990623950958, -0.21645154058933258, 0.040677446871995926, -0.15577605366706848, 0.2767763137817383, 0.020297445356845856, -0.002566617215052247, -0.002004665555432439, 0.9996193051338196, -0.30200833082199097, -1.0825376510620117, 0.19501785933971405, 0.0, 0.0, 0.0, 0, 0, 0, 0, 0, 0, -0.3021625876426697, -1.0848792791366577, 0.19548305869102478
12639, 0.026571063324809074, -0.21493354439735413, 0.041111115366220474, 0.17414090037345886, -0.31175556778907776, 0.024167140945792198, -0.0014844051329419017, -0.002530303318053484, 0.9992855191230774, -0.3021625876426697, -1.0848792791366577, 0.19548305869102478, 0.0, 0.0, 0.0, 0, 0, 0, 0, 0, 0, -0.30231526494026184, -1.0872238874435425, 0.1959480494260788
12649, 0.026304470375180244, -0.21299448609352112, 0.04039042443037033, 0.0911615639925003, 0.017915086820721626, -0.0342235267162323, 0.0003455501573625952, -0.0006761066615581512, 1.0001577138900757, -0.30231526494026184, -1.0872238874435425, 0.1959480494260788, 0.0, 0.0, 0.0, 0, 0, 0, 0, 0, 0, -0.3024654984474182, -1.0895708799362183, 0.19641290605068207
12659, 0.027513984590768814, -0.211707204580307, 0.04143710434436798, 0.06725797057151794, -0.07720184326171875, 0.030052166432142258, -0.0017205431358888745, -0.00014976960665080696, 1.0004117488861084, -0.3024654984474182, -1.0895708799362183, 0.19641290605068207, 0.0, 0.0, 0.0, 0, 0, 0, 0, 0, 0, -0.30261245369911194, -1.091919183731079, 0.1968776136636734
12669, 0.028139164671301842, -0.21413059532642365, 0.042666126042604446, 0.13718730211257935, 0.40032830834388733, 0.26801779866218567, -0.002087489003315568, -0.0007377984584309161, 1.0011965036392212, -0.30261245369911194, -1.091919183731079, 0.1968776136636734, 0.0, 0.0, 0.0, 0, 0, 0, 0, 0, 0, -0.3027571439743042, -1.0942684412002563, 0.1973429173231125
12679, 0.02769225835800171, -0.21507272124290466, 0.04185571148991585, 0.06022658944129944, 0.28706955909729004, 0.1531175971031189, -0.003564654616639018, -0.0005206612404435873, 1.001961588859558, -0.3027571439743042, -1.0942684412002563, 0.1973429173231125, 0.0, 0.0, 0.0, 0, 0, 0, 0, 0, 0, -0.3029007911682129, -1.096618890762329, 0.1978095918893814
12689, 0.02748047560453415, -0.21620170772075653, 0.04146087169647217, -0.06647269427776337, 0.08481809496879578, -0.05831768363714218, -0.0026511403266340494, -0.0028032842092216015, 1.0020835399627686, -0.3029007911682129, -1.096618890762329, 0.1978095918893814, 0.0, 0.0, 0.0, 0, 0, 0, 0, 0, 0, -0.3030436933040619, -1.098970890045166, 0.19827815890312195
12699, 0.026895495131611824, -0.21653321385383606, 0.04239266365766525, -0.057325661182403564, 0.23301070928573608, 0.21635660529136658, -0.0038965395651757717, -0.004014826379716396, 1.0031107664108276, -0.3030436933040619, -1.098970890045166, 0.19827815890312195, 0.0, 0.0, 0.0, 0, 0, 0, 0, 0, 0, -0.30318593978881836, -1.1013262271881104, 0.19874903559684753
12709, 0.027454126626253128, -0.21801550686359406, 0.04208884760737419, 0.13480980694293976, -0.013123403303325176, -0.0026089088059961796, -0.0029150317423045635, -0.0024558138102293015, 0.9992497563362122, -0.30318593978881836, -1.1013262271881104, 0.19874903559684753, 0.0, 0.0, 0.0, 0, 0, 0, 0, 0, 0, -0.30332764983177185, -1.1036854982376099, 0.19922137260437012
12719, 0.027602914720773697, -0.2157958447933197, 0.04179898276925087, 0.037791792303323746, -0.3114868402481079, -0.15397825837135315, -0.0008895857608877122, -0.002188144950196147, 1.001237392425537, -0.30332764983177185, -1.1036854982376099, 0.19922137260437012, 0.0, 0.0, 0.0, 0, 0, 0, 0, 0, 0, -0.30346789956092834, -1.1060477495193481, 0.19969402253627777
12729, 0.028144100680947304, -0.21664918959140778, 0.04215028136968613, -0.01900009997189045, 0.3347398638725281, 0.09668530523777008, -0.003049348248168826, -0.0005217971047386527, 1.0020469427108765, -0.30346789956092834, -1.1060477495193481, 0.19969402253627777, 0.0, 0.0, 0.0, 0, 0, 0, 0, 0, 0, -0.3036063015460968, -1.1084117889404297, 0.20016753673553467
12739, 0.027831031009554863, -0.21711859107017517, 0.04176522046327591, 0.11804041266441345, 0.22185155749320984, -0.15909507870674133, -0.002299600513651967, -0.002869548974558711, 1.0011487007141113, -0.3036063015460968, -1.1084117889404297, 0.20016753673553467, 0.0, 0.0, 0.0, 0, 0, 0, 0, 0, 0, -0.30374354124069214, -1.1107776165008545, 0.2006428837776184
12749, 0.028084252029657364, -0.21599002182483673, 0.04248867928981781, 0.07090416550636292, -0.2652999460697174, 0.25672587752342224, -0.0016512316651642323, -0.0030089321080595255, 1.0019886493682861, -0.30374354124069214, -1.1107776165008545, 0.2006428837776184, 0.0, 0.0, 0.0, 0, 0, 0, 0, 0, 0, -0.30387935042381287, -1.113146185874939, 0.20111976563930511
12759, 0.027930205687880516, -0.2168121039867401, 0.0421968549489975, -0.15613818168640137, 0.13957765698432922, -0.09488337486982346, -0.0028724863659590483, -0.0033902775030583143, 1.0000272989273071, -0.30387935042381287, -1.113146185874939, 0.20111976563930511, 0.0, 0.0, 0.0, 0, 0, 0, 0, 0, 0, -0.30401360988616943, -1.1155186891555786, 0.201597660779953
12769, 0.027613628655672073, -0.21530288457870483, 0.04165387153625488, -0.07195331901311874, -0.08123404532670975, -0.24005170166492462, -0.0018397493986412883, -0.002988749649375677, 1.0014179944992065, -0.30401360988616943, -1.1155186891555786, 0.201597660779953, 0.0, 0.0, 0.0, 0, 0, 0, 0, 0, 0, -0.30414655804634094, -1.1178950071334839, 0.20207618176937103
12779, 0.02789539285004139, -0.21416312456130981, 0.04157613217830658, -0.01815696619451046, -0.016516685485839844, 0.22350475192070007, -0.0018607478123158216, -0.0007952432497404516, 1.0011119842529297, -0.30414655804634094, -1.1178950071334839, 0.20207618176937103, 0.0, 0.0, 0.0, 0, 0, 0, 0, 0, 0, -0.304277628660202, -1.1202740669250488, 0.2025556117296219
12789, 0.027589214965701103, -0.2141159623861313, 0.04053880646824837, 0.012723276391625404, -0.06014891713857651, -0.2967390716075897, -0.0023635285906493664, -0.0017914710333570838, 0.9982150793075562, -0.304277628660202, -1.1202740669250488, 0.2025556117296219, 0.0, 0.0, 0.0, 0, 0, 0, 0, 0, 0, -0.30440670251846313, -1.1226551532745361, 0.203035369515419
12799, 0.02697557955980301, -0.21243171393871307, 0.04141990840435028, -0.06776980310678482, -0.21283091604709625, 0.037668365985155106, -0.002330724149942398, -0.0010148826986551285, 1.000431776046753, -0.30440670251846313, -1.1226551532745361, 0.203035369515419, 0.0, 0.0, 0.0, 0, 0, 0, 0, 0, 0, -0.3045346438884735, -1.1250379085540771, 0.20351456105709076
12809, 0.027550306171178818, -0.21076011657714844, 0.041292861104011536, 0.17831707000732422, -0.21204820275306702, 0.016070356592535973, -0.001130937715061009, -0.0009709115256555378, 1.0018471479415894, -0.3045346438884735, -1.1250379085540771, 0.20351456105709076, 0.0, 0.0, 0.0, 0, 0, 0, 0, 0, 0, -0.3046610355377197, -1.1274222135543823, 0.20399430394172668
12819, 0.02715873159468174, -0.20831088721752167, 0.04048990458250046, 0.1016392782330513, -0.2946060597896576, 0.05286988988518715, -0.0038544831331819296, -0.003715939586982131, 1.0009138584136963, -0.3046610355377197, -1.1274222135543823, 0.20399430394172668, 0.0, 0.0, 0.0, 0, 0, 0, 0, 0, 0, -0.30478572845458984, -1.1298089027404785, 0.20447559654712677
12829, 0.02735714800655842, -0.20997831225395203, 0.040151447057724, -0.06889324635267258, 0.1175365224480629, 0.04068145900964737, -0.0031027907971292734, -0.0024791238829493523, 1.0003689527511597, -0.30478572845458984, -1.1298089027404785, 0.20447559654712677, 0.0, 0.0, 0.0, 0, 0, 0, 0, 0, 0, -0.3049098551273346, -1.1321991682052612, 0.20495790243148804
12839, 0.028637638315558434, -0.20988516509532928, 0.03886963054537773, 0.13641150295734406, -0.026050874963402748, -0.07293398678302765, -0.003573346883058548, -0.0006227429257705808, 1.0001494884490967, -0.3049098551273346, -1.1321991682052612, 0.20495790243148804, 0.0, 0.0, 0.0, 0, 0, 0, 0, 0, 0, -0.3050336241722107, -1.1345919370651245, 0.2054409384727478
12849, 0.02768658474087715, -0.20860837399959564, 0.03859509527683258, -0.16400712728500366, -0.2714638411998749, -0.2034662514925003, -0.0017436647322028875, -0.0025238976813852787, 1.001345157623291, -0.3050336241722107, -1.1345919370651245, 0.2054409384727478, 0.0, 0.0, 0.0, 0, 0, 0, 0, 0, 0, -0.3051566183567047, -1.1369861364364624, 0.2059248983860016
12859, 0.027780704200267792, -0.2094857096672058, 0.03743332251906395, -0.04076014831662178, 0.00547406543046236, -0.31612837314605713, -0.0022351709194481373, -0.004445670638233423, 0.9991402626037598, -0.3051566183567047, -1.1369861364364624, 0.2059248983860016, 0.0, 0.0, 0.0, 0, 0, 0, 0, 0, 0, -0.30527815222740173, -1.1393835544586182, 0.2064093053340912
12869, 0.028216330334544182, -0.20974594354629517, 0.03826920688152313, 0.02188318781554699, 0.24535495042800903, 0.022783523425459862, 0.00012686166155617684, -0.0037080058827996254, 1.0005245208740234, -0.30527815222740173, -1.1393835544586182, 0.2064093053340912, 0.0, 0.0, 0.0, 0, 0, 0, 0, 0, 0, -0.3053974211215973, -1.1417855024337769, 0.2068936824798584
12879, 0.027877483516931534, -0.20817948877811432, 0.038731496781110764, -0.17580023407936096, -0.06288418173789978, 0.06384865939617157, -0.0010248204926028848, -0.002451051026582718, 1.0006513595581055, -0.3053974211215973, -1.1417855024337769, 0.2068936824798584, 0.0, 0.0, 0.0, 0, 0, 0, 0, 0, 0, -0.3055136203765869, -1.1441911458969116, 0.20737823843955994
12889, 0.028475457802414894, -0.2083469182252884, 0.03922576084733009, 0.01614542305469513, 0.06709275394678116, -0.06959030032157898, -0.0013543047243729234, -0.004514597821980715, 1.0001047849655151, -0.3055136203765869, -1.1441911458969116, 0.20737823843955994, 0.0, 0.0, 0.0, 0, 0, 0, 0, 0, 0, -0.30562689900398254, -1.146600365638733, 0.20786310732364655
12899, 0.02719414234161377, -0.20899657905101776, 0.03850722685456276, 0.0010458339238539338, 0.12567302584648132, -0.025097312405705452, -0.0033478201366961002, -0.002964068902656436, 1.0005228519439697, -0.30562689900398254, -1.146600365638733, 0.20786310732364655, 0.0, 0.0, 0.0, 0, 0, 0, 0, 0, 0, -0.30573856830596924, -1.1490137577056885, 0.2083481103181839
12909, 0.027934251353144646, -0.2108294814825058, 0.0371101051568985, 0.07616548240184784, 0.13412432372570038, -0.3354225158691406, -0.0032126849982887506, -0.002057453850284219, 1.0015287399291992, -0.30573856830596924, -1.1490137577056885, 0.2083481103181839, 0.0, 0.0, 0.0, 0, 0, 0, 0, 0, 0, -0.30584973096847534, -1.1514307260513306, 0.20883354544639587
12919, 0.028256520628929138, -0.21168652176856995, 0.03761141374707222, 0.14249172806739807, 0.21074146032333374, 0.08593384921550751, -0.0014825074467808008, -0.0019554398022592068, 1.0011471509933472, -0.30584973096847534, -1.1514307260513306, 0.20883354544639587, 0.0, 0.0, 0.0, 0, 0, 0, 0, 0, 0, -0.30595988035202026, -1.1538504362106323, 0.20932017266750336
12929, 0.028308207169175148, -0.21216796338558197, 0.03738905489444733, -0.08762987703084946, -0.10204064846038818, -0.03048066422343254, -0.0025994316674768925, -0.003309340449050069, 1.0018556118011475, -0.30595988035202026, -1.1538504362106323, 0.20932017266750336, 0.0, 0.0, 0.0, 0, 0, 0, 0, 0, 0, -0.3060685992240906, -1.1562727689743042, 0.20980800688266754
12939, 0.028407195582985878, -0.21369650959968567, 0.03682785481214523, 0.1253616213798523, 0.1313423365354538, 0.030727600678801537, -0.0023413102608174086, -0.0038987956941127777, 0.9989891648292542, -0.3060685992240906, -1.1562727689743042, 0.20980800688266754, 0.0, 0.0, 0.0, 0, 0, 0, 0, 0, 0, -0.30617591738700867, -1.1586989164352417, 0.21029673516750336
12949, 0.027911676093935966, -0.2143760621547699, 0.03702763468027115, -0.12747690081596375, 0.004482030402868986, 0.060775090008974075, 0.00032791835837997496, -0.0022433269768953323, 1.0015716552734375, -0.30617591738700867, -1.1586989164352417, 0.21029673516750336, 0.0, 0.0, 0.0, 0, 0, 0, 0, 0, 0, -0.30628129839897156, -1.1611288785934448, 0.2107858806848526
12959, 0.028597567230463028, -0.2148757427930832, 0.0367201566696167, 0.13135787844657898, -0.14329268038272858, -0.0885266587138176, -0.0033207715023308992, -0.0031387312337756157, 0.999405026435852, -0.30628129839897156, -1.1611288785934448, 0.2107858806848526, 0.0, 0.0, 0.0, 0, 0, 0, 0, 0, 0, -0.306384414434433, -1.1635620594024658, 0.21127533912658691
12969, 0.028807178139686584, -0.21280112862586975, 0.03613625839352608, 0.09950549155473709, -0.10851197689771652, -0.1379735767841339, -0.0016567717539146543, -0.002568047260865569, 1.0013011693954468, -0.306384414434433, -1.1635620594024658, 0.21127533912658691, 0.0, 0.0, 0.0, 0, 0, 0, 0, 0, 0, -0.306486040353775, -1.1659984588623047, 0.21176539361476898
12979, 0.02871900238096714, -0.2125958353281021, 0.03684014081954956, -0.07051240652799606, -0.12952899932861328, 0.007970867678523064, -0.000804231152869761, -0.0028981303330510855, 1.0023657083511353, -0.306486040353775, -1.1659984588623047, 0.21176539361476898, 0.0, 0.0, 0.0, 0, 0, 0, 0, 0, 0, -0.3065859079360962, -1.1684380769729614, 0.21225641667842865
12989, 0.02867690846323967, -0.21152466535568237, 0.03704095631837845, -0.09011608362197876, 0.13972808420658112, 0.0714070200920105, -0.003799055004492402, -0.0027133363764733076, 1.0003362894058228, -0.3065859079360962, -1.1684380769729614, 0.21225641667842865, 0.0, 0.0, 0.0, 0, 0, 0, 0, 0, 0, -0.3066839277744293, -1.170880913734436, 0.21274876594543457
12999, 0.028109367936849594, -0.210506871342659, 0.036349304020404816, -0.06451329588890076, -0.14265306293964386, -0.26204153895378113, -0.002845020731911063, -0.003132335375994444, 1.0009506940841675, -0.3066839277744293, -1.170880913734436, 0.21274876594543457, 0.0, 0.0, 0.0, 0, 0, 0, 0, 0, 0, -0.30678150057792664, -1.173327088356018, 0.21324200928211212
13009, 0.029419900849461555, -0.21085819602012634, 0.03830014914274216, 0.1826697438955307, -0.014315378852188587, 0.06816019862890244, -0.0016835664864629507, -0.0019309697672724724, 0.9984717965126038, -0.30678150057792664, -1.173327088356018, 0.21324200928211212, 0.0, 0.0, 0.0, 0, 0, 0, 0, 0, 0, -0.306878000497818, -1.1757763624191284, 0.21373529732227325
13019, 0.028061646968126297, -0.2121470719575882, 0.037368305027484894, 0.038061514496803284, 0.21329669654369354, -0.04778463765978813, -0.00031700063846074045, -0.002647347981110215, 0.9993263483047485, -0.306878000497818, -1.1757763624191284, 0.21373529732227325, 0.0, 0.0, 0.0, 0, 0, 0, 0, 0, 0, -0.30697205662727356, -1.1782283782958984, 0.2142276167869568
13029, 0.028012804687023163, -0.21166574954986572, 0.03754892572760582, -0.002017542254179716, -0.291379451751709, -0.059043705463409424, -0.0032916846685111523, -0.0037507954984903336, 1.00059175491333, -0.30697205662727356, -1.1782283782958984, 0.2142276167869568, 0.0, 0.0, 0.0, 0, 0, 0, 0, 0, 0, -0.307064026594162, -1.1806836128234863, 0.21471929550170898
13039, 0.02753319777548313, -0.2111484706401825, 0.037033189088106155, 0.11825612187385559, 0.16457542777061462, -0.012162070721387863, -0.002425017999485135, -0.0031057284213602543, 0.9994999766349792, -0.307064026594162, -1.1806836128234863, 0.21471929550170898, 0.0, 0.0, 0.0, 0, 0, 0, 0, 0, 0, -0.3071546256542206, -1.183142900466919, 0.21521104872226715
13049, 0.028096331283450127, -0.2098359614610672, 0.03727231174707413, 0.07412257790565491, -0.2904781103134155, 0.06125825271010399, -0.002092871582135558, -0.002171134576201439, 1.0023726224899292, -0.3071546256542206, -1.183142900466919, 0.21521104872226715, 0.0, 0.0, 0.0, 0, 0, 0, 0, 0, 0, -0.30724403262138367, -1.185605764389038, 0.21570344269275665
13059, 0.02899288758635521, -0.21176689863204956, 0.038025930523872375, 0.042269349098205566, 0.37249380350112915, 0.015519809909164906, -0.0014919755049049854, -0.0022102505899965763, 1.0003280639648438, -0.30724403262138367, -1.185605764389038, 0.21570344269275665, 0.0, 0.0, 0.0, 0, 0, 0, 0, 0, 0, -0.30733177065849304, -1.1880714893341064, 0.21619710326194763
13069, 0.02945302054286003, -0.20922204852104187, 0.03822239488363266, 0.07545207440853119, -0.4085806906223297, -0.08453136682510376, -0.0016033899737522006, -0.0028392637614160776, 1.0022666454315186, -0.30733177065849304, -1.1880714893341064, 0.21619710326194763, 0.0, 0.0, 0.0, 0, 0, 0, 0, 0, 0, -0.30741751194000244, -1.1905399560928345, 0.2166920155286789
13079, 0.028188852593302727, -0.2094169408082962, 0.037013061344623566, -0.10424959659576416, 0.12412465363740921, -0.17665725946426392, -0.0037656945642083883, -0.002775888890028, 1.0007669925689697, -0.30741751194000244, -1.1905399560928345, 0.2166920155286789, 0.0, 0.0, 0.0, 0, 0, 0, 0, 0, 0, -0.30750203132629395, -1.1930114030838013, 0.2171882539987564
13089, 0.028455916792154312, -0.21089355647563934, 0.03694460168480873, -0.024659879505634308, 0.2533094584941864, 0.047087982296943665, -0.002205760683864355, -0.0032546434085816145, 0.9994086623191833, -0.30750203132629395, -1.1930114030838013, 0.2171882539987564, 0.0, 0.0, 0.0, 0, 0, 0, 0, 0, 0, -0.30758577585220337, -1.1954861879348755, 0.21768535673618317
13099, 0.028673239052295685, -0.2107113003730774, 0.03709353134036064, -0.023166634142398834, 0.03529086709022522, -0.038969799876213074, -9.761897672433406e-05, -0.002246398711577058, 1.000719428062439, -0.30758577585220337, -1.1954861879348755, 0.21768535673618317, 0.0, 0.0, 0.0, 0, 0, 0, 0, 0, 0, -0.30766788125038147, -1.197964072227478, 0.21818281710147858
13109, 0.027413854375481606, -0.21150435507297516, 0.03646165132522583, -0.06498546898365021, 0.04682878404855728, 0.04645216837525368, -0.0005522011779248714, -0.0025762824807316065, 0.9997047781944275, -0.30766788125038147, -1.197964072227478, 0.21818281710147858, 0.0, 0.0, 0.0, 0, 0, 0, 0, 0, 0, -0.30774715542793274, -1.2004449367523193, 0.21868044137954712
13119, 0.027571527287364006, -0.211787149310112, 0.036999210715293884, 0.01842070184648037, 0.32613274455070496, 0.14231640100479126, -0.0020376720931380987, -0.0014209426008164883, 0.9996719360351562, -0.30774715542793274, -1.2004449367523193, 0.21868044137954712, 0.0, 0.0, 0.0, 0, 0, 0, 0, 0, 0, -0.3078234791755676, -1.2029286623001099, 0.21917782723903656
13129, 0.02823791094124317, -0.20976175367832184, 0.03675133362412453, 0.10526259243488312, 0.05276292562484741, -0.012151872739195824, -0.0025454640854150057, -0.0009023517486639321, 0.9995447397232056, -0.3078234791755676, -1.2029286623001099, 0.21917782723903656, 0.0, 0.0, 0.0, 0, 0, 0, 0, 0, 0, -0.3078983426094055, -1.205414056777954, 0.21967485547065735
13139, 0.028206372633576393, -0.20871415734291077, 0.0361003503203392, 0.16258667409420013, -0.1080334410071373, 0.04436498507857323, -0.0020255318377166986, -0.0028576208278536797, 0.9986400008201599, -0.3078983426094055, -1.205414056777954, 0.21967485547065735, 0.0, 0.0, 0.0, 0, 0, 0, 0, 0, 0, -0.30797192454338074, -1.2079012393951416, 0.22017154097557068
13149, 0.028803950175642967, -0.20920728147029877, 0.03659491986036301, 0.0003054977278225124, 0.06456681340932846, 0.19223058223724365, -0.003523054299876094, -0.003316998714581132, 0.9997187256813049, -0.30797192454338074, -1.2079012393951416, 0.22017154097557068, 0.0, 0.0, 0.0, 0, 0, 0, 0, 0, 0, -0.30804407596588135, -1.2103915214538574, 0.22066758573055267
13159, 0.029113532975316048, -0.20768040418624878, 0.03649618849158287, -0.014031083323061466, -0.1636144518852234, -0.07079900056123734, -0.003283389378339052, -0.0041526928544044495, 0.999854326248169, -0.30804407596588135, -1.2103915214538574, 0.22066758573055267, 0.0, 0.0, 0.0, 0, 0, 0, 0, 0, 0, -0.3081158697605133, -1.2128859758377075, 0.2211633026599884
13169, 0.028717512264847755, -0.2081131786108017, 0.03682824596762657, 0.08226509392261505, 0.020348457619547844, 0.017727937549352646, -0.0019195580389350653, -0.0036265929229557514, 1.0011712312698364, -0.3081158697605133, -1.2128859758377075, 0.2211633026599884, 0.0, 0.0, 0.0, 0, 0, 0, 0, 0, 0, -0.30818676948547363, -1.2153847217559814, 0.22165939211845398
13179, 0.029486441984772682, -0.20931145548820496, 0.03681048005819321, 0.01630309224128723, 0.35007888078689575, -0.19650287926197052, -0.00304519385099411, -0.002277957508340478, 1.0006986856460571, -0.30818676948547363, -1.2153847217559814, 0.22165939211845398, 0.0, 0.0, 0.0, 0, 0, 0, 0, 0, 0, -0.3082563281059265, -1.2178875207901, 0.22215616703033447
13189, 0.028732193633913994, -0.21000772714614868, 0.036210354417562485, -0.06769699603319168, 0.220009446144104, 0.10794001817703247, -0.0034876083955168724, -0.002631822833791375, 1.000077247619629, -0.3082563281059265, -1.2178875207901, 0.22215616703033447, 0.0, 0.0, 0.0, 0, 0, 0, 0, 0, 0, -0.30832529067993164, -1.2203936576843262, 0.2226538360118866
13199, 0.028213348239660263, -0.20867735147476196, 0.03658139333128929, -0.006614142097532749, -0.22134412825107574, 0.1230010986328125, -0.001656191423535347, -0.0029939846135675907, 1.0015780925750732, -0.30832529067993164, -1.2203936576843262, 0.2226538360118866, 0.0, 0.0, 0.0, 0, 0, 0, 0, 0, 0, -0.3083936274051666, -1.222902536392212, 0.2231522649526596
13209, 0.027495481073856354, -0.20969736576080322, 0.03731179237365723, -0.006046196445822716, -0.1203899085521698, -0.0009099126909859478, -0.0036490168422460556, -0.0020964902359992266, 0.9991956353187561, -0.3083936274051666, -1.222902536392212, 0.2231522649526596, 0.0, 0.0, 0.0, 0, 0, 0, 0, 0, 0, -0.30846092104911804, -1.225414514541626, 0.22365106642246246
13219, 0.026827318593859673, -0.20799171924591064, 0.03712888062000275, 5.964076262898743e-05, -0.04535473883152008, -0.06364233046770096, -0.002774517284706235, -0.0026303338818252087, 0.9991828799247742, -0.30846092104911804, -1.225414514541626, 0.22365106642246246, 0.0, 0.0, 0.0, 0, 0, 0, 0, 0, 0, -0.3085275888442993, -1.2279295921325684, 0.2241494506597519
13229, 0.027080059051513672, -0.2088189423084259, 0.03645924851298332, -0.0052554612047970295, 0.011018301360309124, -0.10670076310634613, -0.0004427603562362492, -0.003088353667408228, 0.9997615218162537, -0.3085275888442993, -1.2279295921325684, 0.2241494506597519, 0.0, 0.0, 0.0, 0, 0, 0, 0, 0, 0, -0.30859309434890747, -1.2304476499557495, 0.22464698553085327
13239, 0.028115948662161827, -0.21030905842781067, 0.037256453186273575, 0.12965305149555206, 0.16964055597782135, 0.2020566314458847, -0.002776714973151684, -0.0014720618491992354, 0.9990432262420654, -0.30859309434890747, -1.2304476499557495, 0.22464698553085327, 0.0, 0.0, 0.0, 0, 0, 0, 0, 0, 0, -0.3086562752723694, -1.232968807220459, 0.22514407336711884
13249, 0.027059631422162056, -0.21125710010528564, 0.03723965957760811, 0.02306843362748623, -0.07914778590202332, 0.146154522895813, -0.0026926544960588217, -0.0012946261558681726, 1.000949501991272, -0.3086562752723694, -1.232968807220459, 0.22514407336711884, 0.0, 0.0, 0.0, 0, 0, 0, 0, 0, 0, -0.3087179958820343, -1.2354919910430908, 0.22564078867435455
13259, 0.028056005015969276, -0.21093668043613434, 0.03744339942932129, 0.134683758020401, 0.12147287279367447, 0.2555392384529114, -0.0032842671498656273, -0.0018271688604727387, 0.9986168146133423, -0.3087179958820343, -1.2354919910430908, 0.22564078867435455, 0.0, 0.0, 0.0, 0, 0, 0, 0, 0, 0, -0.3087850511074066, -1.238269567489624, 0.22618669271469116
13269, 0.028158627450466156, -0.21001726388931274, 0.03815103694796562, -0.040750566869974136, 0.00030919580603949726, -0.03477773442864418, -0.0018798572709783912, -0.002470950596034527, 0.9987255334854126, -0.3087850511074066, -1.238269567489624, 0.22618669271469116, 0.0, 0.0, 0.0, 0, 0, 0, 0, 0, 0, -0.30884474515914917, -1.2407972812652588, 0.22668211162090302
13279, 0.02821158803999424, -0.20822715759277344, 0.03656775876879692, 0.061463043093681335, -0.338878870010376, -0.19891653954982758, -0.0014869144652038813, -0.0024239469785243273, 0.997929573059082, -0.30884474515914917, -1.2407972812652588, 0.22668211162090302, 0.0, 0.0, 0.0, 0, 0, 0, 0, 0, 0, -0.3089028000831604, -1.2433276176452637, 0.22717568278312683
13289, 0.02898150123655796, -0.20901089906692505, 0.035317447036504745, 0.034864410758018494, 0.024065213277935982, -0.17436155676841736, -0.003353133099153638, -0.0026195121463388205, 0.9992871284484863, -0.3089028000831604, -1.2433276176452637, 0.22717568278312683, 0.0, 0.0, 0.0, 0, 0, 0, 0, 0, 0, -0.3089595437049866, -1.2458608150482178, 0.22766777873039246
13299, 0.027583729475736618, -0.20777085423469543, 0.034295715391635895, -0.20170116424560547, 0.020116537809371948, 0.024046558886766434, -0.002322889631614089, -0.0028948483522981405, 1.0027018785476685, -0.3089595437049866, -1.2458608150482178, 0.22766777873039246, 0.0, 0.0, 0.0, 0, 0, 0, 0, 0, 0, -0.3090156018733978, -1.2483969926834106, 0.22816020250320435
13309, 0.028375158086419106, -0.21030350029468536, 0.03498321399092674, 0.02118276059627533, 0.3865410089492798, 0.15852880477905273, -0.003920413088053465, -0.004442867822945118, 0.9995622038841248, -0.3090156018733978, -1.2483969926834106, 0.22816020250320435, 0.0, 0.0, 0.0, 0, 0, 0, 0, 0, 0, -0.3090711236000061, -1.2509368658065796, 0.2286536544561386
13319, 0.02867680788040161, -0.20866689085960388, 0.03418537974357605, 0.053856901824474335, -0.09522685408592224, -0.035687144845724106, -0.000980742508545518, -0.0018359359819442034, 0.9996200799942017, -0.3090711236000061, -1.2509368658065796, 0.2286536544561386, 0.0, 0.0, 0.0, 0, 0, 0, 0, 0, 0, -0.3091255724430084, -1.2534805536270142, 0.2291473150253296
13329, 0.02832992561161518, -0.20849762856960297, 0.03370407223701477, -0.029937969520688057, 0.07198890298604965, 0.11694546788930893, -0.002449442632496357, -0.0029774170834571123, 0.9987099766731262, -0.3091255724430084, -1.2534805536270142, 0.2291473150253296, 0.0, 0.0, 0.0, 0, 0, 0, 0, 0, 0, -0.30917850136756897, -1.256027340888977, 0.2296401411294937
13339, 0.028254099190235138, -0.2098391354084015, 0.03496161103248596, -0.027946660295128822, 0.14680737257003784, 0.09478872269392014, -0.0017674715491011739, -0.00247990433126688, 0.9981155395507812, -0.30917850136756897, -1.256027340888977, 0.2296401411294937, 0.0, 0.0, 0.0, 0, 0, 0, 0, 0, 0, -0.3092295825481415, -1.2585772275924683, 0.230131596326828
13349, 0.02715819887816906, -0.2123008668422699, 0.03525163233280182, -0.10286719352006912, 0.34898725152015686, -0.24032564461231232, -0.0008739697514101863, -0.002805664436891675, 1.0003219842910767, -0.3092295825481415, -1.2585772275924683, 0.230131596326828, 0.0, 0.0, 0.0, 0, 0, 0, 0, 0, 0, -0.30927857756614685, -1.2611300945281982, 0.23062194883823395
13359, 0.02742375247180462, -0.2119217962026596, 0.03522655367851257, 0.009765537455677986, -0.006562924012541771, 0.24233058094978333, -0.003915400709956884, -0.0025034823920577765, 1.0009740591049194, -0.30927857756614685, -1.2611300945281982, 0.23062194883823395, 0.0, 0.0, 0.0, 0, 0, 0, 0, 0, 0, -0.30932602286338806, -1.2636855840682983, 0.2311123013496399
13369, 0.02719578519463539, -0.212065190076828, 0.034852124750614166, -0.07108151912689209, 0.11153008043766022, -0.2121211290359497, -0.0022627448197454214, -0.004899748135358095, 1.0007942914962769, -0.30932602286338806, -1.2636855840682983, 0.2311123013496399, 0.0, 0.0, 0.0, 0, 0, 0, 0, 0, 0, -0.3093726634979248, -1.266244888305664, 0.23160357773303986
13379, 0.027950290590524673, -0.2106924206018448, 0.03610590100288391, 0.1414240151643753, -0.26394450664520264, 0.10854171216487885, -0.0023211222141981125, -0.0008064205176196992, 1.0007461309432983, -0.3093726634979248, -1.266244888305664, 0.23160357773303986, 0.0, 0.0, 0.0, 0, 0, 0, 0, 0, 0, -0.30941832065582275, -1.2688075304031372, 0.23209582269191742
13389, 0.028397921472787857, -0.2112785130739212, 0.035722799599170685, 0.10730233043432236, 0.09853983670473099, -0.2562168836593628, -0.0026306863874197006, -0.0016133672324940562, 1.0000511407852173, -0.30941832065582275, -1.2688075304031372, 0.23209582269191742, 0.0, 0.0, 0.0, 0, 0, 0, 0, 0, 0, -0.30946269631385803, -1.2713721990585327, 0.2325889617204666
13399, 0.028861772269010544, -0.2104002833366394, 0.03476495295763016, 0.028846360743045807, -0.03548332676291466, -0.16722063720226288, -0.0019546509720385075, -0.0017099912511184812, 0.999576210975647, -0.30946269631385803, -1.2713721990585327, 0.2325889617204666, 0.0, 0.0, 0.0, 0, 0, 0, 0, 0, 0, -0.30950605869293213, -1.2739388942718506, 0.23308216035366058
13409, 0.028543788939714432, -0.21040965616703033, 0.034257225692272186, -0.12372282892465591, -0.12263792008161545, 0.01694476790726185, -0.0014710043324157596, -0.0014729169197380543, 1.0007858276367188, -0.30950605869293213, -1.2739388942718506, 0.23308216035366058, 0.0, 0.0, 0.0, 0, 0, 0, 0, 0, 0, -0.30954766273498535, -1.2765076160430908, 0.23357518017292023
13419, 0.02840978279709816, -0.21269942820072174, 0.03399251028895378, -0.07192686945199966, 0.3684179484844208, -0.04944881796836853, -0.0030397684313356876, -0.0040670400485396385, 1.0025169849395752, -0.30954766273498535, -1.2765076160430908, 0.23357518017292023, 0.0, 0.0, 0.0, 0, 0, 0, 0, 0, 0, -0.30958738923072815, -1.2790793180465698, 0.23406949639320374
13429, 0.02756108157336712, -0.21243523061275482, 0.033731989562511444, -0.265190452337265, -0.1904812455177307, -0.14184822142124176, -0.003826070809736848, -0.003228242276236415, 1.000349760055542, -0.30958738923072815, -1.2790793180465698, 0.23406949639320374, 0.0, 0.0, 0.0, 0, 0, 0, 0, 0, 0, -0.3096265494823456, -1.2816548347473145, 0.23456531763076782
13439, 0.02825448289513588, -0.21316936612129211, 0.03451047092676163, 0.11159700155258179, 0.16829854249954224, -0.11888826638460159, -0.0012289269361644983, -0.0023862191010266542, 1.0009081363677979, -0.3096265494823456, -1.2816548347473145, 0.23456531763076782, 0.0, 0.0, 0.0, 0, 0, 0, 0, 0, 0, -0.30966466665267944, -1.2842340469360352, 0.23506207764148712
13449, 0.027394704520702362, -0.210505872964859, 0.03238263353705406, -0.22931861877441406, -0.3824452757835388, -0.3064422905445099, -0.0011772895231842995, -0.0006845966563560069, 1.0012298822402954, -0.30966466665267944, -1.2842340469360352, 0.23506207764148712, 0.0, 0.0, 0.0, 0, 0, 0, 0, 0, 0, -0.30970025062561035, -1.2868154048919678, 0.2355598509311676
13459, 0.02735084295272827, -0.2109665721654892, 0.03199527785181999, -0.05693840980529785, 0.23508208990097046, 0.05200880020856857, -0.003668205812573433, -0.00030069725471548736, 0.9989760518074036, -0.30970025062561035, -1.2868154048919678, 0.2355598509311676, 0.0, 0.0, 0.0, 0, 0, 0, 0, 0, 0, -0.30973413586616516, -1.2893977165222168, 0.2360578030347824
13469, 0.026676105335354805, -0.21206797659397125, 0.03160370886325836, 0.028688421472907066, 0.03203365206718445, -0.07443661987781525, -0.004750283434987068, -0.0024535669945180416, 1.0014554262161255, -0.30973413586616516, -1.2893977165222168, 0.2360578030347824, 0.0, 0.0, 0.0, 0, 0, 0, 0, 0, 0, -0.30976834893226624, -1.29198157787323, 0.2365560680627823
13479, 0.02647663839161396, -0.21250604093074799, 0.03155096247792244, 0.0005304564838297665, 0.034875787794589996, 0.07445734739303589, -0.0014188141794875264, -0.0023472041357308626, 1.0006005764007568, -0.30976834893226624, -1.29198157787323, 0.2365560680627823, 0.0, 0.0, 0.0, 0, 0, 0, 0, 0, 0, -0.30980250239372253, -1.2945681810379028, 0.23705510795116425
13489, 0.027335302904248238, -0.21212273836135864, 0.03171475604176521, 0.1263505220413208, -0.22064091265201569, -0.002893300959840417, 0.00010255408415105194, -0.0035023055970668793, 1.0004563331604004, -0.30980250239372253, -1.2945681810379028, 0.23705510795116425, 0.0, 0.0, 0.0, 0, 0, 0, 0, 0, 0, -0.30983415246009827, -1.2971582412719727, 0.2375548779964447
13499, 0.026655107736587524, -0.2131412774324417, 0.0317186564207077, -0.11557473242282867, 0.2459566742181778, -0.1267663687467575, -0.0047825174406170845, -0.0030105947516858578, 0.9995658993721008, -0.30983415246009827, -1.2971582412719727, 0.2375548779964447, 0.0, 0.0, 0.0, 0, 0, 0, 0, 0, 0, -0.3098638653755188, -1.2997519969940186, 0.23805493116378784
13509, 0.026910938322544098, -0.21356840431690216, 0.03052162565290928, 0.02928597666323185, 0.05463161692023277, -0.07879165560007095, -0.004675592761486769, -0.0026910160668194294, 0.9999356865882874, -0.3098638653755188, -1.2997519969940186, 0.23805493116378784, 0.0, 0.0, 0.0, 0, 0, 0, 0, 0, 0, -0.30989402532577515, -1.3023490905761719, 0.2385547012090683
13519, 0.027249829843640327, -0.21390078961849213, 0.030071059241890907, 0.10719998180866241, 0.1300347000360489, -0.08591941744089127, -0.001602413016371429, -0.0027272533625364304, 1.003578782081604, -0.30989402532577515, -1.3023490905761719, 0.2385547012090683, 0.0, 0.0, 0.0, 0, 0, 0, 0, 0, 0, -0.30992406606674194, -1.304949164390564, 0.2390557825565338
13529, 0.026967454701662064, -0.21456554532051086, 0.03016757406294346, -0.09310491383075714, -0.03943665325641632, 0.13415531814098358, -0.00033477236866019666, -0.0018079434521496296, 1.0023601055145264, -0.30992406606674194, -1.304949164390564, 0.2390557825565338, 0.0, 0.0, 0.0, 0, 0, 0, 0, 0, 0, -0.3099519908428192, -1.3075519800186157, 0.23955965042114258
13539, 0.02685309760272503, -0.21389059722423553, 0.03028595820069313, 0.08976283669471741, -0.015486929565668106, -0.13745439052581787, -0.002134826499968767, -0.005184396635740995, 1.0004225969314575, -0.3099519908428192, -1.3075519800186157, 0.23955965042114258, 0.0, 0.0, 0.0, 0, 0, 0, 0, 0, 0, -0.3099772036075592, -1.310158371925354, 0.24006544053554535
13549, 0.025986753404140472, -0.21551479399204254, 0.029333757236599922, -0.1386268138885498, 0.28798797726631165, -0.2142113894224167, -0.0020323870703577995, -0.00198204698972404, 1.0012004375457764, -0.3099772036075592, -1.310158371925354, 0.24006544053554535, 0.0, 0.0, 0.0, 0, 0, 0, 0, 0, 0, -0.31000056862831116, -1.312768816947937, 0.24057209491729736
13559, 0.026014253497123718, -0.2156430333852768, 0.029649466276168823, -0.12241938710212708, 0.10341772437095642, 0.0646289810538292, -0.0019512367434799671, -0.004479653667658567, 0.9990943670272827, -0.31000056862831116, -1.312768816947937, 0.24057209491729736, 0.0, 0.0, 0.0, 0, 0, 0, 0, 0, 0, -0.3100222647190094, -1.315382957458496, 0.2410789430141449
13569, 0.026376640424132347, -0.21625511348247528, 0.030132457613945007, 0.07661455124616623, 0.16807712614536285, 0.035218361765146255, 0.0001615777873666957, -0.003734296653419733, 1.001867651939392, -0.3100222647190094, -1.315382957458496, 0.2410789430141449, 0.0, 0.0, 0.0, 0, 0, 0, 0, 0, 0, -0.31004130840301514, -1.318001389503479, 0.24158640205860138
13579, 0.0266153234988451, -0.21456414461135864, 0.030591094866394997, -0.02868661843240261, -0.23891571164131165, 0.11140880733728409, -0.0013519786298274994, -0.0022013604175299406, 0.9994324445724487, -0.31004130840301514, -1.318001389503479, 0.24158640205860138, 0.0, 0.0, 0.0, 0, 0, 0, 0, 0, 0, -0.31005731225013733, -1.320623517036438, 0.24209445714950562
13589, 0.027317428961396217, -0.2147907018661499, 0.030771201476454735, 0.12848056852817535, 0.10863105207681656, -0.0016612564213573933, -0.0018044908065348864, -0.0018230617279186845, 1.002151608467102, -0.31005731225013733, -1.320623517036438, 0.24209445714950562, 0.0, 0.0, 0.0, 0, 0, 0, 0, 0, 0, -0.3100709021091461, -1.323248267173767, 0.24260298907756805
13599, 0.028023384511470795, -0.21432723104953766, 0.03208897262811661, 0.03808210417628288, 0.08944453299045563, 0.40018603205680847, -0.003355712164193392, -0.0026434229221194983, 0.9997752904891968, -0.3100709021091461, -1.323248267173767, 0.24260298907756805, 0.0, 0.0, 0.0, 0, 0, 0, 0, 0, 0, -0.310083270072937, -1.3258755207061768, 0.24311229586601257
13609, 0.027557147666811943, -0.2157502919435501, 0.033406615257263184, -0.09023486822843552, 0.09210998564958572, 0.22946995496749878, -0.0024638408794999123, -0.00394422234967351, 0.999508261680603, -0.310083270072937, -1.3258755207061768, 0.24311229586601257, 0.0, 0.0, 0.0, 0, 0, 0, 0, 0, 0, -0.3100947439670563, -1.3285062313079834, 0.24362149834632874
13619, 0.02767218090593815, -0.2156427800655365, 0.03469150513410568, 0.08812148869037628, -0.09424373507499695, 0.08144519478082657, -0.0037171312142163515, -0.004715684335678816, 0.9984491467475891, -0.3100947439670563, -1.3285062313079834, 0.24362149834632874, 0.0, 0.0, 0.0, 0, 0, 0, 0, 0, 0, -0.3101053833961487, -1.3311418294906616, 0.24412980675697327
13629, 0.02633347362279892, -0.21665626764297485, 0.03544715791940689, -0.22719019651412964, 0.2494121789932251, 0.04193080589175224, -0.004407348111271858, -0.0006557577871717513, 0.9979177713394165, -0.3101053833961487, -1.3311418294906616, 0.24412980675697327, 0.0, 0.0, 0.0, 0, 0, 0, 0, 0, 0, -0.3101162314414978, -1.333781123161316, 0.24463635683059692
13639, 0.0279113557189703, -0.2162550687789917, 0.034606680274009705, 0.24308255314826965, -0.04821189120411873, -0.08299486339092255, -0.000942631158977747, -0.0012951516546308994, 0.9992995858192444, -0.3101162314414978, -1.333781123161316, 0.24463635683059692, 0.0, 0.0, 0.0, 0, 0, 0, 0, 0, 0, -0.31012672185897827, -1.336422085762024, 0.24514147639274597
13649, 0.027252040803432465, -0.21488463878631592, 0.03445638716220856, -0.0781257227063179, -0.26898297667503357, -0.09640191495418549, -0.0008083578431978822, -0.0037983418442308903, 0.9998773336410522, -0.31012672185897827, -1.336422085762024, 0.24514147639274597, 0.0, 0.0, 0.0, 0, 0, 0, 0, 0, 0, -0.3101348280906677, -1.339065432548523, 0.24564585089683533
13659, 0.026024434715509415, -0.21294395625591278, 0.03383614495396614, -0.2079821228981018, -0.1486121565103531, 0.06908496469259262, -0.0022283541038632393, -0.0029776159208267927, 1.000190019607544, -0.3101348280906677, -1.339065432548523, 0.24564585089683533, 0.0, 0.0, 0.0, 0, 0, 0, 0, 0, 0, -0.3101405203342438, -1.3417123556137085, 0.24615003168582916
13669, 0.02628810703754425, -0.21397452056407928, 0.03420308604836464, -0.03258245810866356, 0.20055316388607025, 0.1417234092950821, -0.004092032555490732, -0.0028899922035634518, 0.9994062781333923, -0.3101405203342438, -1.3417123556137085, 0.24615003168582916, 0.0, 0.0, 0.0, 0, 0, 0, 0, 0, 0, -0.31014537811279297, -1.344362735748291, 0.24665439128875732
13679, 0.02684050053358078, -0.21264176070690155, 0.032762497663497925, -0.03426361083984375, -0.12752024829387665, -0.1655965894460678, -0.0028420949820429087, -0.0027470753993839025, 0.9993934631347656, -0.31014537811279297, -1.344362735748291, 0.24665439128875732, 0.0, 0.0, 0.0, 0, 0, 0, 0, 0, 0, -0.3101499378681183, -1.3470163345336914, 0.24715813994407654
13689, 0.026409901678562164, -0.21177728474140167, 0.03293391317129135, -0.16190816462039948, 0.03478613868355751, 0.07949034869670868, -0.0012433244846761227, -0.004052670672535896, 1.0014129877090454, -0.3101499378681183, -1.3470163345336914, 0.24715813994407654, 0.0, 0.0, 0.0, 0, 0, 0, 0, 0, 0, -0.3101533055305481, -1.349673867225647, 0.2476619929075241
13699, 0.025204496458172798, -0.21381787955760956, 0.03172331675887108, -0.14935225248336792, 0.18053197860717773, -0.1594381332397461, -0.0021528885699808598, -0.0023190295323729515, 1.0009430646896362, -0.3101533055305481, -1.349673867225647, 0.2476619929075241, 0.0, 0.0, 0.0, 0, 0, 0, 0, 0, 0, -0.3101550042629242, -1.3523352146148682, 0.24816691875457764
13709, 0.02566167153418064, -0.21295955777168274, 0.031013432890176773, 0.02698550745844841, -0.15855082869529724, -0.19215743243694305, -0.0021401254925876856, -0.0001804808562155813, 0.999773383140564, -0.3101550042629242, -1.3523352146148682, 0.24816691875457764, 0.0, 0.0, 0.0, 0, 0, 0, 0, 0, 0, -0.3101552426815033, -1.3549989461898804, 0.24867236614227295
13719, 0.025615269318223, -0.2149568796157837, 0.03073008358478546, -0.04688307270407677, 0.30292588472366333, -0.04176822304725647, -0.002106595318764448, -0.002905661705881357, 1.0025908946990967, -0.3101552426815033, -1.3549989461898804, 0.24867236614227295, 0.0, 0.0, 0.0, 0, 0, 0, 0, 0, 0, -0.310153990983963, -1.3576643466949463, 0.2491789162158966
13729, 0.025036858394742012, -0.2154213935136795, 0.03086782805621624, -0.17214082181453705, 0.1180872991681099, -0.002695644274353981, -0.002025182591751218, -0.0035777720622718334, 0.9966884255409241, -0.310153990983963, -1.3576643466949463, 0.2491789162158966, 0.0, 0.0, 0.0, 0, 0, 0, 0, 0, 0, -0.31015118956565857, -1.3603328466415405, 0.24968555569648743
13739, 0.025446560233831406, -0.21489611268043518, 0.02845592051744461, 0.12831111252307892, -0.08894806355237961, -0.3026939332485199, -0.0009190503624267876, -0.0019181601237505674, 0.9990071654319763, -0.31015118956565857, -1.3603328466415405, 0.24968555569648743, 0.0, 0.0, 0.0, 0, 0, 0, 0, 0, 0, -0.3101462721824646, -1.3630045652389526, 0.2501904368400574
13749, 0.025453338399529457, -0.2128252536058426, 0.028055574744939804, -0.005125450901687145, -0.22372503578662872, -0.046077411621809006, -0.0028648660518229008, -0.0013916367897763848, 1.0038585662841797, -0.3101462721824646, -1.3630045652389526, 0.2501904368400574, 0.0, 0.0, 0.0, 0, 0, 0, 0, 0, 0, -0.31013959646224976, -1.3656785488128662, 0.2506956458091736
13759, 0.025341514497995377, -0.21331827342510223, 0.026188820600509644, -0.016006385907530785, 0.06518132239580154, -0.24900199472904205, -0.0026997115928679705, -0.003998592030256987, 1.0025017261505127, -0.31013959646224976, -1.3656785488128662, 0.2506956458091736, 0.0, 0.0, 0.0, 0, 0, 0, 0, 0, 0, -0.31013205647468567, -1.368355393409729, 0.25120359659194946
13769, 0.02617230825126171, -0.21407431364059448, 0.02652769722044468, 0.2802968919277191, 0.15724396705627441, 0.14732803404331207, -0.00252041919156909, -0.0018468506168574095, 1.0008255243301392, -0.31013205647468567, -1.368355393409729, 0.25120359659194946, 0.0, 0.0, 0.0, 0, 0, 0, 0, 0, 0, -0.3101234436035156, -1.3710358142852783, 0.25171366333961487
13779, 0.025633404031395912, -0.21280227601528168, 0.025330381467938423, -0.14623543620109558, -0.11901827156543732, -0.0016568702412769198, -0.0044968463480472565, -0.001236836425960064, 1.0003682374954224, -0.3101234436035156, -1.3710358142852783, 0.25171366333961487, 0.0, 0.0, 0.0, 0, 0, 0, 0, 0, 0, -0.31011438369750977, -1.3737186193466187, 0.25222402811050415
13789, 0.02652452141046524, -0.21102876961231232, 0.026002919301390648, 0.2261856347322464, -0.08933371305465698, 0.23440811038017273, -0.00290708732791245, -0.002902126172557473, 1.002206563949585, -0.31011438369750977, -1.3737186193466187, 0.25222402811050415, 0.0, 0.0, 0.0, 0, 0, 0, 0, 0, 0, -0.31010523438453674, -1.37640380859375, 0.2527352273464203
13799, 0.026769079267978668, -0.2101995199918747, 0.02642601542174816, 0.07271479070186615, -0.0400855615735054, 0.14223864674568176, -0.0007448873366229236, -0.0016065295785665512, 1.0020859241485596, -0.31010523438453674, -1.37640380859375, 0.2527352273464203, 0.0, 0.0, 0.0, 0, 0, 0, 0, 0, 0, -0.31009480357170105, -1.3790916204452515, 0.25324833393096924
13809, 0.02716680057346821, -0.21178998053073883, 0.027339721098542213, -0.00018948959768749774, 0.17830628156661987, 0.2081686407327652, -0.0019533212762326, -0.0017041841056197882, 0.9994574189186096, -0.31009480357170105, -1.3790916204452515, 0.25324833393096924, 0.0, 0.0, 0.0, 0, 0, 0, 0, 0, 0, -0.3100821077823639, -1.3817813396453857, 0.25376245379447937
13819, 0.027539631351828575, -0.210137739777565, 0.026883775368332863, -0.07691997289657593, -0.17096027731895447, -0.11139645427465439, -0.0017836308106780052, -0.002603930654004216, 1.0014805793762207, -0.3100821077823639, -1.3817813396453857, 0.25376245379447937, 0.0, 0.0, 0.0, 0, 0, 0, 0, 0, 0, -0.310067355632782, -1.3844735622406006, 0.25427713990211487
13829, 0.02851221337914467, -0.20895124971866608, 0.02688770927488804, 0.002570788376033306, -0.26271915435791016, -0.12123189866542816, -0.00268126861192286, 0.0009387026657350361, 1.0002951622009277, -0.310067355632782, -1.3844735622406006, 0.25427713990211487, 0.0, 0.0, 0.0, 0, 0, 0, 0, 0, 0, -0.3100511431694031, -1.3871676921844482, 0.25479239225387573
13839, 0.029057450592517853, -0.20903433859348297, 0.027501089498400688, 0.10849083214998245, 0.25894150137901306, -0.03635213524103165, -0.0022020339965820312, -0.001055323169566691, 1.001417875289917, -0.3100511431694031, -1.3871676921844482, 0.25479239225387573, 0.0, 0.0, 0.0, 0, 0, 0, 0, 0, 0, -0.3100336790084839, -1.3898624181747437, 0.255308598279953
13849, 0.029159944504499435, -0.20936596393585205, 0.027571912854909897, 0.10423877835273743, 0.1954060047864914, 0.05016631260514259, -0.002433007350191474, -0.001650300924666226, 0.9992625117301941, -0.3100336790084839, -1.3898624181747437, 0.255308598279953, 0.0, 0.0, 0.0, 0, 0, 0, 0, 0, 0, -0.31001517176628113, -1.3925584554672241, 0.25582537055015564
13859, 0.02868180349469185, -0.20873616635799408, 0.027463076636195183, -0.12707504630088806, -0.02154487743973732, 0.047771770507097244, -0.0022801747545599937, -0.0015120395692065358, 0.9990819096565247, -0.31001517176628113, -1.3925584554672241, 0.25582537055015564, 0.0, 0.0, 0.0, 0, 0, 0, 0, 0, 0, -0.30999550223350525, -1.3952564001083374, 0.2563413083553314
13869, 0.028406934812664986, -0.20882941782474518, 0.027416285127401352, -0.07517141103744507, 0.14803346991539001, 0.08336013555526733, -0.002389922272413969, -0.002252844860777259, 1.0029252767562866, -0.30999550223350525, -1.3952564001083374, 0.2563413083553314, 0.0, 0.0, 0.0, 0, 0, 0, 0, 0, 0, -0.30997467041015625, -1.3979567289352417, 0.2568577229976654
13879, 0.02938632294535637, -0.20881551504135132, 0.02825685404241085, -0.007830698974430561, 0.10713980346918106, -0.00349789229221642, -0.0016360331792384386, -0.0014137041289359331, 1.0017989873886108, -0.30997467041015625, -1.3979567289352417, 0.2568577229976654, 0.0, 0.0, 0.0, 0, 0, 0, 0, 0, 0, -0.3099527657032013, -1.4006596803665161, 0.257376104593277
13889, 0.03098677471280098, -0.20708779990673065, 0.027491874992847443, 0.2700538635253906, -0.3104259669780731, -0.051876217126846313, -0.0013860517647117376, -0.0017270167591050267, 1.0007667541503906, -0.3099527657032013, -1.4006596803665161, 0.257376104593277, 0.0, 0.0, 0.0, 0, 0, 0, 0, 0, 0, -0.30992886424064636, -1.4033647775650024, 0.2578962445259094
13899, 0.03087686561048031, -0.20659735798835754, 0.028582708910107613, 0.019321175292134285, -0.08709011226892471, 0.14632023870944977, -0.003145519644021988, -0.0023512414190918207, 1.0011380910873413, -0.30992886424064636, -1.4033647775650024, 0.2578962445259094, 0.0, 0.0, 0.0, 0, 0, 0, 0, 0, 0, -0.3099032938480377, -1.4060722589492798, 0.258417546749115
13909, 0.03215009719133377, -0.205527201294899, 0.028015032410621643, -0.001502909930422902, -0.0037977106403559446, 0.007402606774121523, -0.003726121736690402, -0.0006261266535148025, 0.9990430474281311, -0.3099032938480377, -1.4060722589492798, 0.258417546749115, 0.0, 0.0, 0.0, 0, 0, 0, 0, 0, 0, -0.30987733602523804, -1.4087820053100586, 0.2589389681816101
13919, 0.03179072588682175, -0.20789362490177155, 0.028560474514961243, -0.03847363963723183, 0.16888785362243652, 0.021524662151932716, -0.0019500100752338767, -0.002866239519789815, 1.0020127296447754, -0.30987733602523804, -1.4087820053100586, 0.2589389681816101, 0.0, 0.0, 0.0, 0, 0, 0, 0, 0, 0, -0.30985087156295776, -1.4114938974380493, 0.2594606578350067
13929, 0.032188575714826584, -0.20681646466255188, 0.03022155724465847, 0.022903990000486374, -0.1556091010570526, 0.2272566258907318, -0.0035320594906806946, -0.0017736973240971565, 1.0013262033462524, -0.30985087156295776, -1.4114938974380493, 0.2594606578350067, 0.0, 0.0, 0.0, 0, 0, 0, 0, 0, 0, -0.30982381105422974, -1.4142084121704102, 0.25998350977897644
13939, 0.03302925452589989, -0.20652614533901215, 0.030492350459098816, 0.2202460765838623, 0.11778537929058075, 0.04441449046134949, -0.002392082242295146, -0.0009851831709966063, 0.9995641112327576, -0.30982381105422974, -1.4142084121704102, 0.25998350977897644, 0.0, 0.0, 0.0, 0, 0, 0, 0, 0, 0, -0.3097960948944092, -1.416925072669983, 0.2605074644088745
13949, 0.03256943076848984, -0.20575298368930817, 0.029934223741292953, -0.09973207861185074, -0.21678633987903595, 0.06364922970533371, -0.001956403022632003, -0.0028650180902332067, 1.002128005027771, -0.3097960948944092, -1.416925072669983, 0.2605074644088745, 0.0, 0.0, 0.0, 0, 0, 0, 0, 0, 0, -0.3097672164440155, -1.4196438789367676, 0.2610320746898651
13959, 0.03256111592054367, -0.20414581894874573, 0.028561975806951523, 0.020503176376223564, -0.27999430894851685, -0.14539426565170288, -0.0014087879098951817, -0.002143716439604759, 1.0025074481964111, -0.3097672164440155, -1.4196438789367676, 0.2610320746898651, 0.0, 0.0, 0.0, 0, 0, 0, 0, 0, 0, -0.3097365200519562, -1.4223655462265015, 0.26155829429626465
13969, 0.03228936344385147, -0.20431552827358246, 0.02806871384382248, -0.0054782782681286335, 0.09053041785955429, -0.07483485341072083, -0.004525700584053993, -0.0044691795483231544, 1.001672625541687, -0.3097365200519562, -1.4223655462265015, 0.26155829429626465, 0.0, 0.0, 0.0, 0, 0, 0, 0, 0, 0, -0.30970498919487, -1.425091028213501, 0.2620867192745209
13979, 0.032123468816280365, -0.2031472623348236, 0.028217308223247528, 0.008120602928102016, -0.2952830195426941, -0.01287189219146967, -0.004374292213469744, 0.0005022843251936138, 1.0001657009124756, -0.30970498919487, -1.425091028213501, 0.2620867192745209, 0.0, 0.0, 0.0, 0, 0, 0, 0, 0, 0, -0.30967411398887634, -1.4278193712234497, 0.26261618733406067
13989, 0.03242388740181923, -0.20356430113315582, 0.030167339369654655, 0.09269837290048599, 0.14893333613872528, 0.3821257948875427, -0.0026591066271066666, -0.0011931629851460457, 1.0008121728897095, -0.30967411398887634, -1.4278193712234497, 0.26261618733406067, 0.0, 0.0, 0.0, 0, 0, 0, 0, 0, 0, -0.3096432089805603, -1.430548906326294, 0.2631461024284363
13999, 0.03199758380651474, -0.20357297360897064, 0.0292348749935627, -0.017821133136749268, -0.061574023216962814, -0.0829661563038826, -0.0026185305323451757, -0.0031891639810055494, 1.0006017684936523, -0.3096432089805603, -1.430548906326294, 0.2631461024284363, 0.0, 0.0, 0.0, 0, 0, 0, 0, 0, 0, -0.30961158871650696, -1.4332807064056396, 0.26367655396461487
14009, 0.03264780715107918, -0.20389613509178162, 0.030238039791584015, -0.02485203929245472, 0.04325224459171295, 0.1707625836133957, -0.0018004172015935183, -0.002428164007142186, 0.999053418636322, -0.30961158871650696, -1.4332807064056396, 0.26367655396461487, 0.0, 0.0, 0.0, 0, 0, 0, 0, 0, 0, -0.3095787763595581, -1.4360156059265137, 0.2642071843147278
14019, 0.03268178179860115, -0.2043919563293457, 0.03046938218176365, 0.018229447305202484, 0.009870205074548721, 0.12501728534698486, -0.0002870354219339788, -0.0014982877764850855, 1.000436782836914, -0.3095787763595581, -1.4360156059265137, 0.2642071843147278, 0.0, 0.0, 0.0, 0, 0, 0, 0, 0, 0, -0.30954408645629883, -1.438753366470337, 0.26473742723464966
14029, 0.03168186545372009, -0.20447257161140442, 0.02990260347723961, -0.2196820229291916, 0.2821691632270813, -0.04322715476155281, -0.0025058772880584, 2.5674111384432763e-05, 1.001530408859253, -0.30954408645629883, -1.438753366470337, 0.26473742723464966, 0.0, 0.0, 0.0, 0, 0, 0, 0, 0, 0, -0.30950742959976196, -1.4414927959442139, 0.26526787877082825
14039, 0.031683556735515594, -0.2039691060781479, 0.029533660039305687, -0.03219655156135559, -0.07941225171089172, -0.1918092668056488, -0.00015755821368657053, 0.0016571256564930081, 1.001348853111267, -0.30950742959976196, -1.4414927959442139, 0.26526787877082825, 0.0, 0.0, 0.0, 0, 0, 0, 0, 0, 0, -0.30946847796440125, -1.4442323446273804, 0.265799880027771
14049, 0.030824435874819756, -0.2050871104001999, 0.029322586953639984, -0.0655229240655899, 0.04844995215535164, 0.02892572246491909, -0.0028036111034452915, -0.002610115334391594, 1.002212405204773, -0.30946847796440125, -1.4442323446273804, 0.265799880027771, 0.0, 0.0, 0.0, 0, 0, 0, 0, 0, 0, -0.30942755937576294, -1.4469722509384155, 0.2663337290287018
14059, 0.031217871233820915, -0.20406946539878845, 0.028883637860417366, 0.004029059782624245, -0.1305924355983734, -0.1294955611228943, -0.0034505180083215237, -0.002202663104981184, 0.9995526075363159, -0.30942755937576294, -1.4469722509384155, 0.2663337290287018, 0.0, 0.0, 0.0, 0, 0, 0, 0, 0, 0, -0.309385746717453, -1.4497145414352417, 0.2668687105178833
14069, 0.030343107879161835, -0.20521289110183716, 0.02880738489329815, -0.09539736062288284, 0.21202212572097778, -0.05007153004407883, -0.000574564328417182, -0.002192205749452114, 1.0017374753952026, -0.309385746717453, -1.4497145414352417, 0.2668687105178833, 0.0, 0.0, 0.0, 0, 0, 0, 0, 0, 0, -0.30934271216392517, -1.452459692955017, 0.2674045264720917
14079, 0.029475999996066093, -0.20431308448314667, 0.029875755310058594, -0.17092254757881165, -0.16831785440444946, 0.389829158782959, -0.0020894366316497326, -0.00021506202756427228, 1.0014275312423706, -0.30934271216392517, -1.452459692955017, 0.2674045264720917, 0.0, 0.0, 0.0, 0, 0, 0, 0, 0, 0, -0.30929771065711975, -1.4552068710327148, 0.2679413855075836
14089, 0.030989790335297585, -0.20229937136173248, 0.028067387640476227, 0.1539497822523117, -0.0987350195646286, -0.07390819489955902, -0.0009441653382964432, -5.313604560797103e-05, 1.0003507137298584, -0.30929771065711975, -1.4552068710327148, 0.2679413855075836, 0.0, 0.0, 0.0, 0, 0, 0, 0, 0, 0, -0.30925047397613525, -1.457955002784729, 0.2684793770313263
14099, 0.030444415286183357, -0.20253756642341614, 0.028889721259474754, -0.10327436029911041, 0.05990106984972954, 0.12621767818927765, -0.0010037949541583657, -0.0012383973225951195, 1.0007967948913574, -0.30925047397613525, -1.457955002784729, 0.2684793770313263, 0.0, 0.0, 0.0, 0, 0, 0, 0, 0, 0, -0.3092009127140045, -1.46070396900177, 0.26901790499687195
14109, 0.032165367156267166, -0.20380644500255585, 0.02981344424188137, 0.18008525669574738, 0.23990796506404877, -0.021206997334957123, -0.002150760032236576, -0.0026898402720689774, 1.0009371042251587, -0.3092009127140045, -1.46070396900177, 0.26901790499687195, 0.0, 0.0, 0.0, 0, 0, 0, 0, 0, 0, -0.3091491758823395, -1.4634552001953125, 0.2695569097995758
14119, 0.0315496027469635, -0.20586784183979034, 0.030496085062623024, 0.017932213842868805, 0.2070024162530899, 0.19757255911827087, -0.0012755256611853838, -0.002375143114477396, 0.9990938901901245, -0.3091491758823395, -1.4634552001953125, 0.2695569097995758, 0.0, 0.0, 0.0, 0, 0, 0, 0, 0, 0, -0.30909568071365356, -1.4662094116210938, 0.27009645104408264
14129, 0.032026417553424835, -0.2073480188846588, 0.030560839921236038, -0.06881815195083618, 0.08879584074020386, 0.06558246165513992, -0.0031225797720253468, -0.0021496827248483896, 1.000163197517395, -0.30909568071365356, -1.4662094116210938, 0.27009645104408264, 0.0, 0.0, 0.0, 0, 0, 0, 0, 0, 0, -0.30904102325439453, -1.4689661264419556, 0.27063554525375366
14139, 0.03265491873025894, -0.2108919620513916, 0.03086497262120247, 0.06390801817178726, 0.5991857647895813, 0.010924487374722958, -0.00019142110249958932, -0.0016818498261272907, 1.0007399320602417, -0.30904102325439453, -1.4689661264419556, 0.27063554525375366, 0.0, 0.0, 0.0, 0, 0, 0, 0, 0, 0, -0.3089847266674042, -1.4717252254486084, 0.2711745500564575
14149, 0.03245748206973076, -0.21032848954200745, 0.031587619334459305, -0.0980132445693016, 0.054276272654533386, -0.08346977829933167, -0.0034704061690717936, -0.001992198172956705, 1.0010344982147217, -0.3089847266674042, -1.4717252254486084, 0.2711745500564575, 0.0, 0.0, 0.0, 0, 0, 0, 0, 0, 0, -0.3089265823364258, -1.4744865894317627, 0.2717144787311554
14159, 0.03277430683374405, -0.21112500131130219, 0.03172940015792847, 0.00558207044377923, 0.039473243057727814, -0.04629489779472351, -0.00445660250261426, -0.0021202831994742155, 0.9991407990455627, -0.3089265823364258, -1.4744865894317627, 0.2717144787311554, 0.0, 0.0, 0.0, 0, 0, 0, 0, 0, 0, -0.3088682293891907, -1.4772504568099976, 0.27225497364997864
14169, 0.03298879414796829, -0.21063388884067535, 0.0320475809276104, 0.10912223160266876, 0.2927190661430359, 0.017767157405614853, -0.001451907679438591, -0.002274419879540801, 1.0001596212387085, -0.3088682293891907, -1.4772504568099976, 0.27225497364997864, 0.0, 0.0, 0.0, 0, 0, 0, 0, 0, 0, -0.3088095486164093, -1.480017066001892, 0.27279534935951233
14179, 0.03286294266581535, -0.2105993926525116, 0.030804608017206192, -0.0860154777765274, 0.017999358475208282, -0.284160315990448, -0.0020499012898653746, -0.00180192815605551, 1.001603603363037, -0.3088095486164093, -1.480017066001892, 0.27279534935951233, 0.0, 0.0, 0.0, 0, 0, 0, 0, 0, 0, -0.3087491989135742, -1.4827860593795776, 0.2733359932899475
14189, 0.0328199528157711, -0.21079318225383759, 0.030409030616283417, -0.05071447044610977, 0.010367222130298615, -0.16374367475509644, -0.004212287254631519, -0.0024255302269011736, 1.0022940635681152, -0.3087491989135742, -1.4827860593795776, 0.2733359932899475, 0.0, 0.0, 0.0, 0, 0, 0, 0, 0, 0, -0.3086877763271332, -1.4855577945709229, 0.2738783061504364
14199, 0.031995177268981934, -0.21190565824508667, 0.029402906075119972, -0.12196208536624908, 0.2645326852798462, 0.011143785901367664, -0.0038353856652975082, -0.002243263879790902, 1.0028177499771118, -0.3086877763271332, -1.4855577945709229, 0.2738783061504364, 0.0, 0.0, 0.0, 0, 0, 0, 0, 0, 0, -0.3086263835430145, -1.4883321523666382, 0.2744230329990387
14209, 0.03243136778473854, -0.21360991895198822, 0.029247378930449486, 0.12680937349796295, 0.1331709325313568, 0.11164209991693497, -0.001279179472476244, -0.0018204775406047702, 1.000250220298767, -0.3086263835430145, -1.4883321523666382, 0.2744230329990387, 0.0, 0.0, 0.0, 0, 0, 0, 0, 0, 0, -0.30856430530548096, -1.4911093711853027, 0.27496957778930664
14219, 0.03216211497783661, -0.21441100537776947, 0.029637666419148445, 0.00023697524738963693, 0.10471517592668533, 0.07577802240848541, -0.0014307789970189333, -0.0019675695803016424, 0.9989082217216492, -0.30856430530548096, -1.4911093711853027, 0.27496957778930664, 0.0, 0.0, 0.0, 0, 0, 0, 0, 0, 0, -0.308500200510025, -1.4938889741897583, 0.2755163609981537
14229, 0.032881610095500946, -0.21427461504936218, 0.029508640989661217, 0.12101685255765915, -0.13369552791118622, 0.02866341359913349, -0.003161874832585454, 9.745881106937304e-05, 1.0005050897598267, -0.308500200510025, -1.4938889741897583, 0.2755163609981537, 0.0, 0.0, 0.0, 0, 0, 0, 0, 0, 0, -0.30843451619148254, -1.4966702461242676, 0.27606257796287537
14239, 0.033040694892406464, -0.21540884673595428, 0.029768744483590126, 0.14502368867397308, 0.25908762216567993, -0.0040090144611895084, -0.00523710111156106, -0.0008245587814599276, 1.0026451349258423, -0.30843451619148254, -1.4966702461242676, 0.27606257796287537, 0.0, 0.0, 0.0, 0, 0, 0, 0, 0, 0, -0.3083687424659729, -1.4994527101516724, 0.27660977840423584
14249, 0.032325223088264465, -0.2138713300228119, 0.0295890923589468, -0.08073344081640244, -0.06045016646385193, -0.10395379364490509, -0.003602277720347047, -0.003149197669699788, 1.003185510635376, -0.3083687424659729, -1.4994527101516724, 0.27660977840423584, 0.0, 0.0, 0.0, 0, 0, 0, 0, 0, 0, -0.30830368399620056, -1.502237319946289, 0.2771596908569336
14259, 0.03262617066502571, -0.21175479888916016, 0.02986161783337593, 0.06129174306988716, -0.3002595603466034, 0.17179282009601593, -0.0014440714148804545, -0.0019054648000746965, 1.001268744468689, -0.30830368399620056, -1.502237319946289, 0.2771596908569336, 0.0, 0.0, 0.0, 0, 0, 0, 0, 0, 0, -0.30823785066604614, -1.5050251483917236, 0.27771222591400146
14269, 0.033697325736284256, -0.21072101593017578, 0.028856663033366203, 0.24888163805007935, -0.05310627818107605, 0.03889680653810501, -0.0023686522617936134, -0.002156211528927088, 1.0005886554718018, -0.30823785066604614, -1.5050251483917236, 0.27771222591400146, 0.0, 0.0, 0.0, 0, 0, 0, 0, 0, 0, -0.30817025899887085, -1.5078155994415283, 0.27826616168022156
14279, 0.03235052525997162, -0.21127428114414215, 0.029707996174693108, -0.17652325332164764, 0.1623862385749817, 0.15377593040466309, -0.002970451256260276, -0.00025056098820641637, 0.9995256662368774, -0.30817025899887085, -1.5078155994415283, 0.27826616168022156, 0.0, 0.0, 0.0, 0, 0, 0, 0, 0, 0, -0.3081015348434448, -1.5106079578399658, 0.2788199782371521
14289, 0.03312581032514572, -0.21168656647205353, 0.02921316772699356, 0.194697305560112, 0.10517284274101257, 0.017678704112768173, -0.000916921126190573, -0.0021689916029572487, 1.0010309219360352, -0.3081015348434448, -1.5106079578399658, 0.2788199782371521, 0.0, 0.0, 0.0, 0, 0, 0, 0, 0, 0, -0.3080311119556427, -1.5134022235870361, 0.27937406301498413
14299, 0.032298892736434937, -0.2132376730442047, 0.028519533574581146, -0.1331779509782791, 0.25064149498939514, -0.07542453706264496, -0.0004368753870949149, -0.0029286302160471678, 1.0015928745269775, -0.3080311119556427, -1.5134022235870361, 0.27937406301498413, 0.0, 0.0, 0.0, 0, 0, 0, 0, 0, 0, -0.30795812606811523, -1.5161992311477661, 0.2799293100833893
14309, 0.03221820294857025, -0.21435892581939697, 0.028739463537931442, 0.07507514953613281, 0.16422821581363678, 0.03426181152462959, -0.004333193879574537, -0.001298139221034944, 0.9996930360794067, -0.30795812606811523, -1.5161992311477661, 0.2799293100833893, 0.0, 0.0, 0.0, 0, 0, 0, 0, 0, 0, -0.3078835606575012, -1.5189990997314453, 0.2804851531982422
14319, 0.03317456692457199, -0.21434932947158813, 0.02835782989859581, 0.14435051381587982, 0.22208552062511444, -0.051423899829387665, -0.0037461547181010246, -0.0018709748983383179, 1.0028562545776367, -0.3078835606575012, -1.5189990997314453, 0.2804851531982422, 0.0, 0.0, 0.0, 0, 0, 0, 0, 0, 0, -0.307809054851532, -1.521801471710205, 0.2810421288013458
14329, 0.033592160791158676, -0.21521158516407013, 0.028060223907232285, 0.10617014020681381, 0.05431600660085678, -0.09002817422151566, -0.0018632042920216918, -0.0014857365749776363, 1.0018415451049805, -0.307809054851532, -1.521801471710205, 0.2810421288013458, 0.0, 0.0, 0.0, 0, 0, 0, 0, 0, 0, -0.30773425102233887, -1.5246061086654663, 0.28160086274147034
14339, 0.03477000817656517, -0.21625001728534698, 0.029222765937447548, 0.2954237461090088, 0.19895286858081818, 0.015017264522612095, -0.00191195507068187, -0.0038842468056827784, 1.0011225938796997, -0.30773425102233887, -1.5246061086654663, 0.28160086274147034, 0.0, 0.0, 0.0, 0, 0, 0, 0, 0, 0, -0.30765748023986816, -1.5274137258529663, 0.2821612060070038
14349, 0.03479266166687012, -0.21586261689662933, 0.029142258688807487, 0.010361269116401672, -0.13770335912704468, -0.012846605852246284, -0.0009283418185077608, -0.0013411515392363071, 0.9999252557754517, -0.30765748023986816, -1.5274137258529663, 0.2821612060070038, 0.0, 0.0, 0.0, 0, 0, 0, 0, 0, 0, -0.3075784146785736, -1.5302246809005737, 0.2827222943305969
14359, 0.03537704423069954, -0.21571555733680725, 0.02890174090862274, 0.07608269155025482, -0.08184033632278442, 0.02405650168657303, -0.0021393715869635344, -0.0022331210784614086, 1.0009574890136719, -0.3075784146785736, -1.5302246809005737, 0.2827222943305969, 0.0, 0.0, 0.0, 0, 0, 0, 0, 0, 0, -0.3074970543384552, -1.5330382585525513, 0.28328368067741394
14369, 0.0335346981883049, -0.21375589072704315, 0.028857093304395676, -0.2592114210128784, -0.031057722866535187, -0.084123894572258, -0.002069887239485979, -0.0031532729044556618, 1.0010288953781128, -0.3074970543384552, -1.5330382585525513, 0.28328368067741394, 0.0, 0.0, 0.0, 0, 0, 0, 0, 0, 0, -0.307413786649704, -1.5358548164367676, 0.2838461697101593
14379, 0.03286934271454811, -0.21523979306221008, 0.029582824558019638, -0.18029078841209412, 0.213473841547966, -0.040748536586761475, -0.0026207061018794775, -0.002112951362505555, 1.0011504888534546, -0.307413786649704, -1.5358548164367676, 0.2838461697101593, 0.0, 0.0, 0.0, 0, 0, 0, 0, 0, 0, -0.30732929706573486, -1.5386745929718018, 0.28440967202186584
14389, 0.03325856104493141, -0.21534951031208038, 0.02924569696187973, 0.12212568521499634, -0.053092919290065765, -0.0656438022851944, -0.0007264085579663515, -0.002453731605783105, 0.9999415278434753, -0.30732929706573486, -1.5386745929718018, 0.28440967202186584, 0.0, 0.0, 0.0, 0, 0, 0, 0, 0, 0, -0.30724287033081055, -1.5414974689483643, 0.284973680973053
14399, 0.0322146937251091, -0.21623289585113525, 0.02969696745276451, -0.020012877881526947, 0.04914485663175583, 0.1409570872783661, -0.0030050629284232855, -0.003208140144124627, 1.0011893510818481, -0.30724287033081055, -1.5414974689483643, 0.284973680973053, 0.0, 0.0, 0.0, 0, 0, 0, 0, 0, 0, -0.3071546256542206, -1.544323444366455, 0.2855380177497864
14409, 0.031178541481494904, -0.21617570519447327, 0.030326835811138153, -0.16671380400657654, -0.10547450184822083, -0.10183989256620407, -0.004035643767565489, -0.002333790296688676, 1.000847339630127, -0.3071546256542206, -1.544323444366455, 0.2855380177497864, 0.0, 0.0, 0.0, 0, 0, 0, 0, 0, 0, -0.3070659339427948, -1.5471526384353638, 0.28610309958457947
14419, 0.03138892352581024, -0.21555453538894653, 0.030543269589543343, 0.041794050484895706, 0.20879903435707092, 0.0054205022752285, -0.001756734331138432, -0.0030823422130197287, 1.000688076019287, -0.3070659339427948, -1.5471526384353638, 0.28610309958457947, 0.0, 0.0, 0.0, 0, 0, 0, 0, 0, 0, -0.3069765269756317, -1.5499850511550903, 0.28666913509368896
14429, 0.0309467613697052, -0.21490433812141418, 0.029494943097233772, -0.062301285564899445, -0.11331060528755188, -0.13535688817501068, -0.002296390710398555, -0.001565351034514606, 1.00098717212677, -0.3069765269756317, -1.5499850511550903, 0.28666913509368896, 0.0, 0.0, 0.0, 0, 0, 0, 0, 0, 0, -0.30688557028770447, -1.5528205633163452, 0.28723573684692383
14439, 0.03198355808854103, -0.2137952744960785, 0.029386553913354874, 0.1317017674446106, -0.10375858098268509, -0.016163501888513565, -0.0007665472221560776, -0.00019687095482368022, 1.0010277032852173, -0.30688557028770447, -1.5528205633163452, 0.28723573684692383, 0.0, 0.0, 0.0, 0, 0, 0, 0, 0, 0, -0.3067925274372101, -1.5556578636169434, 0.28780341148376465
14449, 0.03152751922607422, -0.21272195875644684, 0.02961278334259987, -0.0929328128695488, -0.16354437172412872, 0.006654620170593262, -0.0018442972796037793, -0.0015819953987374902, 1.0012180805206299, -0.3067925274372101, -1.5556578636169434, 0.28780341148376465, 0.0, 0.0, 0.0, 0, 0, 0, 0, 0, 0, -0.3066973090171814, -1.5584964752197266, 0.28837233781814575
14459, 0.030949626117944717, -0.21350380778312683, 0.029201490804553032, -0.10373121500015259, 0.26831305027008057, -0.07705701887607574, -0.00032728517544455826, -0.0008117005345411599, 1.0007952451705933, -0.3066973090171814, -1.5584964752197266, 0.28837233781814575, 0.0, 0.0, 0.0, 0, 0, 0, 0, 0, 0, -0.30659958720207214, -1.561336636543274, 0.2889421582221985
14469, 0.031648945063352585, -0.21284455060958862, 0.028943289071321487, -0.029748868197202682, 0.0006062653847038746, -0.1335211992263794, -0.0014252284308895469, -0.004274934530258179, 1.0003072023391724, -0.30659958720207214, -1.561336636543274, 0.2889421582221985, 0.0, 0.0, 0.0, 0, 0, 0, 0, 0, 0, -0.3064989447593689, -1.564179539680481, 0.2895125448703766
14479, 0.0321246013045311, -0.21334728598594666, 0.028594665229320526, -0.04673091322183609, 0.08318335562944412, -0.022648358717560768, -0.0035581307020038366, -0.002221270464360714, 0.9973863363265991, -0.3064989447593689, -1.564179539680481, 0.2895125448703766, 0.0, 0.0, 0.0, 0, 0, 0, 0, 0, 0, -0.3063967227935791, -1.5670260190963745, 0.2900822162628174
14489, 0.03229125216603279, -0.2154303789138794, 0.028100447729229927, 0.02140437252819538, 0.5219082236289978, -0.0927797332406044, -0.002022461500018835, -0.0012511545792222023, 0.9980067610740662, -0.3063967227935791, -1.5670260190963745, 0.2900822162628174, 0.0, 0.0, 0.0, 0, 0, 0, 0, 0, 0, -0.3062934875488281, -1.5698752403259277, 0.29065021872520447
14499, 0.031987011432647705, -0.21427927911281586, 0.029348785057663918, -0.032739732414484024, -0.15045925974845886, 0.1234019473195076, -0.0018543287878856063, -0.0031275900546461344, 0.9998264908790588, -0.3062934875488281, -1.5698752403259277, 0.29065021872520447, 0.0, 0.0, 0.0, 0, 0, 0, 0, 0, 0, -0.3061886429786682, -1.5727269649505615, 0.29121676087379456
14509, 0.03261391818523407, -0.21380336582660675, 0.030005846172571182, 0.026270471513271332, -0.09846588224172592, 0.04877793416380882, -0.004602265078574419, -0.0021767113357782364, 0.9998353123664856, -0.3061886429786682, -1.5727269649505615, 0.29121676087379456, 0.0, 0.0, 0.0, 0, 0, 0, 0, 0, 0, -0.3060828745365143, -1.5755817890167236, 0.29178276658058167
14519, 0.03269081190228462, -0.21200576424598694, 0.02938511222600937, 0.004242130555212498, -0.309924840927124, -0.1332433819770813, -0.003136272309347987, -0.0038054666947573423, 1.001035451889038, -0.3060828745365143, -1.5755817890167236, 0.29178276658058167, 0.0, 0.0, 0.0, 0, 0, 0, 0, 0, 0, -0.30597731471061707, -1.5784401893615723, 0.2923491597175598
14529, 0.03328103944659233, -0.21130801737308502, 0.02982800453901291, -0.0281194020062685, -0.002428238047286868, 0.051771972328424454, -0.0024057377595454454, -0.0028608893044292927, 0.9988383650779724, -0.30597731471061707, -1.5784401893615723, 0.2923491597175598, 0.0, 0.0, 0.0, 0, 0, 0, 0, 0, 0, -0.30587130784988403, -1.581302523612976, 0.29291558265686035
14539, 0.03407016396522522, -0.21236243844032288, 0.030192779377102852, 0.07210400700569153, 0.26849761605262756, 0.01179131306707859, -0.0014342438662424684, -0.002930208807811141, 1.0012990236282349, -0.30587130784988403, -1.581302523612976, 0.29291558265686035, 0.0, 0.0, 0.0, 0, 0, 0, 0, 0, 0, -0.30576345324516296, -1.5841681957244873, 0.2934819757938385
14549, 0.0336882583796978, -0.21198521554470062, 0.030006006360054016, -0.1381525844335556, -0.1024104654788971, 0.034943364560604095, -0.00369256385602057, -0.001855564070865512, 1.0001087188720703, -0.30576345324516296, -1.5841681957244873, 0.2934819757938385, 0.0, 0.0, 0.0, 0, 0, 0, 0, 0, 0, -0.30565422773361206, -1.5870368480682373, 0.2940487861633301
14559, 0.0347648523747921, -0.2136300504207611, 0.030249744653701782, 0.1275589019060135, 0.16956324875354767, -0.08061163127422333, -0.0028022145852446556, -0.004476764239370823, 1.000213861465454, -0.30565422773361206, -1.5870368480682373, 0.2940487861633301, 0.0, 0.0, 0.0, 0, 0, 0, 0, 0, 0, -0.30554476380348206, -1.5899090766906738, 0.294615775346756
14569, 0.033972062170505524, -0.21088342368602753, 0.029210088774561882, -0.20865923166275024, -0.2909909784793854, -0.18947431445121765, -0.00012702603999059647, -0.0038070641458034515, 1.0004407167434692, -0.30554476380348206, -1.5899090766906738, 0.294615775346756, 0.0, 0.0, 0.0, 0, 0, 0, 0, 0, 0, -0.30543363094329834, -1.5927857160568237, 0.29518309235572815
14579, 0.033746760338544846, -0.21010898053646088, 0.028664605692029, -0.034615837037563324, -0.21738679707050323, 0.00840174499899149, -0.0027930564247071743, -0.0014327381504699588, 0.999515950679779, -0.30543363094329834, -1.5927857160568237, 0.29518309235572815, 0.0, 0.0, 0.0, 0, 0, 0, 0, 0, 0, -0.30532020330429077, -1.595665693283081, 0.29575058817863464
14589, 0.034529950469732285, -0.210787832736969, 0.029329387471079826, 0.21548879146575928, 0.2569045126438141, 0.1264542043209076, -0.0028184710536152124, -0.005095866043120623, 1.000482201576233, -0.30532020330429077, -1.595665693283081, 0.29575058817863464, 0.0, 0.0, 0.0, 0, 0, 0, 0, 0, 0, -0.30520546436309814, -1.5985493659973145, 0.29631802439689636
14599, 0.03367403894662857, -0.21033576130867004, 0.028408335521817207, -0.2064129114151001, -0.044444240629673004, -0.1474001705646515, -0.003446970833465457, -0.004513222724199295, 0.9981772303581238, -0.30520546436309814, -1.5985493659973145, 0.29631802439689636, 0.0, 0.0, 0.0, 0, 0, 0, 0, 0, 0, -0.30509015917778015, -1.601438283920288, 0.2968849241733551
14609, 0.03407816216349602, -0.20932860672473907, 0.028677884489297867, 0.04575707018375397, -0.03492479771375656, -0.07407931983470917, -0.0030953262466937304, -0.0012464544270187616, 0.9989884495735168, -0.30509015917778015, -1.601438283920288, 0.2968849241733551, 0.0, 0.0, 0.0, 0, 0, 0, 0, 0, 0, -0.30497461557388306, -1.6043312549591064, 0.2974506914615631
14619, 0.03465761989355087, -0.20688654482364655, 0.029281852766871452, 0.026901330798864365, -0.12222623825073242, 0.02422112040221691, -0.004863147623836994, -0.0018713549943640828, 1.0006076097488403, -0.30497461557388306, -1.6043312549591064, 0.2974506914615631, 0.0, 0.0, 0.0, 0, 0, 0, 0, 0, 0, -0.3048590421676636, -1.6072267293930054, 0.29801610112190247
14629, 0.034033045172691345, -0.20696590840816498, 0.02894003316760063, -0.1866646558046341, 0.12360604107379913, -0.08538145571947098, -0.002855618018656969, -0.0030276114121079445, 1.0021153688430786, -0.3048590421676636, -1.6072267293930054, 0.29801610112190247, 0.0, 0.0, 0.0, 0, 0, 0, 0, 0, 0, -0.3047436773777008, -1.610124945640564, 0.2985824644565582
14639, 0.033179137855768204, -0.207623690366745, 0.02819722704589367, -0.08861251175403595, -0.09149995446205139, -0.06293077021837234, -0.00047076205373741686, -0.0017552266363054514, 1.0009808540344238, -0.3047436773777008, -1.610124945640564, 0.2985824644565582, 0.0, 0.0, 0.0, 0, 0, 0, 0, 0, 0, -0.3046269416809082, -1.6130263805389404, 0.2991503179073334
14649, 0.03253897279500961, -0.2077166587114334, 0.029067842289805412, -0.11917339265346527, 0.058994196355342865, 0.22695687413215637, -0.001799716497771442, -0.002603832632303238, 1.0011307001113892, -0.3046269416809082, -1.6130263805389404, 0.2991503179073334, 0.0, 0.0, 0.0, 0, 0, 0, 0, 0, 0, -0.3045077919960022, -1.6159309148788452, 0.29971957206726074
14659, 0.03222411870956421, -0.20797434449195862, 0.027681680396199226, -0.11358968913555145, 0.05704517289996147, -0.05964858457446098, -0.003123026806861162, -0.0030115933623164892, 1.000053882598877, -0.3045077919960022, -1.6159309148788452, 0.29971957206726074, 0.0, 0.0, 0.0, 0, 0, 0, 0, 0, 0, -0.3043871223926544, -1.6188386678695679, 0.3002898097038269
14669, 0.032150719314813614, -0.2086528092622757, 0.028139090165495872, -0.0684308409690857, 0.03814676031470299, 0.024709507822990417, -0.0009227032423950732, -0.0020239450968801975, 1.0024065971374512, -0.3043871223926544, -1.6188386678695679, 0.3002898097038269, 0.0, 0.0, 0.0, 0, 0, 0, 0, 0, 0, -0.30426496267318726, -1.6217495203018188, 0.3008611798286438
14679, 0.03096613846719265, -0.2103114277124405, 0.028191126883029938, -0.007483187597244978, 0.17461535334587097, 0.06576499342918396, -0.0031137517653405666, -0.0003720363019965589, 1.0013431310653687, -0.30426496267318726, -1.6217495203018188, 0.3008611798286438, 0.0, 0.0, 0.0, 0, 0, 0, 0, 0, 0, -0.3041410744190216, -1.6246623992919922, 0.30143412947654724
14689, 0.030859753489494324, -0.2103455662727356, 0.02888409048318863, 0.12460296601057053, -0.08493508398532867, -0.0066390736028552055, -0.0012273103930056095, -0.002772542415186763, 1.0003012418746948, -0.3041410744190216, -1.6246623992919922, 0.30143412947654724, 0.0, 0.0, 0.0, 0, 0, 0, 0, 0, 0, -0.3040156364440918, -1.6275771856307983, 0.30200809240341187
14699, 0.030762366950511932, -0.21037530899047852, 0.027957243844866753, -0.028799083083868027, -0.1465739905834198, -0.1131276786327362, -0.0029409853741526604, -0.0027590987738221884, 1.0001417398452759, -0.3040156364440918, -1.6275771856307983, 0.30200809240341187, 0.0, 0.0, 0.0, 0, 0, 0, 0, 0, 0, -0.3038886487483978, -1.6304948329925537, 0.30258217453956604
14709, 0.03000958450138569, -0.21047359704971313, 0.02702193148434162, -0.2511183023452759, 0.16844457387924194, -0.12155495584011078, -0.0028439066372811794, -0.0015472645172849298, 0.9989491701126099, -0.3038886487483978, -1.6304948329925537, 0.30258217453956604, 0.0, 0.0, 0.0, 0, 0, 0, 0, 0, 0, -0.30376070737838745, -1.6334152221679688, 0.3031561076641083
14719, 0.030349763110280037, -0.2092435210943222, 0.02734476886689663, 0.05880502611398697, 0.011585716158151627, -0.02208619937300682, -0.0027107910718768835, -0.002613901160657406, 0.9997809529304504, -0.30376070737838745, -1.6334152221679688, 0.3031561076641083, 0.0, 0.0, 0.0, 0, 0, 0, 0, 0, 0, -0.30363205075263977, -1.6363379955291748, 0.3037298917770386
14729, 0.030569646507501602, -0.20978635549545288, 0.026148293167352676, -0.10603472590446472, 0.1700972318649292, -0.23097306489944458, -0.0009035993134602904, -0.0008205394842661917, 1.002421259880066, -0.30363205075263977, -1.6363379955291748, 0.3037298917770386, 0.0, 0.0, 0.0, 0, 0, 0, 0, 0, 0, -0.30350199341773987, -1.6392629146575928, 0.3043043911457062
14739, 0.03153552487492561, -0.21247975528240204, 0.026262793689966202, 0.13014903664588928, 0.3989278972148895, -0.10055135190486908, -0.0011287969537079334, -0.0009575408766977489, 1.0015805959701538, -0.30350199341773987, -1.6392629146575928, 0.3043043911457062, 0.0, 0.0, 0.0, 0, 0, 0, 0, 0, 0, -0.3033696711063385, -1.642189621925354, 0.3048807382583618
14749, 0.030924100428819656, -0.213309183716774, 0.027875157073140144, -0.10754907131195068, -0.05972474068403244, 0.1554279774427414, -0.0007064220262691379, -0.0009748811135068536, 0.9994757175445557, -0.3033696711063385, -1.642189621925354, 0.3048807382583618, 0.0, 0.0, 0.0, 0, 0, 0, 0, 0, 0, -0.30323460698127747, -1.6451178789138794, 0.30545809864997864
14759, 0.030741719529032707, -0.21337084472179413, 0.028852492570877075, -0.06873120367527008, 0.04767628759145737, 0.13934490084648132, -0.0022343385498970747, -0.0010173630435019732, 1.0013865232467651, -0.30323460698127747, -1.6451178789138794, 0.30545809864997864, 0.0, 0.0, 0.0, 0, 0, 0, 0, 0, 0, -0.30309706926345825, -1.648047685623169, 0.3060357868671417
14769, 0.032058585435152054, -0.21201252937316895, 0.02930428460240364, 0.1108267679810524, -0.027655471116304398, 0.07844706624746323, -0.0034564766101539135, -0.0014426740817725658, 1.0008515119552612, -0.30309706926345825, -1.648047685623169, 0.3060357868671417, 0.0, 0.0, 0.0, 0, 0, 0, 0, 0, 0, -0.3029583692550659, -1.6509791612625122, 0.30661436915397644
14779, 0.03252320736646652, -0.21313422918319702, 0.028868500143289566, 0.04812174290418625, 0.032097022980451584, -0.13472400605678558, -0.002415152732282877, -0.0013436917215585709, 0.9993102550506592, -0.3029583692550659, -1.6509791612625122, 0.30661436915397644, 0.0, 0.0, 0.0, 0, 0, 0, 0, 0, 0, -0.3028189539909363, -1.6539126634597778, 0.30719324946403503
14789, 0.03359772264957428, -0.21379275619983673, 0.030597254633903503, 0.19529536366462708, -0.010886415839195251, 0.1616952121257782, -0.000635774340480566, -0.0025618344079703093, 1.0004477500915527, -0.3028189539909363, -1.6539126634597778, 0.30719324946403503, 0.0, 0.0, 0.0, 0, 0, 0, 0, 0, 0, -0.30267760157585144, -1.6568485498428345, 0.307772159576416
14799, 0.03239031508564949, -0.21466685831546783, 0.030474642291665077, -0.1918889582157135, 0.12135469913482666, -0.07339951395988464, -0.0021812182385474443, -0.0039190673269331455, 0.9999533891677856, -0.30267760157585144, -1.6568485498428345, 0.307772159576416, 0.0, 0.0, 0.0, 0, 0, 0, 0, 0, 0, -0.30253416299819946, -1.6597882509231567, 0.3083513677120209
14809, 0.03182901442050934, -0.21603718400001526, 0.030125131830573082, -0.09615844488143921, 0.0901821032166481, -0.004309074021875858, -0.002252984559163451, -0.0041709356009960175, 0.9988005757331848, -0.30253416299819946, -1.6597882509231567, 0.3083513677120209, 0.0, 0.0, 0.0, 0, 0, 0, 0, 0, 0, -0.3023892939090729, -1.6627326011657715, 0.30893027782440186
14819, 0.03249772638082504, -0.21634812653064728, 0.030510567128658295, 0.09057913720607758, -0.05252522975206375, 0.0872601792216301, -0.00046896966523490846, -0.0037219661753624678, 0.9999091029167175, -0.3023892939090729, -1.6627326011657715, 0.30893027782440186, 0.0, 0.0, 0.0, 0, 0, 0, 0, 0, 0, -0.30224236845970154, -1.66568124294281, 0.3095083236694336
14829, 0.03251427784562111, -0.21746553480625153, 0.030052147805690765, 0.08715210109949112, 0.13578324019908905, -0.022984515875577927, -0.0022630055900663137, -0.002633298048749566, 0.9995525479316711, -0.30224236845970154, -1.66568124294281, 0.3095083236694336, 0.0, 0.0, 0.0, 0, 0, 0, 0, 0, 0, -0.30209335684776306, -1.6686336994171143, 0.31008583307266235
14839, 0.032815225422382355, -0.21808749437332153, 0.030028922483325005, 0.10581203550100327, 0.25143247842788696, -0.06135120987892151, -0.0003360954870004207, -0.0019787128549069166, 0.9993468523025513, -0.30209335684776306, -1.6686336994171143, 0.31008583307266235, 0.0, 0.0, 0.0, 0, 0, 0, 0, 0, 0, -0.3019419014453888, -1.6715893745422363, 0.3106629550457001
14849, 0.03210146725177765, -0.21972380578517914, 0.03054618090391159, -0.18685609102249146, 0.15001900494098663, 0.018638616427779198, -0.000977859366685152, -0.0020171557553112507, 1.0001519918441772, -0.3019419014453888, -1.6715893745422363, 0.3106629550457001, 0.0, 0.0, 0.0, 0, 0, 0, 0, 0, 0, -0.3017873167991638, -1.674547553062439, 0.3112393617630005
14859, 0.03218572959303856, -0.22157222032546997, 0.03077659383416176, 0.044689472764730453, 0.09172438830137253, 0.009049142710864544, -0.0017792383441701531, -0.003278698306530714, 1.000788927078247, -0.3017873167991638, -1.674547553062439, 0.3112393617630005, 0.0, 0.0, 0.0, 0, 0, 0, 0, 0, 0, -0.3016301095485687, -1.677509069442749, 0.3118159770965576
14869, 0.03186415508389473, -0.22163432836532593, 0.03017977625131607, -0.047180574387311935, 0.08755554258823395, -0.11736554652452469, -0.0032359689939767122, -0.0038427531253546476, 1.000860333442688, -0.3016301095485687, -1.677509069442749, 0.3118159770965576, 0.0, 0.0, 0.0, 0, 0, 0, 0, 0, 0, -0.301471471786499, -1.6804746389389038, 0.3123934864997864
14879, 0.031175440177321434, -0.22253625094890594, 0.03072219528257847, -0.04782328009605408, -0.01189948245882988, 0.12522906064987183, -0.003024512901902199, -0.002462126314640045, 0.9996615052223206, -0.301471471786499, -1.6804746389389038, 0.3123934864997864, 0.0, 0.0, 0.0, 0, 0, 0, 0, 0, 0, -0.3013121485710144, -1.6834437847137451, 0.3129713535308838
14889, 0.03208969160914421, -0.22385121881961823, 0.030532920733094215, 0.25063222646713257, 0.07388363033533096, 0.07202982902526855, -0.0020190151408314705, -0.0032955866772681475, 1.0006864070892334, -0.3013121485710144, -1.6834437847137451, 0.3129713535308838, 0.0, 0.0, 0.0, 0, 0, 0, 0, 0, 0, -0.3011513948440552, -1.686416506767273, 0.3135495185852051
14899, 0.03242935240268707, -0.22490261495113373, 0.029193254187703133, 0.20569348335266113, 0.2542499601840973, -0.06867993623018265, -0.0017315286677330732, -0.0020997971296310425, 1.0021475553512573, -0.3011513948440552, -1.686416506767273, 0.3135495185852051, 0.0, 0.0, 0.0, 0, 0, 0, 0, 0, 0, -0.30098873376846313, -1.689392328262329, 0.3141288757324219
14909, 0.033828042447566986, -0.2239946573972702, 0.028776148334145546, 0.07385798543691635, -0.10531159490346909, 0.08512904495000839, -0.002505438169464469, -0.001953117665834725, 1.0019906759262085, -0.30098873376846313, -1.689392328262329, 0.3141288757324219, 0.0, 0.0, 0.0, 0, 0, 0, 0, 0, 0, -0.3008243143558502, -1.692370891571045, 0.314710408449173
14919, 0.03386511653661728, -0.22127017378807068, 0.027140311896800995, -0.005951163824647665, -0.13595609366893768, -0.0595124289393425, -0.0033108144998550415, -0.0033146135974675417, 0.9999266862869263, -0.3008243143558502, -1.692370891571045, 0.314710408449173, 0.0, 0.0, 0.0, 0, 0, 0, 0, 0, 0, -0.300658643245697, -1.6953524351119995, 0.3152933716773987
14929, 0.03358981013298035, -0.22144712507724762, 0.027509627863764763, 0.042746659368276596, 0.1450028121471405, 0.04077760875225067, -0.004905701149255037, -0.0006400201236829162, 1.0015335083007812, -0.300658643245697, -1.6953524351119995, 0.3152933716773987, 0.0, 0.0, 0.0, 0, 0, 0, 0, 0, 0, -0.3004930019378662, -1.6983366012573242, 0.3158765733242035
14939, 0.034178897738456726, -0.21983808279037476, 0.02554326131939888, 0.1125294417142868, -0.14815564453601837, -0.22407427430152893, -0.0034853557590395212, 0.0004514471220318228, 1.000120759010315, -0.3004930019378662, -1.6983366012573242, 0.3158765733242035, 0.0, 0.0, 0.0, 0, 0, 0, 0, 0, 0, -0.30032792687416077, -1.701322078704834, 0.31646043062210083
14949, 0.0340922586619854, -0.22020301222801208, 0.02590538002550602, -0.0936182513833046, 0.14369173347949982, -0.0044446601532399654, -0.001948404824361205, -0.002326799090951681, 1.0019423961639404, -0.30032792687416077, -1.701322078704834, 0.31646043062210083, 0.0, 0.0, 0.0, 0, 0, 0, 0, 0, 0, -0.30016258358955383, -1.7043083906173706, 0.31704527139663696
14959, 0.03514006733894348, -0.2197316735982895, 0.026509584859013557, 0.08941864222288132, 0.10899471491575241, -0.07798150181770325, -0.002286421600729227, -0.003770363749936223, 1.000359058380127, -0.30016258358955383, -1.7043083906173706, 0.31704527139663696, 0.0, 0.0, 0.0, 0, 0, 0, 0, 0, 0, -0.2999957203865051, -1.7072978019714355, 0.31763115525245667
14969, 0.03457280993461609, -0.2198733240365982, 0.025881273671984673, -0.018716687336564064, -0.033948276191949844, -0.0652843564748764, -0.0024432239588350058, -0.001014706795103848, 0.9988412261009216, -0.2999957203865051, -1.7072978019714355, 0.31763115525245667, 0.0, 0.0, 0.0, 0, 0, 0, 0, 0, 0, -0.2998271584510803, -1.7102906703948975, 0.3182172179222107
14979, 0.035004496574401855, -0.2222995012998581, 0.027222279459238052, -0.011691653169691563, 0.30159786343574524, 0.21421131491661072, -0.003944830968976021, -0.0008236545836552978, 1.000207543373108, -0.2998271584510803, -1.7102906703948975, 0.3182172179222107, 0.0, 0.0, 0.0, 0, 0, 0, 0, 0, 0, -0.2996577322483063, -1.7132854461669922, 0.31880253553390503
14989, 0.03613157570362091, -0.22359010577201843, 0.02813413180410862, 0.24328087270259857, 0.3093334138393402, 0.021557843312621117, -0.001826829626224935, -0.003619925584644079, 0.9996001124382019, -0.2996577322483063, -1.7132854461669922, 0.31880253553390503, 0.0, 0.0, 0.0, 0, 0, 0, 0, 0, 0, -0.2994874119758606, -1.7162829637527466, 0.3193875253200531
14999, 0.03480839729309082, -0.22554807364940643, 0.029655739665031433, -0.08123241364955902, -0.00377047061920166, 0.08035485446453094, -0.004456476308405399, -0.0026117698289453983, 1.0028605461120605, -0.2994874119758606, -1.7162829637527466, 0.3193875253200531, 0.0, 0.0, 0.0, 0, 0, 0, 0, 0, 0, -0.2992992103099823, -1.719584345817566, 0.3200318217277527
15009, 0.034504786133766174, -0.2262822538614273, 0.02873849682509899, -0.03475995734333992, 0.015930602326989174, -0.0846787542104721, -0.0015848787734284997, -0.0019200972747057676, 1.0024323463439941, -0.2992992103099823, -1.719584345817566, 0.3200318217277527, 0.0, 0.0, 0.0, 0, 0, 0, 0, 0, 0, -0.2991275489330292, -1.7225887775421143, 0.3206196129322052
15019, 0.03453872352838516, -0.22748029232025146, 0.030170084908604622, 0.006653379648923874, 0.061536628752946854, 0.1995440125465393, -0.001991954632103443, -0.004998682998120785, 1.0016971826553345, -0.2991275489330292, -1.7225887775421143, 0.3206196129322052, 0.0, 0.0, 0.0, 0, 0, 0, 0, 0, 0, -0.2991275489330292, -1.7225887775421143, 0.3206196129322052
15029, 0.03437680006027222, -0.22777503728866577, 0.03004014492034912, -0.17573955655097961, -0.09063617885112762, -0.017287395894527435, -0.004386101849377155, -0.003479813924059272, 0.9999864101409912, -0.298954039812088, -1.7255967855453491, 0.3212096095085144, 0.0, 0.0, 0.0, 0, 0, 0, 0, 0, 0, -0.298954039812088, -1.7255967855453491, 0.3212096095085144
15039, 0.03475300595164299, -0.22773464024066925, 0.029488153755664825, 0.012285420671105385, 0.004175073467195034, -0.17694813013076782, -0.0037420233711600304, -0.0031186004634946585, 1.0010888576507568, -0.2987793982028961, -1.728609323501587, 0.32180067896842957, 0.0, 0.0, 0.0, 0, 0, 0, 0, 0, 0, -0.2987793982028961, -1.728609323501587, 0.32180067896842957
15049, 0.034389086067676544, -0.2268947958946228, 0.029762830585241318, -0.14975281059741974, -0.10397116094827652, 0.1041833907365799, -0.002764442004263401, -0.0015828607138246298, 1.0026285648345947, -0.2986048460006714, -1.7316256761550903, 0.32239246368408203, 0.0, 0.0, 0.0, 0, 0, 0, 0, 0, 0, -0.2986048460006714, -1.7316256761550903, 0.32239246368408203
15059, 0.03356729447841644, -0.22675000131130219, 0.030052410438656807, -0.25641852617263794, -0.017077943310141563, 0.0796666145324707, -0.0022570763248950243, -0.0021036542020738125, 1.0009146928787231, -0.2984299063682556, -1.734645128250122, 0.3229859173297882, 0.0, 0.0, 0.0, 0, 0, 0, 0, 0, 0, -0.2984299063682556, -1.734645128250122, 0.3229859173297882
15069, 0.03355258330702782, -0.22612975537776947, 0.030980052426457405, -0.019635766744613647, -0.030206531286239624, 0.11577735841274261, -0.0025261049158871174, -0.0020506614819169044, 1.000603199005127, -0.2982536852359772, -1.7376670837402344, 0.3235813081264496, 0.0, 0.0, 0.0, 0, 0, 0, 0, 0, 0, -0.2982536852359772, -1.7376670837402344, 0.3235813081264496
15079, 0.03423135727643967, -0.2270757555961609, 0.03217587620019913, 0.05083214491605759, 0.17237624526023865, 0.10759655386209488, -0.005445425398647785, -0.0016639989335089922, 1.001001238822937, -0.29807594418525696, -1.7406914234161377, 0.3241777718067169, 0.0, 0.0, 0.0, 0, 0, 0, 0, 0, 0, -0.29807594418525696, -1.7406914234161377, 0.3241777718067169
15089, 0.034561239182949066, -0.22748349606990814, 0.031928423792123795, 0.06997700035572052, 0.03985751047730446, -0.02437766268849373, -0.002091267379000783, -0.0034806313924491405, 1.001317024230957, -0.2978980541229248, -1.7437180280685425, 0.3247748911380768, 0.0, 0.0, 0.0, 0, 0, 0, 0, 0, 0, -0.2978980541229248, -1.7437180280685425, 0.3247748911380768
15099, 0.034673918038606644, -0.22702562808990479, 0.031277742236852646, 0.06848140805959702, -0.10775705426931381, 0.10082986950874329, -0.0009174398146569729, -0.0037249389570206404, 1.003152847290039, -0.2977198660373688, -1.7467477321624756, 0.32537320256233215, 0.0, 0.0, 0.0, 0, 0, 0, 0, 0, 0, -0.2977198660373688, -1.7467477321624756, 0.32537320256233215
15109, 0.03372568264603615, -0.22833950817584991, 0.03093339502811432, -0.09143958985805511, 0.20215800404548645, -0.06181031093001366, -0.0017181445145979524, -0.002872232813388109, 1.001335859298706, -0.29753947257995605, -1.7497814893722534, 0.3259735703468323, 0.0, 0.0, 0.0, 0, 0, 0, 0, 0, 0, -0.29753947257995605, -1.7497814893722534, 0.3259735703468323
15119, 0.03293239325284958, -0.22835399210453033, 0.031638454645872116, -0.03845673054456711, 0.17588332295417786, 0.17575494945049286, -0.003273194655776024, -0.0023764430079609156, 1.0017873048782349, -0.29735633730888367, -1.7528190612792969, 0.3265760540962219, 0.0, 0.0, 0.0, 0, 0, 0, 0, 0, 0, -0.29735633730888367, -1.7528190612792969, 0.3265760540962219
15129, 0.03276819363236427, -0.22728101909160614, 0.03127569332718849, -0.046881694346666336, 0.01724286563694477, -0.03871249407529831, -0.004401115700602531, -0.001749807852320373, 1.0004985332489014, -0.2971715033054352, -1.7558599710464478, 0.32718023657798767, 0.0, 0.0, 0.0, 0, 0, 0, 0, 0, 0, -0.2971715033054352, -1.7558599710464478, 0.32718023657798767
15139, 0.033010706305503845, -0.22660839557647705, 0.032053809612989426, 0.07221698015928268, 0.15429343283176422, 0.223673477768898, -0.0012068008072674274, -0.003649479476734996, 1.0011481046676636, -0.2969864010810852, -1.7589037418365479, 0.32778552174568176, 0.0, 0.0, 0.0, 0, 0, 0, 0, 0, 0, -0.2969864010810852, -1.7589037418365479, 0.32778552174568176
15149, 0.03261750936508179, -0.22518427670001984, 0.030167972669005394, -0.022154824808239937, 0.04192476347088814, -0.1243499368429184, -0.0012674431782215834, 0.0002918447717092931, 1.0032719373703003, -0.2968001663684845, -1.7619508504867554, 0.3283916711807251, 0.0, 0.0, 0.0, 0, 0, 0, 0, 0, 0, -0.2968001663684845, -1.7619508504867554, 0.3283916711807251
15159, 0.033750392496585846, -0.22450745105743408, 0.02910708263516426, 0.1678168922662735, -0.005872029811143875, 0.011003529652953148, -0.0032491283491253853, -0.00045142581802792847, 1.0011656284332275, -0.29661133885383606, -1.7650004625320435, 0.32899993658065796, 0.0, 0.0, 0.0, 0, 0, 0, 0, 0, 0, -0.29661133885383606, -1.7650004625320435, 0.32899993658065796
15169, 0.032868608832359314, -0.22462084889411926, 0.02793530933558941, -0.07166898250579834, 0.23052604496479034, -0.09855861961841583, -0.0028513618744909763, -0.0024169120006263256, 0.9988899230957031, -0.2964205741882324, -1.7680507898330688, 0.32961058616638184, 0.0, 0.0, 0.0, 0, 0, 0, 0, 0, 0, -0.2964205741882324, -1.7680507898330688, 0.32961058616638184
15179, 0.032999079674482346, -0.22235430777072906, 0.027195323258638382, -0.027033081278204918, -0.3507915139198303, -0.043772950768470764, -0.0028866580687463284, -0.0016525667160749435, 0.99799644947052, -0.29622888565063477, -1.771102786064148, 0.33022165298461914, 0.0, 0.0, 0.0, 0, 0, 0, 0, 0, 0, -0.29622888565063477, -1.771102786064148, 0.33022165298461914
15189, 0.03371192514896393, -0.2230234444141388, 0.02684313803911209, 0.07416649162769318, 0.08323781937360764, 0.005659045651555061, -0.0011220130836591125, -0.003261846024543047, 0.9987617135047913, -0.2960363030433655, -1.7741574048995972, 0.33083122968673706, 0.0, 0.0, 0.0, 0, 0, 0, 0, 0, 0, -0.2960363030433655, -1.7741574048995972, 0.33083122968673706
15199, 0.032983433455228806, -0.22288653254508972, 0.027400776743888855, -0.16132394969463348, 0.05720996856689453, 0.22397568821907043, -0.003461458720266819, -0.003930514678359032, 0.9995668530464172, -0.29584208130836487, -1.7772150039672852, 0.33143922686576843, 0.0, 0.0, 0.0, 0, 0, 0, 0, 0, 0, -0.29584208130836487, -1.7772150039672852, 0.33143922686576843
15209, 0.03256455436348915, -0.22186335921287537, 0.026187878102064133, -0.013546068221330643, -0.029991721734404564, -0.12405406683683395, -0.0036543377209454775, -0.004819981288164854, 1.0017529726028442, -0.29564645886421204, -1.7802764177322388, 0.33204612135887146, 0.0, 0.0, 0.0, 0, 0, 0, 0, 0, 0, -0.29564645886421204, -1.7802764177322388, 0.33204612135887146
15219, 0.03220904618501663, -0.22224797308444977, 0.02748076803982258, 0.008713859133422375, 0.1190890297293663, 0.22973430156707764, -0.0007636898662894964, -0.00410100631415844, 1.0006359815597534, -0.295450359582901, -1.783342719078064, 0.3326532244682312, 0.0, 0.0, 0.0, 0, 0, 0, 0, 0, 0, -0.295450359582901, -1.783342719078064, 0.3326532244682312
15229, 0.03321070224046707, -0.22116611897945404, 0.028172053396701813, 0.20279307663440704, -0.2788231074810028, 0.07257562130689621, -0.003052353160455823, -0.0027668550610542297, 1.0022258758544922, -0.29525282979011536, -1.7864140272140503, 0.33326154947280884, 0.0, 0.0, 0.0, 0, 0, 0, 0, 0, 0, -0.29525282979011536, -1.7864140272140503, 0.33326154947280884
