timeTick, roll, pitch, yaw, gyroX, gyroY, gyroZ, accX, accY, accZ, stateX, stateY, stateZ, target_x, target_y, target_z, otX, otY, otZ, otRoll, otPitch, otYaw, kalX, kalY, kalZ
12547, -0.015722371637821198, -0.06353754550218582, -0.054318543523550034, 0, 0, 0, 0, 0, 0, 0, 0, 0, 0, 0, 0, 0, 0, 0, 0, 0, 0, 0, 0, 0
12557, -0.01581738516688347, -0.06307053565979004, -0.0537879504263401, -0.046831294894218445, -0.07351485639810562, 0.19357791543006897, -0.0009464746690355241, -0.0024966083001345396, 1.0001354217529297, 0.13245005905628204, -1.5627636909484863, -0.045742571353912354, 0.0, 0.0, 0.0, 0, 0, 0, 0, 0, 0, 0.13245005905628204, -1.5627636909484863, -0.045742571353912354
12567, -0.01588979735970497, -0.06454354524612427, -0.053962770849466324, 0.02813907526433468, 0.4164523482322693, -0.058731306344270706, 0.00039587877108715475, -0.0007939055794849992, 0.9997119903564453, 0.13286197185516357, -1.5660613775253296, -0.04575401172041893, 0.0, 0.0, 0.0, 0, 0, 0, 0, 0, 0, 0.13286197185516357, -1.5660613775253296, -0.04575401172041893
12577, -0.015339772216975689, -0.06432343274354935, -0.05311785638332367, 0.10946561396121979, -0.2258022278547287, -0.05422809347510338, -0.002360784914344549, -0.0029984107241034508, 0.9997155070304871, 0.13327471911907196, -1.5693604946136475, -0.04576549306511879, 0.0, 0.0, 0.0, 0, 0, 0, 0, 0, 0, 0.13327471911907196, -1.5693604946136475, -0.04576549306511879
12587, -0.014484523795545101, -0.06643923372030258, -0.05177973583340645, 0.13621503114700317, 0.3208443522453308, 0.09798333793878555, -0.0010159044759348035, -0.005890580825507641, 1.0003753900527954, 0.13368768990039825, -1.5726615190505981, -0.04577711597084999, 0.0, 0.0, 0.0, 0, 0, 0, 0, 0, 0, 0.13368768990039825, -1.5726615190505981, -0.04577711597084999
12597, -0.014120509847998619, -0.06354998052120209, -0.05111665651202202, 0.12423486262559891, -0.36357057094573975, -0.015758894383907318, -0.0016286851605400443, -0.004748538602143526, 0.9997835755348206, 0.1341002881526947, -1.575966715812683, -0.0457887277007103, 0.0, 0.0, 0.0, 0, 0, 0, 0, 0, 0, 0.1341002881526947, -1.575966715812683, -0.0457887277007103
12607, -0.013687881641089916, -0.06167283654212952, -0.05288870632648468, 0.11779759079217911, -0.12846864759922028, -0.2951529324054718, -0.0012072441168129444, -0.005182357970625162, 0.999240517616272, 0.1345127820968628, -1.5792768001556396, -0.04580025374889374, 0.0, 0.0, 0.0, 0, 0, 0, 0, 0, 0, 0.1345127820968628, -1.5792768001556396, -0.04580025374889374
12617, -0.014238541945815086, -0.06234855204820633, -0.05413977801799774, -0.0354018472135067, 0.011295333504676819, -0.2041158378124237, 4.6587356337113306e-05, -0.005266544409096241, 1.0011413097381592, 0.1349252313375473, -1.5825914144515991, -0.0458119735121727, 0.0, 0.0, 0.0, 0, 0, 0, 0, 0, 0, 0.1349252313375473, -1.5825914144515991, -0.0458119735121727
12627, -0.015025041066110134, -0.06324426829814911, -0.05519925057888031, -0.07094653695821762, 0.010810759849846363, -0.10055959224700928, -0.0018994061974808574, -0.004190428182482719, 1.0009121894836426, 0.13533815741539001, -1.5859105587005615, -0.045823320746421814, 0.0, 0.0, 0.0, 0, 0, 0, 0, 0, 0, 0.13533815741539001, -1.5859105587005615, -0.045823320746421814
12637, -0.014381179586052895, -0.06182952970266342, -0.0554242841899395, 0.10902103781700134, -0.10300137847661972, 0.13676254451274872, -0.0004544311959762126, -0.0034126988612115383, 0.9994416236877441, 0.13575132191181183, -1.5892339944839478, -0.04583366960287094, 0.0, 0.0, 0.0, 0, 0, 0, 0, 0, 0, 0.13575132191181183, -1.5892339944839478, -0.04583366960287094
12647, -0.014528423547744751, -0.05911954492330551, -0.05630698800086975, -0.06217384710907936, -0.37162089347839355, -0.16725914180278778, -0.0017127026803791523, -0.00467655248939991, 0.9987296462059021, 0.13616469502449036, -1.592560887336731, -0.0458439365029335, 0.0, 0.0, 0.0, 0, 0, 0, 0, 0, 0, 0.13616469502449036, -1.592560887336731, -0.0458439365029335
12657, -0.014638865366578102, -0.05778708681464195, -0.057936083525419235, -0.004595354665070772, -0.3218306601047516, -0.3441389501094818, 0.00036406583967618644, -0.004205952398478985, 0.999111533164978, 0.1365782916545868, -1.5958915948867798, -0.04585510119795799, 0.0, 0.0, 0.0, 0, 0, 0, 0, 0, 0, 0.1365782916545868, -1.5958915948867798, -0.04585510119795799
12667, -0.01611243188381195, -0.05907662957906723, -0.058175500482320786, -0.14352639019489288, 0.373627245426178, 0.1278202384710312, -0.00013663250138051808, -0.002068603876978159, 0.9985690712928772, 0.13699229061603546, -1.5992263555526733, -0.045867204666137695, 0.0, 0.0, 0.0, 0, 0, 0, 0, 0, 0, 0.13699229061603546, -1.5992263555526733, -0.045867204666137695
12677, -0.015319614671170712, -0.05964938551187515, -0.05862640589475632, 0.05382571369409561, 0.040919456630945206, -0.13014525175094604, -0.0024644650984555483, -0.0033754839096218348, 0.9998582005500793, 0.13740719854831696, -1.6025638580322266, -0.04588041082024574, 0.0, 0.0, 0.0, 0, 0, 0, 0, 0, 0, 0.13740719854831696, -1.6025638580322266, -0.04588041082024574
12687, -0.015844406560063362, -0.05867534503340721, -0.05905554071068764, -0.10064047574996948, -0.08119367808103561, 0.004089002031832933, -0.0006724555278196931, -0.0027806852012872696, 0.999245822429657, 0.13782194256782532, -1.6059036254882812, -0.04589444398880005, 0.0, 0.0, 0.0, 0, 0, 0, 0, 0, 0, 0.13782194256782532, -1.6059036254882812, -0.04589444398880005
12697, -0.015421187505126, -0.058014437556266785, -0.05906695872545242, -0.01916181482374668, -0.1117267832159996, -0.03491971641778946, -0.0006906314520165324, -0.0028581456281244755, 0.997824490070343, 0.13823629915714264, -1.6092461347579956, -0.045908987522125244, 0.0, 0.0, 0.0, 0, 0, 0, 0, 0, 0, 0.13823629915714264, -1.6092461347579956, -0.045908987522125244
12707, -0.015536808408796787, -0.05669717118144035, -0.059748563915491104, -0.0734843909740448, -0.25428569316864014, -0.061061374843120575, 0.0014001551317051053, -0.0026264279149472713, 0.9983644485473633, 0.13865116238594055, -1.6125913858413696, -0.04592491686344147, 0.0, 0.0, 0.0, 0, 0, 0, 0, 0, 0, 0.13865116238594055, -1.6125913858413696, -0.04592491686344147
12717, -0.015661222860217094, -0.05556239187717438, -0.06032105162739754, -0.02821509540081024, -0.015577144920825958, 0.026473090052604675, -0.000523370981682092, -0.0018299623625352979, 1.0009695291519165, 0.13906744122505188, -1.6159390211105347, -0.04594234749674797, 0.0, 0.0, 0.0, 0, 0, 0, 0, 0, 0, 0.13906744122505188, -1.6159390211105347, -0.04594234749674797
12727, -0.014685122296214104, -0.05594955012202263, -0.059654928743839264, 0.2122502475976944, -0.02867722138762474, 0.179596409201622, -0.0008118977420963347, -0.001438488019630313, 1.0017316341400146, 0.13948507606983185, -1.6192888021469116, -0.045959699898958206, 0.0, 0.0, 0.0, 0, 0, 0, 0, 0, 0, 0.13948507606983185, -1.6192888021469116, -0.045959699898958206
12737, -0.01533795427531004, -0.0550871267914772, -0.06091375648975372, -0.08308373391628265, -0.08308563381433487, -0.3555266559123993, -0.001125230686739087, -0.0032680013682693243, 0.9973909854888916, 0.1399030238389969, -1.6226401329040527, -0.045975808054208755, 0.0, 0.0, 0.0, 0, 0, 0, 0, 0, 0, 0.1399030238389969, -1.6226401329040527, -0.045975808054208755
12747, -0.01466290932148695, -0.05364568158984184, -0.06034213677048683, 0.002007694449275732, -0.13075266778469086, 0.08559765666723251, -0.0013191112084314227, -0.0062162792310118675, 0.9966457486152649, 0.14032095670700073, -1.6259937286376953, -0.0459924079477787, 0.0, 0.0, 0.0, 0, 0, 0, 0, 0, 0, 0.14032095670700073, -1.6259937286376953, -0.0459924079477787
12757, -0.015397263690829277, -0.05367658659815788, -0.05971039831638336, -0.1878754049539566, -0.09517291188240051, 0.08238647133111954, 0.00130792788695544, -0.004246881231665611, 0.9984914064407349, 0.14073888957500458, -1.6293518543243408, -0.04601164907217026, 0.0, 0.0, 0.0, 0, 0, 0, 0, 0, 0, 0.14073888957500458, -1.6293518543243408, -0.04601164907217026
12767, -0.015016783960163593, -0.05353345349431038, -0.06125469505786896, 0.10900166630744934, -0.027579648420214653, -0.22093811631202698, 0.0005545917083509266, -0.0028418509755283594, 0.9985227584838867, 0.14115776121616364, -1.6327146291732788, -0.04603308066725731, 0.0, 0.0, 0.0, 0, 0, 0, 0, 0, 0, 0.14115776121616364, -1.6327146291732788, -0.04603308066725731
12777, -0.015054851770401001, -0.05301833525300026, -0.06127098947763443, -0.028843821957707405, -0.19989578425884247, -0.1342317909002304, 0.00016100803622975945, -0.004319415427744389, 0.9991480112075806, 0.14157816767692566, -1.6360806226730347, -0.046055786311626434, 0.0, 0.0, 0.0, 0, 0, 0, 0, 0, 0, 0.14157816767692566, -1.6360806226730347, -0.046055786311626434
12787, -0.014840246178209782, -0.05346298590302467, -0.06191478669643402, 0.008574034087359905, 0.09976811707019806, -0.16071175038814545, 0.0017412734450772405, -0.004754260648041964, 1.0003345012664795, 0.14199988543987274, -1.6394498348236084, -0.046079427003860474, 0.0, 0.0, 0.0, 0, 0, 0, 0, 0, 0, 0.14199988543987274, -1.6394498348236084, -0.046079427003860474
12797, -0.015120907686650753, -0.05460376664996147, -0.06317754089832306, -0.10900817811489105, 0.146641805768013, -0.13085870444774628, 0.0011753427097573876, -0.005013616755604744, 1.0014992952346802, 0.14242364466190338, -1.6428229808807373, -0.04610324278473854, 0.0, 0.0, 0.0, 0, 0, 0, 0, 0, 0, 0.14242364466190338, -1.6428229808807373, -0.04610324278473854
12807, -0.014811047352850437, -0.05372204631567001, -0.063315749168396, 0.024161072447896004, -0.005192323587834835, -0.021049048751592636, -0.0007843105704523623, -0.005547617096453905, 0.9999075531959534, 0.14284983277320862, -1.6462006568908691, -0.04612629860639572, 0.0, 0.0, 0.0, 0, 0, 0, 0, 0, 0, 0.14284983277320862, -1.6462006568908691, -0.04612629860639572
12817, -0.015648460015654564, -0.051045872271060944, -0.06434806436300278, -0.07875152677297592, -0.3385683298110962, -0.21931825578212738, -0.0017429611179977655, -0.0034209026489406824, 0.9986982941627502, 0.1432771235704422, -1.649583101272583, -0.046148985624313354, 0.0, 0.0, 0.0, 0, 0, 0, 0, 0, 0, 0.1432771235704422, -1.649583101272583, -0.046148985624313354
12827, -0.015355696901679039, -0.05069173872470856, -0.0639132633805275, 0.00018209125846624374, -0.1524585634469986, -0.028171731159090996, -0.0015865231398493052, -0.005161828361451626, 0.999409019947052, 0.14370402693748474, -1.6529697179794312, -0.04617246985435486, 0.0, 0.0, 0.0, 0, 0, 0, 0, 0, 0, 0.14370402693748474, -1.6529697179794312, -0.04617246985435486
12837, -0.01385238952934742, -0.05041482299566269, -0.06494984775781631, 0.1929369419813156, -0.1408991664648056, -0.2343624085187912, -0.0010850782273337245, -0.004238634370267391, 0.997957170009613, 0.14413011074066162, -1.6563605070114136, -0.0461970791220665, 0.0, 0.0, 0.0, 0, 0, 0, 0, 0, 0, 0.14413011074066162, -1.6563605070114136, -0.0461970791220665
12847, -0.014048991724848747, -0.051223274320364, -0.06425011157989502, -0.06593667715787888, 0.09312868118286133, 0.09187528491020203, 0.0003616261528804898, -0.0004561264649964869, 1.000645399093628, 0.1445559412240982, -1.6597554683685303, -0.04622303694486618, 0.0, 0.0, 0.0, 0, 0, 0, 0, 0, 0, 0.1445559412240982, -1.6597554683685303, -0.04622303694486618
12857, -0.013330801390111446, -0.05053659528493881, -0.06610484421253204, 0.032228805124759674, -0.015553833916783333, -0.41590869426727295, -0.0007267805631272495, -0.0015658948104828596, 0.9986290335655212, 0.144982248544693, -1.6631525754928589, -0.04624973610043526, 0.0, 0.0, 0.0, 0, 0, 0, 0, 0, 0, 0.144982248544693, -1.6631525754928589, -0.04624973610043526
12867, -0.012477386742830276, -0.052661553025245667, -0.06552343815565109, 0.16288821399211884, 0.1875423789024353, 0.10881417244672775, -0.00012458970013540238, -0.001772039569914341, 0.9998098015785217, 0.14540906250476837, -1.666550636291504, -0.046276841312646866, 0.0, 0.0, 0.0, 0, 0, 0, 0, 0, 0, 0.14540906250476837, -1.666550636291504, -0.046276841312646866
12877, -0.014029213227331638, -0.05346623808145523, -0.06586034595966339, -0.16582325100898743, 0.0038757994771003723, -0.042989134788513184, -0.0014095777878537774, -0.001980947097763419, 1.000745415687561, 0.14583642780780792, -1.669950008392334, -0.046304333955049515, 0.0, 0.0, 0.0, 0, 0, 0, 0, 0, 0, 0.14583642780780792, -1.669950008392334, -0.046304333955049515
12887, -0.015286172740161419, -0.05331781506538391, -0.06640033423900604, -0.05707661807537079, -0.12403223663568497, 0.03235988691449165, -0.0009019834687933326, -0.002486596815288067, 0.9996229410171509, 0.14626406133174896, -1.6733509302139282, -0.046331342309713364, 0.0, 0.0, 0.0, 0, 0, 0, 0, 0, 0, 0.14626406133174896, -1.6733509302139282, -0.046331342309713364
12897, -0.015664441511034966, -0.05257067829370499, -0.06623560190200806, 0.05851532146334648, -0.1017434373497963, 0.09844699501991272, -0.002161414595320821, -0.0018644555239006877, 0.9996629953384399, 0.14669136703014374, -1.6767537593841553, -0.04635809361934662, 0.0, 0.0, 0.0, 0, 0, 0, 0, 0, 0, 0.14669136703014374, -1.6767537593841553, -0.04635809361934662
12907, -0.015570462681353092, -0.053162865340709686, -0.06662978231906891, -0.025071242824196815, 0.10076557099819183, -0.062099639326334, -0.00011395028559491038, -0.002995390212163329, 1.0000102519989014, 0.14711810648441315, -1.6801584959030151, -0.046385131776332855, 0.0, 0.0, 0.0, 0, 0, 0, 0, 0, 0, 0.14711810648441315, -1.6801584959030151, -0.046385131776332855
12917, -0.014929677359759808, -0.05429767072200775, -0.0655636265873909, 0.07617296278476715, -0.029199598357081413, 0.16545116901397705, -0.001542482990771532, -0.0038855622988194227, 0.9998758435249329, 0.14754483103752136, -1.6835654973983765, -0.0464123860001564, 0.0, 0.0, 0.0, 0, 0, 0, 0, 0, 0, 0.14754483103752136, -1.6835654973983765, -0.0464123860001564
12927, -0.014486478641629219, -0.05563047528266907, -0.0650777742266655, 0.02491610124707222, -0.020634576678276062, 0.08181066066026688, -0.0016020056791603565, -0.005769276991486549, 0.9997485280036926, 0.1479717344045639, -1.6869755983352661, -0.046439699828624725, 0.0, 0.0, 0.0, 0, 0, 0, 0, 0, 0, 0.1479717344045639, -1.6869755983352661, -0.046439699828624725
12937, -0.015455654822289944, -0.05477246269583702, -0.06518936902284622, -0.16273072361946106, 0.03732891008257866, -0.21784579753875732, -0.002126956358551979, -0.005743626970797777, 1.000376582145691, 0.14839814603328705, -1.6903902292251587, -0.04646705090999603, 0.0, 0.0, 0.0, 0, 0, 0, 0, 0, 0, 0.14839814603328705, -1.6903902292251587, -0.04646705090999603
12947, -0.015119243413209915, -0.056269142776727676, -0.06469567865133286, 0.10995044559240341, 0.1374719887971878, 0.11905617266893387, -0.0001255716197192669, -0.004187425132840872, 0.9983464479446411, 0.1488238126039505, -1.693810224533081, -0.04649437218904495, 0.0, 0.0, 0.0, 0, 0, 0, 0, 0, 0, 0.1488238126039505, -1.693810224533081, -0.04649437218904495
12957, -0.015938473865389824, -0.05450000241398811, -0.06636158376932144, -0.1669304370880127, -0.05658752843737602, -0.0910458043217659, 0.0011306743836030364, -0.004411107860505581, 0.9993378520011902, 0.14924943447113037, -1.6972346305847168, -0.04652250185608864, 0.0, 0.0, 0.0, 0, 0, 0, 0, 0, 0, 0.14924943447113037, -1.6972346305847168, -0.04652250185608864
12967, -0.016130603849887848, -0.05433687940239906, -0.06590007990598679, -0.06943795830011368, 0.05450356379151344, 0.012916643172502518, 0.0020100956317037344, -0.0069370511919260025, 0.9988141655921936, 0.14967651665210724, -1.7006630897521973, -0.04655188322067261, 0.0, 0.0, 0.0, 0, 0, 0, 0, 0, 0, 0.14967651665210724, -1.7006630897521973, -0.04655188322067261
12977, -0.01626470871269703, -0.05439513549208641, -0.06664824485778809, -0.027817554771900177, 0.15865641832351685, -0.16247886419296265, 0.0001696835970506072, -0.0032117944210767746, 0.9988266229629517, 0.15010595321655273, -1.704096794128418, -0.04658229649066925, 0.0, 0.0, 0.0, 0, 0, 0, 0, 0, 0, 0.15010595321655273, -1.704096794128418, -0.04658229649066925
12987, -0.01636459119617939, -0.054039567708969116, -0.06718038767576218, -0.01604044996201992, -0.10645373910665512, -0.023685308173298836, -0.0013592643663287163, -0.0025028230156749487, 0.9985080361366272, 0.1505371779203415, -1.7075351476669312, -0.046614017337560654, 0.0, 0.0, 0.0, 0, 0, 0, 0, 0, 0, 0.1505371779203415, -1.7075351476669312, -0.046614017337560654
12997, -0.01620740257203579, -0.052458859980106354, -0.0666511133313179, 0.0473705418407917, -0.1729194074869156, 0.0739779993891716, -0.001713259844109416, -0.0033385525457561016, 0.9995031356811523, 0.1509687900543213, -1.7109763622283936, -0.0466470941901207, 0.0, 0.0, 0.0, 0, 0, 0, 0, 0, 0, 0.1509687900543213, -1.7109763622283936, -0.0466470941901207
13007, -0.015344111248850822, -0.05229531228542328, -0.06768281012773514, 0.244519904255867, -0.021540265530347824, -0.10217157751321793, -0.00022995320614427328, -0.00465345848351717, 1.0002050399780273, 0.15140001475811005, -1.7144204378128052, -0.046681154519319534, 0.0, 0.0, 0.0, 0, 0, 0, 0, 0, 0, 0.15140001475811005, -1.7144204378128052, -0.046681154519319534
13017, -0.01554342545568943, -0.05331197381019592, -0.06782154738903046, 0.13283300399780273, 0.19232943654060364, 0.04548770561814308, 0.001347147743217647, -0.0014287829399108887, 1.0010703802108765, 0.15183131396770477, -1.7178680896759033, -0.046715423464775085, 0.0, 0.0, 0.0, 0, 0, 0, 0, 0, 0, 0.15183131396770477, -1.7178680896759033, -0.046715423464775085
13027, -0.01548257376998663, -0.053727585822343826, -0.06701714545488358, 0.08909104764461517, 0.12270423024892807, 0.33690619468688965, 0.0003547192900441587, -0.0045591783709824085, 0.999876081943512, 0.15226395428180695, -1.7213184833526611, -0.046749189496040344, 0.0, 0.0, 0.0, 0, 0, 0, 0, 0, 0, 0.15226395428180695, -1.7213184833526611, -0.046749189496040344
13037, -0.016202419996261597, -0.053170450031757355, -0.06791771948337555, -0.0653981864452362, -0.10738877952098846, -0.058197956532239914, 0.0002629328810144216, -0.004584270529448986, 1.0010885000228882, 0.15269827842712402, -1.7247713804244995, -0.04678238555788994, 0.0, 0.0, 0.0, 0, 0, 0, 0, 0, 0, 0.15269827842712402, -1.7247713804244995, -0.04678238555788994
13047, -0.016941826790571213, -0.0527774840593338, -0.06806488335132599, -0.12359499931335449, -0.10229112207889557, 0.022093268111348152, -0.00035869405837729573, -0.0050252145156264305, 1.0004934072494507, 0.15313389897346497, -1.7282283306121826, -0.04681491106748581, 0.0, 0.0, 0.0, 0, 0, 0, 0, 0, 0, 0.15313389897346497, -1.7282283306121826, -0.04681491106748581
13057, -0.0163272637873888, -0.05527375638484955, -0.06835231184959412, 0.2585877776145935, 0.5090806484222412, -0.05883730947971344, 0.00026625022292137146, -0.0036512885708361864, 0.9986333250999451, 0.1535705327987671, -1.7316898107528687, -0.04684668406844139, 0.0, 0.0, 0.0, 0, 0, 0, 0, 0, 0, 0.1535705327987671, -1.7316898107528687, -0.04684668406844139
13067, -0.015185357071459293, -0.054326485842466354, -0.06831919401884079, 0.11341627687215805, -0.025917571038007736, -0.041645124554634094, -0.0021259523928165436, -0.004452923312783241, 0.9997683167457581, 0.1540079563856125, -1.735155463218689, -0.04687875881791115, 0.0, 0.0, 0.0, 0, 0, 0, 0, 0, 0, 0.1540079563856125, -1.735155463218689, -0.04687875881791115
13077, -0.015246447175741196, -0.052569322288036346, -0.06876885890960693, -0.013309836387634277, -0.21277736127376556, -0.16122983396053314, -0.001982971327379346, -0.0034698552917689085, 0.9996720552444458, 0.15444529056549072, -1.7386248111724854, -0.046911612153053284, 0.0, 0.0, 0.0, 0, 0, 0, 0, 0, 0, 0.15444529056549072, -1.7386248111724854, -0.046911612153053284
13087, -0.015847429633140564, -0.051504433155059814, -0.06767389178276062, -0.18498095870018005, -0.07731882482767105, 0.004002051893621683, -0.0008358911145478487, -0.002336508594453335, 1.0012925863265991, 0.15488168597221375, -1.7420974969863892, -0.04694487154483795, 0.0, 0.0, 0.0, 0, 0, 0, 0, 0, 0, 0.15488168597221375, -1.7420974969863892, -0.04694487154483795
13097, -0.015978381037712097, -0.05017868056893349, -0.06699316948652267, -0.1272633671760559, -0.25565749406814575, -0.0933714509010315, -0.0009268839494325221, -0.006285889074206352, 1.0020841360092163, 0.1553175300359726, -1.7455729246139526, -0.04697771370410919, 0.0, 0.0, 0.0, 0, 0, 0, 0, 0, 0, 0.1553175300359726, -1.7455729246139526, -0.04697771370410919
13107, -0.01618470810353756, -0.05192297697067261, -0.06632842123508453, -0.09701016545295715, 0.07325845211744308, -0.04298960044980049, -0.0004810010432265699, -0.004136068280786276, 1.0000859498977661, 0.15575329959392548, -1.7490522861480713, -0.047009095549583435, 0.0, 0.0, 0.0, 0, 0, 0, 0, 0, 0, 0.15575329959392548, -1.7490522861480713, -0.047009095549583435
13117, -0.016535082831978798, -0.0533730573952198, -0.06617020070552826, 0.025037752464413643, 0.2013465315103531, 0.0033446650486439466, 0.00015791378973517567, -0.002100478857755661, 0.999411940574646, 0.15618932247161865, -1.752536416053772, -0.04703943058848381, 0.0, 0.0, 0.0, 0, 0, 0, 0, 0, 0, 0.15618932247161865, -1.752536416053772, -0.04703943058848381
13127, -0.016836971044540405, -0.05292179435491562, -0.067057304084301, -0.05953662842512131, -0.23345264792442322, -0.027231279760599136, -0.0005655491258949041, -0.004121460951864719, 0.9993841648101807, 0.1566261351108551, -1.7560235261917114, -0.04706992208957672, 0.0, 0.0, 0.0, 0, 0, 0, 0, 0, 0, 0.1566261351108551, -1.7560235261917114, -0.04706992208957672
13137, -0.016088074073195457, -0.05179419368505478, -0.06796817481517792, 0.1815127432346344, -0.06426093727350235, -0.11433330178260803, 0.0005846105050295591, -0.0027706678956747055, 0.9986755847930908, 0.15706394612789154, -1.7595133781433105, -0.047101106494665146, 0.0, 0.0, 0.0, 0, 0, 0, 0, 0, 0, 0.15706394612789154, -1.7595133781433105, -0.047101106494665146
13147, -0.015721192583441734, -0.05287780985236168, -0.06799415498971939, 0.03358688950538635, 0.22432224452495575, -0.14586621522903442, 0.0014074505306780338, -0.003025004407390952, 0.9994196891784668, 0.15750297904014587, -1.7630060911178589, -0.047133173793554306, 0.0, 0.0, 0.0, 0, 0, 0, 0, 0, 0, 0.15750297904014587, -1.7630060911178589, -0.047133173793554306
13157, -0.014645039103925228, -0.05186160281300545, -0.06806474924087524, 0.014879041351377964, -0.13221517205238342, 0.00331743061542511, 0.0004920169012621045, -0.0030983728356659412, 1.0016523599624634, 0.1579439491033554, -1.7665013074874878, -0.04716596007347107, 0.0, 0.0, 0.0, 0, 0, 0, 0, 0, 0, 0.1579439491033554, -1.7665013074874878, -0.04716596007347107
13167, -0.013831166550517082, -0.05197274684906006, -0.06850779056549072, 0.048246294260025024, -0.10259238630533218, -0.1359211802482605, -0.0010064352536574006, -0.0008951631025411189, 0.9988802075386047, 0.15838663280010223, -1.7699992656707764, -0.04719829931855202, 0.0, 0.0, 0.0, 0, 0, 0, 0, 0, 0, 0.15838663280010223, -1.7699992656707764, -0.04719829931855202
13177, -0.01382094994187355, -0.05255915969610214, -0.06925484538078308, -0.03495168685913086, 0.18053002655506134, -0.0852767676115036, -0.0028675547800958157, -0.003068252932280302, 0.9985100626945496, 0.1588297188282013, -1.7734990119934082, -0.047230541706085205, 0.0, 0.0, 0.0, 0, 0, 0, 0, 0, 0, 0.1588297188282013, -1.7734990119934082, -0.047230541706085205
13187, -0.01406348031014204, -0.051111262291669846, -0.06990886479616165, 0.00176311528775841, -0.22266244888305664, -0.20063236355781555, -0.003573283087462187, -0.0018876655958592892, 1.0013967752456665, 0.15927165746688843, -1.7770005464553833, -0.04726388677954674, 0.0, 0.0, 0.0, 0, 0, 0, 0, 0, 0, 0.15927165746688843, -1.7770005464553833, -0.04726388677954674
13197, -0.013497954234480858, -0.05112190917134285, -0.06973008066415787, 0.09430918097496033, -0.10205072164535522, 0.10280130058526993, -0.0006948354421183467, -0.001809021458029747, 0.9994317889213562, 0.1597115397453308, -1.7805041074752808, -0.04729728400707245, 0.0, 0.0, 0.0, 0, 0, 0, 0, 0, 0, 0.1597115397453308, -1.7805041074752808, -0.04729728400707245
13207, -0.013665894977748394, -0.05207429826259613, -0.07086150348186493, -0.14669430255889893, 0.06176361069083214, -0.26965102553367615, -0.0008974653901532292, -0.004020764958113432, 0.9971290826797485, 0.16015033423900604, -1.7840094566345215, -0.047330599278211594, 0.0, 0.0, 0.0, 0, 0, 0, 0, 0, 0, 0.16015033423900604, -1.7840094566345215, -0.047330599278211594
13217, -0.01293426938354969, -0.052254561334848404, -0.07109560817480087, 0.07284713536500931, -0.07868632674217224, -0.08830549567937851, -0.0003346794983372092, -0.0026676661800593138, 0.9986240267753601, 0.16058921813964844, -1.7875174283981323, -0.04736563563346863, 0.0, 0.0, 0.0, 0, 0, 0, 0, 0, 0, 0.16058921813964844, -1.7875174283981323, -0.04736563563346863
13227, -0.011499951593577862, -0.05226248875260353, -0.07061509042978287, 0.1603684425354004, 0.06139587238430977, -0.10075576603412628, -0.0004738647257909179, -0.005056627560406923, 0.9992356896400452, 0.16102850437164307, -1.791028618812561, -0.047402624040842056, 0.0, 0.0, 0.0, 0, 0, 0, 0, 0, 0, 0.16102850437164307, -1.791028618812561, -0.047402624040842056
13237, -0.011315231211483479, -0.05367998033761978, -0.06910256296396255, 0.016793223097920418, 0.20292982459068298, 0.20345620810985565, -0.00018862704746425152, -0.00394650362432003, 0.9998454451560974, 0.16146832704544067, -1.794543743133545, -0.04744064435362816, 0.0, 0.0, 0.0, 0, 0, 0, 0, 0, 0, 0.16146832704544067, -1.794543743133545, -0.04744064435362816
13247, -0.011836943216621876, -0.054876573383808136, -0.06999517977237701, 0.009855281561613083, 0.5201690793037415, -0.17204298079013824, 0.0010193258058279753, -0.004113730974495411, 1.0017913579940796, 0.16190892457962036, -1.798063039779663, -0.047478873282670975, 0.0, 0.0, 0.0, 0, 0, 0, 0, 0, 0, 0.16190892457962036, -1.798063039779663, -0.047478873282670975
13257, -0.011952376924455166, -0.053441643714904785, -0.0694224163889885, 0.009282531216740608, -0.08733346313238144, 0.0307802502065897, 0.0004193609347566962, -0.004325482062995434, 0.9987879991531372, 0.16235093772411346, -1.8015861511230469, -0.047516025602817535, 0.0, 0.0, 0.0, 0, 0, 0, 0, 0, 0, 0.16235093772411346, -1.8015861511230469, -0.047516025602817535
13267, -0.0116682518273592, -0.05156484991312027, -0.07031426578760147, -0.019589697942137718, -0.14122185111045837, -0.17475587129592896, 0.0021493358071893454, -0.00484691746532917, 0.9977425336837769, 0.16279460489749908, -1.8051133155822754, -0.047552794218063354, 0.0, 0.0, 0.0, 0, 0, 0, 0, 0, 0, 0.16279460489749908, -1.8051133155822754, -0.047552794218063354
13277, -0.012078880332410336, -0.04972505569458008, -0.07232192903757095, -0.042674727737903595, -0.1659570038318634, -0.23747435212135315, -0.0011209779186174273, -0.004351378884166479, 0.9980116486549377, 0.1632402241230011, -1.8086448907852173, -0.04759114608168602, 0.0, 0.0, 0.0, 0, 0, 0, 0, 0, 0, 0.1632402241230011, -1.8086448907852173, -0.04759114608168602
13287, -0.01087426021695137, -0.04834490641951561, -0.07212140411138535, 0.11427488923072815, -0.09638465940952301, 0.019247669726610184, 0.0017139639239758253, -0.004271254409104586, 1.000752329826355, 0.16368721425533295, -1.8121808767318726, -0.04763151705265045, 0.0, 0.0, 0.0, 0, 0, 0, 0, 0, 0, 0.16368721425533295, -1.8121808767318726, -0.04763151705265045
13297, -0.011779052205383778, -0.05059084668755531, -0.07372944802045822, -0.13309520483016968, 0.16568531095981598, -0.2813316881656647, -0.002001402201130986, -0.00241954461671412, 1.0010647773742676, 0.16413535177707672, -1.8157209157943726, -0.04767243191599846, 0.0, 0.0, 0.0, 0, 0, 0, 0, 0, 0, 0.16413535177707672, -1.8157209157943726, -0.04767243191599846
13307, -0.012492677196860313, -0.0529281385242939, -0.0724313035607338, -0.07413635402917862, 0.3251241147518158, 0.23676812648773193, 0.0004927119589410722, -0.0021071636583656073, 0.9998376369476318, 0.16458401083946228, -1.81926429271698, -0.04771239310503006, 0.0, 0.0, 0.0, 0, 0, 0, 0, 0, 0, 0.16458401083946228, -1.81926429271698, -0.04771239310503006
13317, -0.011327148415148258, -0.050444263964891434, -0.07331758737564087, 0.16988475620746613, -0.32579851150512695, -0.11441811174154282, 0.0012113706907257438, -0.0046419911086559296, 1.000579833984375, 0.1650327444076538, -1.8228099346160889, -0.047751884907484055, 0.0, 0.0, 0.0, 0, 0, 0, 0, 0, 0, 0.1650327444076538, -1.8228099346160889, -0.047751884907484055
13327, -0.012353225611150265, -0.048210710287094116, -0.07390858232975006, -0.19828811287879944, -0.24322694540023804, -0.10812635719776154, -0.0015554054407402873, -0.006748662330210209, 1.0013113021850586, 0.16548286378383636, -1.8263587951660156, -0.047791268676519394, 0.0, 0.0, 0.0, 0, 0, 0, 0, 0, 0, 0.16548286378383636, -1.8263587951660156, -0.047791268676519394
13337, -0.011452957056462765, -0.04821139574050903, -0.07304846495389938, 0.05282419174909592, -0.11033757776021957, 0.030750278383493423, 0.00013945085811428726, -0.004368294961750507, 1.000321626663208, 0.16593363881111145, -1.829912781715393, -0.04782985523343086, 0.0, 0.0, 0.0, 0, 0, 0, 0, 0, 0, 0.16593363881111145, -1.829912781715393, -0.04782985523343086
13347, -0.011321012862026691, -0.04859327897429466, -0.07300587743520737, 0.05031751096248627, 0.04162153601646423, 0.04080621525645256, -5.579417847911827e-05, -0.003316940041258931, 0.9980249404907227, 0.1663845181465149, -1.8334721326828003, -0.04786757379770279, 0.0, 0.0, 0.0, 0, 0, 0, 0, 0, 0, 0.1663845181465149, -1.8334721326828003, -0.04786757379770279
13357, -0.010223696939647198, -0.04916127026081085, -0.0731436163187027, 0.23850557208061218, 0.06119151413440704, 0.01962059736251831, -0.0005951718194410205, -0.002515902742743492, 0.9993354678153992, 0.16683606803417206, -1.8370352983474731, -0.04790586605668068, 0.0, 0.0, 0.0, 0, 0, 0, 0, 0, 0, 0.16683606803417206, -1.8370352983474731, -0.04790586605668068
13367, -0.010934269987046719, -0.0494176410138607, -0.07408658415079117, -0.010547171346843243, 0.08235682547092438, -0.056985437870025635, 0.00029003171948716044, -0.0035759275779128075, 1.0005496740341187, 0.1672881841659546, -1.8406014442443848, -0.04794543236494064, 0.0, 0.0, 0.0, 0, 0, 0, 0, 0, 0, 0.1672881841659546, -1.8406014442443848, -0.04794543236494064
13377, -0.010081171989440918, -0.0501512810587883, -0.07396304607391357, 0.2120799869298935, 0.1878669112920761, 0.05557585135102272, -0.0023299993481487036, -0.003404180286452174, 1.0016642808914185, 0.16774101555347443, -1.8441704511642456, -0.047985274344682693, 0.0, 0.0, 0.0, 0, 0, 0, 0, 0, 0, 0.16774101555347443, -1.8441704511642456, -0.047985274344682693
13387, -0.010679379105567932, -0.0507129468023777, -0.07424398511648178, -0.059087831526994705, 0.0791911780834198, 0.0080878222361207, -0.002588120987638831, -0.00519937090575695, 1.0000067949295044, 0.1681937277317047, -1.8477426767349243, -0.04802422970533371, 0.0, 0.0, 0.0, 0, 0, 0, 0, 0, 0, 0.1681937277317047, -1.8477426767349243, -0.04802422970533371
13397, -0.01053039450198412, -0.04779938980937004, -0.07370946556329727, -0.0494527630507946, -0.2657046914100647, -0.01679203286767006, 0.0001873241417342797, -0.004369550384581089, 1.0004158020019531, 0.16864517331123352, -1.8513188362121582, -0.048062365502119064, 0.0, 0.0, 0.0, 0, 0, 0, 0, 0, 0, 0.16864517331123352, -1.8513188362121582, -0.048062365502119064
13407, -0.009837377816438675, -0.04693009704351425, -0.07494141906499863, 0.09485918283462524, -0.038577087223529816, -0.16517770290374756, -9.860721183940768e-05, -0.005022834055125713, 1.0019699335098267, 0.1690964251756668, -1.854899287223816, -0.04810010641813278, 0.0, 0.0, 0.0, 0, 0, 0, 0, 0, 0, 0.1690964251756668, -1.854899287223816, -0.04810010641813278
13417, -0.010283715091645718, -0.04775159806013107, -0.07409561425447464, -0.031221812590956688, 0.23638759553432465, 0.18284475803375244, 0.0014094123616814613, -0.0043083070777356625, 1.0026094913482666, 0.16954858601093292, -1.858484148979187, -0.04813668504357338, 0.0, 0.0, 0.0, 0, 0, 0, 0, 0, 0, 0.16954858601093292, -1.858484148979187, -0.04813668504357338
13427, -0.009846632368862629, -0.04728592559695244, -0.07349874824285507, 0.07591810077428818, -0.03638513758778572, 0.08203005790710449, -0.0012890913058072329, -0.00415584584698081, 1.0015417337417603, 0.17000217735767365, -1.8620734214782715, -0.048171281814575195, 0.0, 0.0, 0.0, 0, 0, 0, 0, 0, 0, 0.17000217735767365, -1.8620734214782715, -0.048171281814575195
13437, -0.010398400016129017, -0.04745010286569595, -0.07281947135925293, -0.12047000229358673, 0.1105952337384224, 0.005111451260745525, -0.0013770271325483918, -0.0038593856152147055, 1.0009195804595947, 0.1704566925764084, -1.8656666278839111, -0.0482039600610733, 0.0, 0.0, 0.0, 0, 0, 0, 0, 0, 0, 0.1704566925764084, -1.8656666278839111, -0.0482039600610733
13447, -0.010738195851445198, -0.04700593650341034, -0.07501089572906494, 0.006603612098842859, 0.07467523217201233, -0.3187696933746338, -0.0010503851808607578, -0.004862612579017878, 0.9991722106933594, 0.1709107756614685, -1.869263768196106, -0.04823542386293411, 0.0, 0.0, 0.0, 0, 0, 0, 0, 0, 0, 0.1709107756614685, -1.869263768196106, -0.04823542386293411
13457, -0.011395590379834175, -0.04956476390361786, -0.07468950003385544, -0.06447761505842209, 0.2836146652698517, 0.09840529412031174, 0.00018992486002389342, -0.0036536932457238436, 0.9967578649520874, 0.17136448621749878, -1.872865080833435, -0.04826705530285835, 0.0, 0.0, 0.0, 0, 0, 0, 0, 0, 0, 0.17136448621749878, -1.872865080833435, -0.04826705530285835
13467, -0.011633498594164848, -0.05010703578591347, -0.07510583102703094, -0.05507422611117363, 0.03700864315032959, -0.13751429319381714, 0.00253849383443594, -0.0037705092690885067, 0.9997609853744507, 0.17181868851184845, -1.8764704465866089, -0.048300743103027344, 0.0, 0.0, 0.0, 0, 0, 0, 0, 0, 0, 0.17181868851184845, -1.8764704465866089, -0.048300743103027344
13477, -0.011405117809772491, -0.049304645508527756, -0.07565981894731522, 0.12321492284536362, -0.24166928231716156, -0.030756214633584023, 0.0017853823956102133, -0.0017785239033401012, 0.998768150806427, 0.1722748875617981, -1.8800790309906006, -0.04833616316318512, 0.0, 0.0, 0.0, 0, 0, 0, 0, 0, 0, 0.1722748875617981, -1.8800790309906006, -0.04833616316318512
13487, -0.011328455060720444, -0.048392776399850845, -0.07516816258430481, -0.013176670297980309, -0.12394688278436661, 0.1497766077518463, -0.0017314993310719728, -0.0022150715813040733, 0.9986196160316467, 0.17273370921611786, -1.8836897611618042, -0.048372384160757065, 0.0, 0.0, 0.0, 0, 0, 0, 0, 0, 0, 0.17273370921611786, -1.8836897611618042, -0.048372384160757065
13497, -0.010893335565924644, -0.049269404262304306, -0.07614926248788834, 0.11322424560785294, 0.21737125515937805, -0.12104275822639465, -0.003287829924374819, -0.005156471394002438, 0.9980851411819458, 0.1731930822134018, -1.8873025178909302, -0.04840986803174019, 0.0, 0.0, 0.0, 0, 0, 0, 0, 0, 0, 0.1731930822134018, -1.8873025178909302, -0.04840986803174019
13507, -0.010229106061160564, -0.0489312969148159, -0.07647525519132614, 0.037342317402362823, -0.03583093732595444, 0.04250352084636688, -0.0011854172917082906, -0.005356564652174711, 0.9982296228408813, 0.17365075647830963, -1.8909187316894531, -0.04844898730516434, 0.0, 0.0, 0.0, 0, 0, 0, 0, 0, 0, 0.17365075647830963, -1.8909187316894531, -0.04844898730516434
13517, -0.010106083005666733, -0.04979727417230606, -0.07679389417171478, 0.015564910136163235, 0.13844983279705048, -0.07926206290721893, 0.0002460999821778387, -0.004561370704323053, 1.000491738319397, 0.1741071194410324, -1.894539713859558, -0.04848981648683548, 0.0, 0.0, 0.0, 0, 0, 0, 0, 0, 0, 0.1741071194410324, -1.894539713859558, -0.04848981648683548
13527, -0.010251916013658047, -0.05086272582411766, -0.07688219100236893, 0.09560626745223999, 0.1191321313381195, -0.0439550057053566, 0.0012202238431200385, -0.0062652211636304855, 0.9992223381996155, 0.17456381022930145, -1.8981654644012451, -0.04853126034140587, 0.0, 0.0, 0.0, 0, 0, 0, 0, 0, 0, 0.17456381022930145, -1.8981654644012451, -0.04853126034140587
13537, -0.009515798650681973, -0.051001712679862976, -0.07816506177186966, 0.042236194014549255, -0.012170408852398396, -0.24482744932174683, 0.0013233819045126438, -0.0036232948768883944, 1.0010403394699097, 0.17502208054065704, -1.9017962217330933, -0.04857286810874939, 0.0, 0.0, 0.0, 0, 0, 0, 0, 0, 0, 0.17502208054065704, -1.9017962217330933, -0.04857286810874939
13547, -0.010729697532951832, -0.05065915733575821, -0.07786145806312561, -0.20696645975112915, 0.10236185789108276, -0.026110274717211723, 0.0004213872307445854, -0.003547808388248086, 1.0005133152008057, 0.1754823923110962, -1.9054312705993652, -0.048614442348480225, 0.0, 0.0, 0.0, 0, 0, 0, 0, 0, 0, 0.1754823923110962, -1.9054312705993652, -0.048614442348480225
13557, -0.01029504369944334, -0.05029876530170441, -0.07885244488716125, 0.11608075350522995, 0.07859309017658234, -0.14086167514324188, -0.0008998608100228012, -0.0007755999686196446, 1.000123381614685, 0.17594435811042786, -1.9090694189071655, -0.04865522310137749, 0.0, 0.0, 0.0, 0, 0, 0, 0, 0, 0, 0.17594435811042786, -1.9090694189071655, -0.04865522310137749
13567, -0.010273131541907787, -0.05114459618926048, -0.07851153612136841, -0.027900852262973785, 0.013057850301265717, 0.056262627243995667, 0.000681182136759162, -0.0031070385593920946, 0.9997850060462952, 0.17640726268291473, -1.9127095937728882, -0.048695553094148636, 0.0, 0.0, 0.0, 0, 0, 0, 0, 0, 0, 0.17640726268291473, -1.9127095937728882, -0.048695553094148636
13577, -0.010049479082226753, -0.052076391875743866, -0.07963302731513977, -0.02819821983575821, -0.023153996095061302, -0.0737970620393753, 0.0009571933769620955, -0.0024416446685791016, 0.999057948589325, 0.1768711805343628, -1.916351556777954, -0.04873606190085411, 0.0, 0.0, 0.0, 0, 0, 0, 0, 0, 0, 0.1768711805343628, -1.916351556777954, -0.04873606190085411
13587, -0.008870096877217293, -0.05200015753507614, -0.08042379468679428, 0.12395890802145004, 0.15772704780101776, -0.07367541640996933, 0.00041038048220798373, -0.0014032041653990746, 0.9994939565658569, 0.17733679711818695, -1.9199957847595215, -0.04877716675400734, 0.0, 0.0, 0.0, 0, 0, 0, 0, 0, 0, 0.17733679711818695, -1.9199957847595215, -0.04877716675400734
13597, -0.009198744781315327, -0.05383434146642685, -0.08044486492872238, -0.06201935186982155, 0.1618594080209732, -0.01503968145698309, 3.0229803087422624e-05, -0.0038538509979844093, 0.9986211657524109, 0.1778041422367096, -1.9236418008804321, -0.048819009214639664, 0.0, 0.0, 0.0, 0, 0, 0, 0, 0, 0, 0.1778041422367096, -1.9236418008804321, -0.048819009214639664
13607, -0.010408787056803703, -0.054307278245687485, -0.08023814857006073, -0.14080491662025452, -0.018069319427013397, -0.020806562155485153, -0.0007879308541305363, -0.0029058821965008974, 1.0019088983535767, 0.17827266454696655, -1.927290439605713, -0.048861633986234665, 0.0, 0.0, 0.0, 0, 0, 0, 0, 0, 0, 0.17827266454696655, -1.927290439605713, -0.048861633986234665
13617, -0.010931354016065598, -0.05418631061911583, -0.08145423978567123, -0.027461783960461617, -0.03558289259672165, -0.21324215829372406, -0.001601249328814447, -0.00442501250654459, 1.0020718574523926, 0.17874157428741455, -1.9309422969818115, -0.04890398681163788, 0.0, 0.0, 0.0, 0, 0, 0, 0, 0, 0, 0.17874157428741455, -1.9309422969818115, -0.04890398681163788
13627, -0.011432603001594543, -0.0551493801176548, -0.08060915023088455, -0.09123968333005905, -0.044800229370594025, -0.017391614615917206, 0.0005380892544053495, -0.003425703849643469, 1.004267692565918, 0.1792100965976715, -1.9345977306365967, -0.04894467815756798, 0.0, 0.0, 0.0, 0, 0, 0, 0, 0, 0, 0.1792100965976715, -1.9345977306365967, -0.04894467815756798
13637, -0.011523967608809471, -0.05528905987739563, -0.08141573518514633, 0.02196408621966839, 0.02460034191608429, -0.20423993468284607, 0.00024046420003287494, -0.005350071936845779, 1.0007519721984863, 0.17967896163463593, -1.9382567405700684, -0.04898256063461304, 0.0, 0.0, 0.0, 0, 0, 0, 0, 0, 0, 0.17967896163463593, -1.9382567405700684, -0.04898256063461304
13647, -0.010998156853020191, -0.056914668530225754, -0.08154647052288055, 0.06871194392442703, 0.043362218886613846, -0.07962609827518463, -0.0006985759828239679, -0.0035114397760480642, 0.9988415837287903, 0.180149108171463, -1.9419198036193848, -0.049018293619155884, 0.0, 0.0, 0.0, 0, 0, 0, 0, 0, 0, 0.180149108171463, -1.9419198036193848, -0.049018293619155884
13657, -0.012372287921607494, -0.0589338093996048, -0.0814351737499237, -0.15654416382312775, 0.19214843213558197, -0.011307272128760815, 0.0013341367011889815, -0.0013081786455586553, 0.9987151622772217, 0.18062016367912292, -1.9455866813659668, -0.049054231494665146, 0.0, 0.0, 0.0, 0, 0, 0, 0, 0, 0, 0.18062016367912292, -1.9455866813659668, -0.049054231494665146
13667, -0.011333542875945568, -0.05934278666973114, -0.0815591961145401, 0.17984487116336823, 0.08138711750507355, -0.008954954333603382, -0.00216592731885612, -0.003403920214623213, 0.9996630549430847, 0.18109236657619476, -1.9492557048797607, -0.04909123107790947, 0.0, 0.0, 0.0, 0, 0, 0, 0, 0, 0, 0.18109236657619476, -1.9492557048797607, -0.04909123107790947
13677, -0.012153678573668003, -0.05756527930498123, -0.08024635910987854, -0.041646141558885574, -0.0756978988647461, 0.23045024275779724, -0.001907673547975719, -0.004218250513076782, 0.9979271292686462, 0.18156485259532928, -1.9529269933700562, -0.049129173159599304, 0.0, 0.0, 0.0, 0, 0, 0, 0, 0, 0, 0.18156485259532928, -1.9529269933700562, -0.049129173159599304
13687, -0.012367739342153072, -0.05642084777355194, -0.08121966570615768, 0.06935558468103409, -0.25890156626701355, -0.12307817488908768, 0.0009366427548229694, -0.0057142628356814384, 1.000537395477295, 0.1820366233587265, -1.9566019773483276, -0.0491684228181839, 0.0, 0.0, 0.0, 0, 0, 0, 0, 0, 0, 0.1820366233587265, -1.9566019773483276, -0.0491684228181839
13697, -0.013232131488621235, -0.058108992874622345, -0.0806310623884201, -0.08312147855758667, 0.21577075123786926, 0.12538957595825195, 0.0004614487988874316, -0.004084644373506308, 1.0004667043685913, 0.18250927329063416, -1.9602819681167603, -0.04920850694179535, 0.0, 0.0, 0.0, 0, 0, 0, 0, 0, 0, 0.18250927329063416, -1.9602819681167603, -0.04920850694179535
13707, -0.012164467014372349, -0.05715184658765793, -0.08055911213159561, 0.251838743686676, -0.21693797409534454, 0.04814956337213516, 1.8476359400665388e-05, -0.004002245143055916, 0.9997972846031189, 0.18298375606536865, -1.9639664888381958, -0.04924819990992546, 0.0, 0.0, 0.0, 0, 0, 0, 0, 0, 0, 0.18298375606536865, -1.9639664888381958, -0.04924819990992546
13717, -0.012242314405739307, -0.057118646800518036, -0.08082439005374908, -0.06843654811382294, 0.03717854991555214, -0.05470791831612587, -0.0009268435533158481, -0.0026135107036679983, 1.000672459602356, 0.1834595650434494, -1.9676545858383179, -0.04928754270076752, 0.0, 0.0, 0.0, 0, 0, 0, 0, 0, 0, 0.1834595650434494, -1.9676545858383179, -0.04928754270076752
13727, -0.01212935522198677, -0.05773312970995903, -0.07910161465406418, 0.016674309968948364, 0.0040392400696873665, 0.22598963975906372, -0.002203074749559164, -0.004118684679269791, 1.0008620023727417, 0.18393585085868835, -1.9713457822799683, -0.04932650551199913, 0.0, 0.0, 0.0, 0, 0, 0, 0, 0, 0, 0.18393585085868835, -1.9713457822799683, -0.04932650551199913
13737, -0.011778302490711212, -0.05660230293869972, -0.07965809851884842, 0.15254400670528412, -0.09153446555137634, -0.10652945935726166, 0.0003110352554358542, -0.004670369438827038, 1.000148892402649, 0.18441161513328552, -1.9750399589538574, -0.049364808946847916, 0.0, 0.0, 0.0, 0, 0, 0, 0, 0, 0, 0.18441161513328552, -1.9750399589538574, -0.049364808946847916
13747, -0.010669904761016369, -0.055033378303050995, -0.07811430841684341, 0.08665956556797028, -0.2758469581604004, 0.20640115439891815, 0.0005460119573399425, -0.005098638124763966, 0.9999268054962158, 0.18488754332065582, -1.9787381887435913, -0.049402665346860886, 0.0, 0.0, 0.0, 0, 0, 0, 0, 0, 0, 0.18488754332065582, -1.9787381887435913, -0.049402665346860886
13757, -0.01059139333665371, -0.054257944226264954, -0.07931499928236008, 0.030073054134845734, -0.14922568202018738, -0.20750130712985992, -0.0010467636166140437, -0.0049385023303329945, 1.000290870666504, 0.1853647530078888, -1.9824410676956177, -0.04944026097655296, 0.0, 0.0, 0.0, 0, 0, 0, 0, 0, 0, 0.1853647530078888, -1.9824410676956177, -0.04944026097655296
13767, -0.010471533983945847, -0.0550919733941555, -0.0798138901591301, 0.004637886770069599, 0.15091882646083832, -0.09459958225488663, -0.0005863390979357064, -0.004148069769144058, 1.0019804239273071, 0.18584276735782623, -1.986148715019226, -0.04947749152779579, 0.0, 0.0, 0.0, 0, 0, 0, 0, 0, 0, 0.18584276735782623, -1.986148715019226, -0.04947749152779579
13777, -0.010364613495767117, -0.054782118648290634, -0.07948997616767883, 0.13271769881248474, -0.07080857455730438, -0.023147817701101303, -0.0006479234434664249, -0.0024143538903445005, 0.9999945163726807, 0.1863209307193756, -1.9898604154586792, -0.04951360076665878, 0.0, 0.0, 0.0, 0, 0, 0, 0, 0, 0, 0.1863209307193756, -1.9898604154586792, -0.04951360076665878
13787, -0.009789373725652695, -0.05407915264368057, -0.07850959151983261, 0.05546901747584343, -0.13312475383281708, 0.14663837850093842, -0.001149810734204948, -0.003005623584613204, 0.9995648264884949, 0.18679915368556976, -1.9935749769210815, -0.04954871907830238, 0.0, 0.0, 0.0, 0, 0, 0, 0, 0, 0, 0.18679915368556976, -1.9935749769210815, -0.04954871907830238
13797, -0.010122899897396564, -0.055267393589019775, -0.07898112386465073, 0.03825465589761734, 0.12546879053115845, 0.0686170756816864, -0.0007614639471285045, -0.004541289992630482, 0.9990102052688599, 0.18727731704711914, -1.9972920417785645, -0.04958408325910568, 0.0, 0.0, 0.0, 0, 0, 0, 0, 0, 0, 0.18727731704711914, -1.9972920417785645, -0.04958408325910568
13807, -0.010340919718146324, -0.054962027817964554, -0.08038301020860672, -0.07175435870885849, -0.10911387950181961, -0.10801803320646286, 0.0001224866573465988, -0.0037548188120126724, 0.9985786080360413, 0.1877555251121521, -2.0010125637054443, -0.04962034896016121, 0.0, 0.0, 0.0, 0, 0, 0, 0, 0, 0, 0.1877555251121521, -2.0010125637054443, -0.04962034896016121
13817, -0.009640317410230637, -0.05338004603981972, -0.08162978291511536, 0.19747786223888397, -0.16474489867687225, -0.21655873954296112, -0.0001471379364375025, -0.0030922149308025837, 0.9999641180038452, 0.1882343292236328, -2.00473690032959, -0.04965785890817642, 0.0, 0.0, 0.0, 0, 0, 0, 0, 0, 0, 0.1882343292236328, -2.00473690032959, -0.04965785890817642
13827, -0.009578223340213299, -0.05338315665721893, -0.08222368359565735, 0.08013804256916046, 0.08093249052762985, -0.07610669732093811, -0.00025292232749052346, -0.0036006183363497257, 0.9996335506439209, 0.18871402740478516, -2.0084643363952637, -0.04969625920057297, 0.0, 0.0, 0.0, 0, 0, 0, 0, 0, 0, 0.18871402740478516, -2.0084643363952637, -0.04969625920057297
13837, -0.009066454134881496, -0.05269212648272514, -0.08109310269355774, -0.02882084809243679, 0.011533149518072605, 0.08414025604724884, 0.0011220767628401518, -0.002468375489115715, 1.0003035068511963, 0.18919460475444794, -2.012194871902466, -0.04973491281270981, 0.0, 0.0, 0.0, 0, 0, 0, 0, 0, 0, 0.18919460475444794, -2.012194871902466, -0.04973491281270981
13847, -0.00879382248967886, -0.05333596095442772, -0.08067335188388824, -0.022000949829816818, 0.050152745097875595, -0.09740915894508362, 0.002968665910884738, -0.003242175094783306, 0.999387264251709, 0.18967673182487488, -2.015928268432617, -0.04977351427078247, 0.0, 0.0, 0.0, 0, 0, 0, 0, 0, 0, 0.18967673182487488, -2.015928268432617, -0.04977351427078247
13857, -0.009030739776790142, -0.05382813513278961, -0.0805317759513855, -0.04056977853178978, 0.12666533887386322, 0.13800711929798126, 2.726792445173487e-05, -0.003786217188462615, 1.0002886056900024, 0.19016163051128387, -2.0196642875671387, -0.049812283366918564, 0.0, 0.0, 0.0, 0, 0, 0, 0, 0, 0, 0.19016163051128387, -2.0196642875671387, -0.049812283366918564
13867, -0.009096752852201462, -0.05399969965219498, -0.08269098401069641, -0.007576477248221636, 0.06207526475191116, -0.09692587703466415, -0.00016795140982139856, -0.0024348797742277384, 0.9991234540939331, 0.1906486451625824, -2.0234034061431885, -0.04985111206769943, 0.0, 0.0, 0.0, 0, 0, 0, 0, 0, 0, 0.1906486451625824, -2.0234034061431885, -0.04985111206769943
13877, -0.00836560782045126, -0.05373373255133629, -0.0828671008348465, 0.09214093536138535, -0.10225415229797363, 0.00404177512973547, 0.0007443592185154557, -0.0018094589468091726, 0.999168336391449, 0.1911366581916809, -2.0271451473236084, -0.04989006742835045, 0.0, 0.0, 0.0, 0, 0, 0, 0, 0, 0, 0.1911366581916809, -2.0271451473236084, -0.04989006742835045
13887, -0.009437475353479385, -0.05362744256854057, -0.08217070996761322, -0.12167826294898987, -0.09533701092004776, 0.19279393553733826, -0.0014849063009023666, -0.0021943608298897743, 1.000438928604126, 0.19162601232528687, -2.0308890342712402, -0.04992975294589996, 0.0, 0.0, 0.0, 0, 0, 0, 0, 0, 0, 0.19162601232528687, -2.0308890342712402, -0.04992975294589996
13897, -0.009486375376582146, -0.05311591550707817, -0.08094717562198639, 0.00404743105173111, -0.114314965903759, 0.07310272753238678, -0.0017838969361037016, -0.0021001130808144808, 1.0009218454360962, 0.19211585819721222, -2.034634828567505, -0.04996953159570694, 0.0, 0.0, 0.0, 0, 0, 0, 0, 0, 0, 0.19211585819721222, -2.034634828567505, -0.04996953159570694
13907, -0.010048258118331432, -0.052834752947092056, -0.08097689598798752, -0.08606654405593872, -0.2592636048793793, -0.028336631134152412, 4.085454565938562e-05, -0.0031113196164369583, 0.9993926882743835, 0.1926051378250122, -2.0383827686309814, -0.050008613616228104, 0.0, 0.0, 0.0, 0, 0, 0, 0, 0, 0, 0.1926051378250122, -2.0383827686309814, -0.050008613616228104
13917, -0.009330437518656254, -0.05303599312901497, -0.08074262738227844, 0.020391428843140602, -0.0857863575220108, -0.04226893559098244, -0.0007358742295764387, -0.005258574616163969, 0.9997292160987854, 0.19309458136558533, -2.042133331298828, -0.05004756525158882, 0.0, 0.0, 0.0, 0, 0, 0, 0, 0, 0, 0.19309458136558533, -2.042133331298828, -0.05004756525158882
13927, -0.008478977717459202, -0.053839195519685745, -0.08066078275442123, 0.05661865323781967, 0.18217575550079346, 0.09999191015958786, 0.000914712727535516, -0.004870914854109287, 1.0014251470565796, 0.19358479976654053, -2.0458874702453613, -0.05008678138256073, 0.0, 0.0, 0.0, 0, 0, 0, 0, 0, 0, 0.19358479976654053, -2.0458874702453613, -0.05008678138256073
13937, -0.007794944569468498, -0.054337117820978165, -0.08070328831672668, 0.06663266569375992, 0.023779110983014107, 0.10533995181322098, -0.0017577274702489376, -0.0039030711632221937, 1.000788688659668, 0.1940760761499405, -2.0496463775634766, -0.05012541264295578, 0.0, 0.0, 0.0, 0, 0, 0, 0, 0, 0, 0.1940760761499405, -2.0496463775634766, -0.05012541264295578
13947, -0.007205148693174124, -0.051884524524211884, -0.0805414617061615, 0.12673600018024445, -0.3834506571292877, 0.15273113548755646, -0.0023224609903991222, -0.0040686787106096745, 1.0015480518341064, 0.19456763565540314, -2.0534093379974365, -0.0501631498336792, 0.0, 0.0, 0.0, 0, 0, 0, 0, 0, 0, 0.19456763565540314, -2.0534093379974365, -0.0501631498336792
13957, -0.0071484362706542015, -0.05122942104935646, -0.08198157697916031, 0.07449408620595932, 0.1259107142686844, -0.0790061354637146, -0.001075715059414506, -0.0038403270300477743, 1.000223159790039, 0.19505809247493744, -2.057175874710083, -0.05020005255937576, 0.0, 0.0, 0.0, 0, 0, 0, 0, 0, 0, 0.19505809247493744, -2.057175874710083, -0.05020005255937576
13967, -0.0074375709518790245, -0.0506940521299839, -0.08144889771938324, -0.03805888071656227, -0.08154832571744919, 0.010327408090233803, -0.0007436240557581186, -0.002684456529095769, 0.9979611039161682, 0.19554778933525085, -2.060945987701416, -0.05023632571101189, 0.0, 0.0, 0.0, 0, 0, 0, 0, 0, 0, 0.19554778933525085, -2.060945987701416, -0.05023632571101189
13977, -0.008531752973794937, -0.05001447722315788, -0.08151116967201233, -0.15744279325008392, -0.055106021463871, -0.14730358123779297, -0.001165246358141303, -0.003208667039871216, 0.9981985092163086, 0.1960374265909195, -2.0647189617156982, -0.050273504108190536, 0.0, 0.0, 0.0, 0, 0, 0, 0, 0, 0, 0.1960374265909195, -2.0647189617156982, -0.050273504108190536
13987, -0.008058303967118263, -0.05200850963592529, -0.07990657538175583, -0.04898039624094963, 0.1494191735982895, 0.11020395159721375, -2.7554964617593214e-05, -0.0030246730893850327, 0.9996635913848877, 0.19652706384658813, -2.0684947967529297, -0.05031246319413185, 0.0, 0.0, 0.0, 0, 0, 0, 0, 0, 0, 0.19652706384658813, -2.0684947967529297, -0.05031246319413185
13997, -0.007546135690063238, -0.05331515893340111, -0.08062241226434708, 0.12207356840372086, 0.13511553406715393, -0.12674377858638763, -0.0003267817082814872, -0.0031270980834960938, 0.9997241497039795, 0.1970168501138687, -2.0722734928131104, -0.050352320075035095, 0.0, 0.0, 0.0, 0, 0, 0, 0, 0, 0, 0.1970168501138687, -2.0722734928131104, -0.050352320075035095
14007, -0.007513665594160557, -0.05404899641871452, -0.08043956756591797, -0.009063799865543842, 0.11354683339595795, 0.020970584824681282, 0.0011146161705255508, -0.005009980406612158, 0.9982168674468994, 0.19750723242759705, -2.0760552883148193, -0.05039263516664505, 0.0, 0.0, 0.0, 0, 0, 0, 0, 0, 0, 0.19750723242759705, -2.0760552883148193, -0.05039263516664505
14017, -0.0073303175158798695, -0.05253056809306145, -0.0791877955198288, -0.1123179942369461, -0.0939238965511322, 0.17190344631671906, 0.0022799409925937653, -0.005257024429738522, 0.9991553425788879, 0.1979990303516388, -2.079840898513794, -0.050434134900569916, 0.0, 0.0, 0.0, 0, 0, 0, 0, 0, 0, 0.1979990303516388, -2.079840898513794, -0.050434134900569916
14027, -0.008398215286433697, -0.053395386785268784, -0.07879436761140823, -0.05913887172937393, 0.07385139912366867, -0.0461258701980114, 3.107528391410597e-05, -0.004239208064973354, 1.0004189014434814, 0.19849330186843872, -2.0836312770843506, -0.05047696456313133, 0.0, 0.0, 0.0, 0, 0, 0, 0, 0, 0, 0.19849330186843872, -2.0836312770843506, -0.05047696456313133
14037, -0.008717774413526058, -0.05178932473063469, -0.07823921740055084, 0.0013317599659785628, -0.26964718103408813, 0.19460061192512512, -5.889657768420875e-05, -0.003394098486751318, 1.0006619691848755, 0.19898943603038788, -2.08742618560791, -0.050520166754722595, 0.0, 0.0, 0.0, 0, 0, 0, 0, 0, 0, 0.19898943603038788, -2.08742618560791, -0.050520166754722595
14047, -0.009073702618479729, -0.05137757211923599, -0.07875052839517593, -0.03804844245314598, -0.03184770792722702, -0.05256398022174835, -0.0013880693586543202, -0.0033553848043084145, 1.0002729892730713, 0.19948628544807434, -2.0912246704101562, -0.05056285858154297, 0.0, 0.0, 0.0, 0, 0, 0, 0, 0, 0, 0.19948628544807434, -2.0912246704101562, -0.05056285858154297
14057, -0.009714148938655853, -0.050144754350185394, -0.07958855479955673, -0.0823054239153862, -0.3318714499473572, -0.040637340396642685, -0.0015647979453206062, -0.0031554969027638435, 0.9999146461486816, 0.19998320937156677, -2.0950264930725098, -0.05060507729649544, 0.0, 0.0, 0.0, 0, 0, 0, 0, 0, 0, 0.19998320937156677, -2.0950264930725098, -0.05060507729649544
14067, -0.00963874626904726, -0.05055529996752739, -0.08084944635629654, -0.0038573341444134712, 0.07094062119722366, -0.18546800315380096, 0.00041681877337396145, -0.004826066084206104, 1.0001839399337769, 0.200479656457901, -2.0988316535949707, -0.050647277384996414, 0.0, 0.0, 0.0, 0, 0, 0, 0, 0, 0, 0.200479656457901, -2.0988316535949707, -0.050647277384996414
14077, -0.010583356954157352, -0.0499483086168766, -0.08188775181770325, -0.0919090211391449, 0.041856419295072556, -0.12258531898260117, 0.0009999176254495978, -0.003386531723663211, 0.9991803169250488, 0.20097629725933075, -2.1026406288146973, -0.05068962275981903, 0.0, 0.0, 0.0, 0, 0, 0, 0, 0, 0, 0.20097629725933075, -2.1026406288146973, -0.05068962275981903
14087, -0.011229507625102997, -0.047975778579711914, -0.08101613074541092, -0.05434959754347801, -0.10966354608535767, 0.12945999205112457, 0.0013018002500757575, -0.004202964715659618, 0.9982995986938477, 0.20147426426410675, -2.1064534187316895, -0.050732582807540894, 0.0, 0.0, 0.0, 0, 0, 0, 0, 0, 0, 0.20147426426410675, -2.1064534187316895, -0.050732582807540894
14097, -0.010633674450218678, -0.04872121661901474, -0.08120259642601013, -0.07883922755718231, 0.25979194045066833, -0.05773664265871048, -0.0015460103750228882, -0.004656658507883549, 0.9984028935432434, 0.20197410881519318, -2.110269546508789, -0.050776902586221695, 0.0, 0.0, 0.0, 0, 0, 0, 0, 0, 0, 0.20197410881519318, -2.110269546508789, -0.050776902586221695
14107, -0.01086372695863247, -0.05067598074674606, -0.08077624440193176, -0.1677093356847763, 0.2659834027290344, 0.1564544290304184, -0.0022263620048761368, -0.0036232220008969307, 0.9998241662979126, 0.20247477293014526, -2.1140894889831543, -0.05082254856824875, 0.0, 0.0, 0.0, 0, 0, 0, 0, 0, 0, 0.20247477293014526, -2.1140894889831543, -0.05082254856824875
14117, -0.01023827400058508, -0.05042558163404465, -0.08192683011293411, 0.16994519531726837, 0.0637088418006897, -0.16684183478355408, 0.0020170831121504307, -0.005303546320647001, 0.9986469745635986, 0.20297487080097198, -2.117913246154785, -0.050868790596723557, 0.0, 0.0, 0.0, 0, 0, 0, 0, 0, 0, 0.20297487080097198, -2.117913246154785, -0.050868790596723557
14127, -0.010042361915111542, -0.048507969826459885, -0.08290097862482071, 0.01448754034936428, -0.13596418499946594, -0.19035540521144867, 0.0017156535759568214, -0.004837045446038246, 0.9984740018844604, 0.20347590744495392, -2.12174129486084, -0.05091570317745209, 0.0, 0.0, 0.0, 0, 0, 0, 0, 0, 0, 0.20347590744495392, -2.12174129486084, -0.05091570317745209
14137, -0.009891806170344353, -0.04960150271654129, -0.08205422759056091, -0.034884750843048096, 0.027148865163326263, 0.17647355794906616, 0.002121136523783207, -0.004256659187376499, 0.9988960027694702, 0.20397938787937164, -2.1255741119384766, -0.05096379294991493, 0.0, 0.0, 0.0, 0, 0, 0, 0, 0, 0, 0.20397938787937164, -2.1255741119384766, -0.05096379294991493
14147, -0.008991705253720284, -0.05205098167061806, -0.08214204758405685, 0.09783746302127838, 0.2995668649673462, -0.040414538234472275, 0.001499186852015555, -0.002866420429199934, 1.0006134510040283, 0.20448534190654755, -2.129411220550537, -0.051012977957725525, 0.0, 0.0, 0.0, 0, 0, 0, 0, 0, 0, 0.20448534190654755, -2.129411220550537, -0.051012977957725525
14157, -0.010108170099556446, -0.05189547315239906, -0.08182062953710556, -0.033153336495161057, 0.004300764296203852, 0.020481683313846588, 0.0007494765450246632, -0.002601984888315201, 1.0004892349243164, 0.20499388873577118, -2.133251667022705, -0.05106249824166298, 0.0, 0.0, 0.0, 0, 0, 0, 0, 0, 0, 0.20499388873577118, -2.133251667022705, -0.05106249824166298
14167, -0.009962784126400948, -0.05102962628006935, -0.08163957297801971, 0.14925166964530945, -0.11580073088407516, -0.10187039524316788, -0.0006586346426047385, -0.0040974547155201435, 0.9989038109779358, 0.20550458133220673, -2.137094736099243, -0.05111166462302208, 0.0, 0.0, 0.0, 0, 0, 0, 0, 0, 0, 0.20550458133220673, -2.137094736099243, -0.05111166462302208
14177, -0.011443203315138817, -0.05310610309243202, -0.08181610703468323, -0.17073771357536316, 0.36043286323547363, -0.048702679574489594, 0.0006683340179733932, -0.003608300816267729, 0.9983508586883545, 0.206016406416893, -2.1409409046173096, -0.05116111785173416, 0.0, 0.0, 0.0, 0, 0, 0, 0, 0, 0, 0.206016406416893, -2.1409409046173096, -0.05116111785173416
14187, -0.010565135627985, -0.051808904856443405, -0.08223304152488708, 0.16055350005626678, -0.35263341665267944, -0.06976503878831863, 0.0009515008423477411, -0.0033619722817093134, 1.0002682209014893, 0.20652920007705688, -2.1447906494140625, -0.05121180787682533, 0.0, 0.0, 0.0, 0, 0, 0, 0, 0, 0, 0.20652920007705688, -2.1447906494140625, -0.05121180787682533
14197, -0.010766576044261456, -0.05334683880209923, -0.08360714465379715, 0.03852740675210953, 0.2184319943189621, -0.21857261657714844, -0.0005153379170224071, -0.002967198844999075, 1.0003221035003662, 0.20704348385334015, -2.1486434936523438, -0.05126328766345978, 0.0, 0.0, 0.0, 0, 0, 0, 0, 0, 0, 0.20704348385334015, -2.1486434936523438, -0.05126328766345978
14207, -0.011525137349963188, -0.05279002711176872, -0.0821286141872406, -0.12177575379610062, 0.048691924661397934, -0.005374274216592312, -0.001920620328746736, -0.0015822455752640963, 0.9972919821739197, 0.207558736205101, -2.152499198913574, -0.051314663141965866, 0.0, 0.0, 0.0, 0, 0, 0, 0, 0, 0, 0.207558736205101, -2.152499198913574, -0.051314663141965866
14217, -0.010734750889241695, -0.053443506360054016, -0.08261121809482574, 0.0711139440536499, 0.1359177678823471, -0.1904756873846054, -0.0012952147517353296, -0.0010668032336980104, 0.9963976144790649, 0.20807373523712158, -2.1563570499420166, -0.051367104053497314, 0.0, 0.0, 0.0, 0, 0, 0, 0, 0, 0, 0.20807373523712158, -2.1563570499420166, -0.051367104053497314
14227, -0.010000673122704029, -0.05420030653476715, -0.08363276720046997, 0.044124536216259, 0.09248654544353485, -0.20067043602466583, 0.000127719875308685, -0.0025052649434655905, 1.0009279251098633, 0.20858822762966156, -2.1602160930633545, -0.05142241343855858, 0.0, 0.0, 0.0, 0, 0, 0, 0, 0, 0, 0.20858822762966156, -2.1602160930633545, -0.05142241343855858
14237, -0.011067611165344715, -0.053308214992284775, -0.08489291369915009, -0.06076597422361374, -0.0973871573805809, -0.25905677676200867, -0.0005138131673447788, -0.0046810004860162735, 0.9997553825378418, 0.2091546356678009, -2.1644623279571533, -0.0514848567545414, 0.0, 0.0, 0.0, 0, 0, 0, 0, 0, 0, 0.2091546356678009, -2.1644623279571533, -0.0514848567545414
14247, -0.011632101610302925, -0.052383892238140106, -0.08361829817295074, -0.01860951818525791, -0.0461592897772789, 0.029012583196163177, -0.0017902989638969302, -0.004747333936393261, 1.0007178783416748, 0.20967023074626923, -2.168325901031494, -0.051541343331336975, 0.0, 0.0, 0.0, 0, 0, 0, 0, 0, 0, 0.20967023074626923, -2.168325901031494, -0.051541343331336975
14257, -0.011698870919644833, -0.05196397751569748, -0.08368629962205887, -0.07717464864253998, -0.14130286872386932, -0.08186590671539307, -0.0010502621298655868, -0.003523255931213498, 1.0002392530441284, 0.21018561720848083, -2.172194004058838, -0.05159749463200569, 0.0, 0.0, 0.0, 0, 0, 0, 0, 0, 0, 0.21018561720848083, -2.172194004058838, -0.05159749463200569
14267, -0.011473151855170727, -0.04939151555299759, -0.08329311013221741, 0.04341848939657211, -0.21267621219158173, 0.011574306525290012, -0.00027637279708869755, -0.00439676595851779, 1.001315951347351, 0.21070054173469543, -2.1760659217834473, -0.05165316164493561, 0.0, 0.0, 0.0, 0, 0, 0, 0, 0, 0, 0.21070054173469543, -2.1760659217834473, -0.05165316164493561
14277, -0.011142682284116745, -0.04969784617424011, -0.0817372128367424, 0.08184105157852173, -0.02780110016465187, 0.22402173280715942, -0.0018509613582864404, -0.004344547167420387, 1.0000698566436768, 0.21121548116207123, -2.1799416542053223, -0.05170804634690285, 0.0, 0.0, 0.0, 0, 0, 0, 0, 0, 0, 0.21121548116207123, -2.1799416542053223, -0.05170804634690285
14287, -0.010447031818330288, -0.05044800415635109, -0.08173584192991257, 0.10190851986408234, 0.034759972244501114, -0.08859974145889282, -0.000936134543735534, -0.0038267949130386114, 0.99764484167099, 0.21173015236854553, -2.183821201324463, -0.051762573421001434, 0.0, 0.0, 0.0, 0, 0, 0, 0, 0, 0, 0.21173015236854553, -2.183821201324463, -0.051762573421001434
14297, -0.010440343990921974, -0.05273664742708206, -0.08079546689987183, 0.07783055305480957, 0.03479014337062836, 0.22153861820697784, -0.0006704185507260263, -0.0030296894256025553, 0.9990213513374329, 0.21224437654018402, -2.18770432472229, -0.051818229258060455, 0.0, 0.0, 0.0, 0, 0, 0, 0, 0, 0, 0.21224437654018402, -2.18770432472229, -0.051818229258060455
14307, -0.010842983610928059, -0.05373871698975563, -0.08131180703639984, -0.028682613745331764, 0.4025142788887024, -0.16761070489883423, -0.0007193033234216273, -0.0036200140602886677, 0.9999047517776489, 0.21275866031646729, -2.1915907859802246, -0.05187521129846573, 0.0, 0.0, 0.0, 0, 0, 0, 0, 0, 0, 0.21275866031646729, -2.1915907859802246, -0.05187521129846573
14317, -0.010926119983196259, -0.054771095514297485, -0.08169052004814148, 0.00016328874335158616, 0.0724884495139122, -0.07830696552991867, -0.002126459963619709, -0.0038645784370601177, 1.0008939504623413, 0.2132730334997177, -2.1954801082611084, -0.051932480186223984, 0.0, 0.0, 0.0, 0, 0, 0, 0, 0, 0, 0.2132730334997177, -2.1954801082611084, -0.051932480186223984
14327, -0.011003119871020317, -0.05414845421910286, -0.08273361623287201, -0.18537257611751556, -0.19759601354599, -0.1914854794740677, -0.0018371065380051732, -0.005196515005081892, 0.9988478422164917, 0.21378694474697113, -2.1993730068206787, -0.05198926478624344, 0.0, 0.0, 0.0, 0, 0, 0, 0, 0, 0, 0.21378694474697113, -2.1993730068206787, -0.05198926478624344
14337, -0.01113178115338087, -0.05687932297587395, -0.08221723139286041, -0.2056005597114563, 0.3554299473762512, 0.12773948907852173, 0.00037640926893800497, -0.004348279442638159, 1.0002042055130005, 0.21430009603500366, -2.203270435333252, -0.05204605683684349, 0.0, 0.0, 0.0, 0, 0, 0, 0, 0, 0, 0.21430009603500366, -2.203270435333252, -0.05204605683684349
14347, -0.011403669603168964, -0.05631529167294502, -0.08164297789335251, 0.0031864787451922894, 0.144855797290802, -0.03945391625165939, 0.0005400460213422775, -0.004843142814934254, 1.00150465965271, 0.21481353044509888, -2.207172155380249, -0.05210300162434578, 0.0, 0.0, 0.0, 0, 0, 0, 0, 0, 0, 0.21481353044509888, -2.207172155380249, -0.05210300162434578
14357, -0.01019629929214716, -0.054934967309236526, -0.08249843865633011, 0.11908750236034393, 0.06476236879825592, -0.03328622877597809, -0.0020231311209499836, -0.005637707654386759, 1.0000241994857788, 0.2153281569480896, -2.21107816696167, -0.05215916410088539, 0.0, 0.0, 0.0, 0, 0, 0, 0, 0, 0, 0.2153281569480896, -2.21107816696167, -0.05215916410088539
14367, -0.010782403871417046, -0.0553760789334774, -0.08402540534734726, -0.1579131931066513, -0.02427477389574051, -0.2194496989250183, -0.001546637387946248, -0.003112733131274581, 0.9999239444732666, 0.21584269404411316, -2.214989185333252, -0.05221476033329964, 0.0, 0.0, 0.0, 0, 0, 0, 0, 0, 0, 0.21584269404411316, -2.214989185333252, -0.05221476033329964
14377, -0.010694270953536034, -0.056034788489341736, -0.08477109670639038, -0.05487963929772377, 0.01915862038731575, -0.06811099499464035, -0.000737526046577841, -0.0029949499294161797, 0.9981379508972168, 0.2163565307855606, -2.2189042568206787, -0.052270568907260895, 0.0, 0.0, 0.0, 0, 0, 0, 0, 0, 0, 0.2163565307855606, -2.2189042568206787, -0.052270568907260895
14387, -0.011183922179043293, -0.05552779883146286, -0.08403400331735611, -0.17715977132320404, -0.15226319432258606, 0.06471578031778336, -0.0011969197075814009, -0.003137012245133519, 1.0002022981643677, 0.21687039732933044, -2.2228221893310547, -0.05232730507850647, 0.0, 0.0, 0.0, 0, 0, 0, 0, 0, 0, 0.21687039732933044, -2.2228221893310547, -0.05232730507850647
14397, -0.011184477247297764, -0.05734682455658913, -0.08184657245874405, -0.07878702133893967, 0.11434634029865265, 0.1959562599658966, -0.0010981385130435228, -0.002098005497828126, 1.0009765625, 0.2173842340707779, -2.22674298286438, -0.052384551614522934, 0.0, 0.0, 0.0, 0, 0, 0, 0, 0, 0, 0.2173842340707779, -2.22674298286438, -0.052384551614522934
14407, -0.01099989004433155, -0.05779149383306503, -0.08054118603467941, 0.04191051796078682, 0.15173287689685822, 0.25144103169441223, -0.0012417654506862164, -0.003619892755523324, 0.9981147646903992, 0.21789772808551788, -2.230666160583496, -0.05244148522615433, 0.0, 0.0, 0.0, 0, 0, 0, 0, 0, 0, 0.21789772808551788, -2.230666160583496, -0.05244148522615433
14417, -0.011411594226956367, -0.05540485307574272, -0.0803801640868187, -0.068714939057827, -0.2646845877170563, -0.1362915188074112, 9.650573338149115e-05, -0.003400525078177452, 1.0007392168045044, 0.21841098368167877, -2.2345921993255615, -0.05249899625778198, 0.0, 0.0, 0.0, 0, 0, 0, 0, 0, 0, 0.21841098368167877, -2.2345921993255615, -0.05249899625778198
14427, -0.010701991617679596, -0.055060144513845444, -0.08114144206047058, 0.1838683933019638, 0.044446349143981934, -0.19612587988376617, 0.0027963384054601192, -0.003460290376096964, 1.001482367515564, 0.21892492473125458, -2.2385215759277344, -0.05255671963095665, 0.0, 0.0, 0.0, 0, 0, 0, 0, 0, 0, 0.21892492473125458, -2.2385215759277344, -0.05255671963095665
14437, -0.011190437711775303, -0.05769187584519386, -0.08234293758869171, 0.017435647547245026, 0.14690084755420685, -0.06858576834201813, 0.000864111352711916, -0.004534624982625246, 0.9996897578239441, 0.21944104135036469, -2.2424540519714355, -0.05261369049549103, 0.0, 0.0, 0.0, 0, 0, 0, 0, 0, 0, 0.21944104135036469, -2.2424540519714355, -0.05261369049549103
14447, -0.011268438771367073, -0.05714528635144234, -0.08194510638713837, 0.007261847145855427, -0.201076939702034, -0.05148503556847572, -0.0015069792279973626, -0.003685861825942993, 0.999941349029541, 0.21995921432971954, -2.2463903427124023, -0.05267026275396347, 0.0, 0.0, 0.0, 0, 0, 0, 0, 0, 0, 0.21995921432971954, -2.2463903427124023, -0.05267026275396347
14457, -0.011591624468564987, -0.05621279403567314, -0.08037282526493073, 0.044125400483608246, -0.35415345430374146, 0.14202894270420074, -0.000342255225405097, -0.004188866354525089, 0.997435450553894, 0.2204779088497162, -2.2503302097320557, -0.05272684618830681, 0.0, 0.0, 0.0, 0, 0, 0, 0, 0, 0, 0.2204779088497162, -2.2503302097320557, -0.05272684618830681
14467, -0.01230450440198183, -0.05239294841885567, -0.08049868792295456, 0.036277689039707184, -0.4519520103931427, -0.03632613644003868, -0.0036220436450093985, -0.0031715717632323503, 0.9997408986091614, 0.2209966629743576, -2.2542736530303955, -0.05278478562831879, 0.0, 0.0, 0.0, 0, 0, 0, 0, 0, 0, 0.2209966629743576, -2.2542736530303955, -0.05278478562831879
14477, -0.012489636428654194, -0.053124841302633286, -0.08219777792692184, -0.15329694747924805, 0.23194940388202667, -0.18310147523880005, 0.00010272308281855658, -0.004032012540847063, 1.001044750213623, 0.22151467204093933, -2.2582204341888428, -0.052843935787677765, 0.0, 0.0, 0.0, 0, 0, 0, 0, 0, 0, 0.22151467204093933, -2.2582204341888428, -0.052843935787677765
14487, -0.0118994927033782, -0.052849747240543365, -0.08305633068084717, 0.14288197457790375, -0.07226422429084778, 0.1290310025215149, -0.00025086698587983847, -0.0049550472758710384, 1.0005643367767334, 0.2220323085784912, -2.2621705532073975, -0.052902497351169586, 0.0, 0.0, 0.0, 0, 0, 0, 0, 0, 0, 0.2220323085784912, -2.2621705532073975, -0.052902497351169586
14497, -0.012270528823137283, -0.05134638771414757, -0.08255824446678162, -0.22572143375873566, -0.3348122835159302, 0.06451010704040527, -0.0008733337745070457, -0.0042016529478132725, 0.9981334209442139, 0.22255061566829681, -2.266124963760376, -0.05296031013131142, 0.0, 0.0, 0.0, 0, 0, 0, 0, 0, 0, 0.22255061566829681, -2.266124963760376, -0.05296031013131142
14507, -0.013078098185360432, -0.05149262025952339, -0.08265506476163864, -0.11343811452388763, 0.10004493594169617, -0.10500599443912506, 0.0012405364541336894, -0.002985898405313492, 0.999451220035553, 0.2230691909790039, -2.2700839042663574, -0.053018879145383835, 0.0, 0.0, 0.0, 0, 0, 0, 0, 0, 0, 0.2230691909790039, -2.2700839042663574, -0.053018879145383835
14517, -0.014054167084395885, -0.051180124282836914, -0.08243224769830704, -0.17184047400951385, 0.018128253519535065, 0.09260115027427673, 0.0010723562445491552, -0.00370222982019186, 0.9986669421195984, 0.22358888387680054, -2.2740464210510254, -0.05307868868112564, 0.0, 0.0, 0.0, 0, 0, 0, 0, 0, 0, 0.22358888387680054, -2.2740464210510254, -0.05307868868112564
14527, -0.013431886211037636, -0.05144214630126953, -0.08227796107530594, -0.10348138213157654, 0.33462101221084595, 0.19346994161605835, -0.00044111907482147217, -0.004008202813565731, 0.9992932081222534, 0.22411051392555237, -2.2780117988586426, -0.05313945561647415, 0.0, 0.0, 0.0, 0, 0, 0, 0, 0, 0, 0.22411051392555237, -2.2780117988586426, -0.05313945561647415
14537, -0.014108492061495781, -0.05171199142932892, -0.07960407435894012, -0.08733867853879929, 0.07527494430541992, 0.20202437043190002, -0.000745681463740766, -0.0031539860647171736, 0.99989253282547, 0.2246331423521042, -2.2819807529449463, -0.053201086819171906, 0.0, 0.0, 0.0, 0, 0, 0, 0, 0, 0, 0.2246331423521042, -2.2819807529449463, -0.053201086819171906
14547, -0.014002636075019836, -0.05188954994082451, -0.07969773560762405, 0.0049852412194013596, 0.033271487802267075, -0.0981803834438324, -0.0010981402592733502, -0.0035670888610184193, 0.9991178512573242, 0.22515597939491272, -2.2859530448913574, -0.05326305702328682, 0.0, 0.0, 0.0, 0, 0, 0, 0, 0, 0, 0.22515597939491272, -2.2859530448913574, -0.05326305702328682
14557, -0.013667176477611065, -0.05077977851033211, -0.07979524880647659, 0.05248222500085831, -0.041897863149642944, 0.06849563121795654, 2.7818632588605396e-05, -0.0033524050377309322, 0.9995062947273254, 0.2256787121295929, -2.289928674697876, -0.05332564562559128, 0.0, 0.0, 0.0, 0, 0, 0, 0, 0, 0, 0.2256787121295929, -2.289928674697876, -0.05332564562559128
14567, -0.014017641544342041, -0.05076504871249199, -0.07940229028463364, -0.09474363923072815, -0.18217357993125916, 0.2198815494775772, 0.001271334127523005, -0.005585952661931515, 0.9998034834861755, 0.22620172798633575, -2.293907642364502, -0.05338897928595543, 0.0, 0.0, 0.0, 0, 0, 0, 0, 0, 0, 0.22620172798633575, -2.293907642364502, -0.05338897928595543
14577, -0.01357579231262207, -0.05026419088244438, -0.07977741211652756, 0.014979958534240723, 0.12778843939304352, -0.06387003511190414, -5.341699215932749e-05, -0.0019738676492124796, 0.9978183507919312, 0.22672611474990845, -2.2978909015655518, -0.053452759981155396, 0.0, 0.0, 0.0, 0, 0, 0, 0, 0, 0, 0.22672611474990845, -2.2978909015655518, -0.053452759981155396
14587, -0.013137289322912693, -0.051098015159368515, -0.08072316646575928, 0.011388000100851059, 0.047354795038700104, -0.16907721757888794, 0.00019276259990874678, -0.0024523420725017786, 0.9977739453315735, 0.22725194692611694, -2.30187726020813, -0.053517963737249374, 0.0, 0.0, 0.0, 0, 0, 0, 0, 0, 0, 0.22725194692611694, -2.30187726020813, -0.053517963737249374
14597, -0.012858985923230648, -0.05240100622177124, -0.08071000874042511, 0.016743462532758713, 0.30321115255355835, -0.030492478981614113, 0.0001309339568251744, -0.0033081474248319864, 1.0024279356002808, 0.22777879238128662, -2.305865526199341, -0.05358501151204109, 0.0, 0.0, 0.0, 0, 0, 0, 0, 0, 0, 0.22777879238128662, -2.305865526199341, -0.05358501151204109
14607, -0.01291971281170845, -0.05106102302670479, -0.08085563033819199, -0.06691259890794754, -0.1640116572380066, 0.09746487438678741, 0.0006839398411102593, -0.004271990619599819, 0.99919193983078, 0.22830666601657867, -2.309856653213501, -0.053651925176382065, 0.0, 0.0, 0.0, 0, 0, 0, 0, 0, 0, 0.22830666601657867, -2.309856653213501, -0.053651925176382065
14617, -0.012207374908030033, -0.049593959003686905, -0.0813310369849205, 0.036643773317337036, -0.25964346528053284, 0.06784329563379288, -0.00018324896518606693, -0.003904127050191164, 0.9993575215339661, 0.22883573174476624, -2.3138513565063477, -0.05371839925646782, 0.0, 0.0, 0.0, 0, 0, 0, 0, 0, 0, 0.22883573174476624, -2.3138513565063477, -0.05371839925646782
14627, -0.012740540318191051, -0.0495239682495594, -0.08082558959722519, 0.08216607570648193, -0.2451820969581604, 0.20006059110164642, -0.001166346832178533, -0.003962625749409199, 0.9992744326591492, 0.229365736246109, -2.31784987449646, -0.05378556251525879, 0.0, 0.0, 0.0, 0, 0, 0, 0, 0, 0, 0.229365736246109, -2.31784987449646, -0.05378556251525879
14637, -0.013392056338489056, -0.049625251442193985, -0.08047215640544891, -0.12537001073360443, 0.23277823626995087, -0.08144500106573105, -0.000822171219624579, -0.0041550882160663605, 0.999172568321228, 0.2298959195613861, -2.321851968765259, -0.053853362798690796, 0.0, 0.0, 0.0, 0, 0, 0, 0, 0, 0, 0.2298959195613861, -2.321851968765259, -0.053853362798690796
14647, -0.014381886459887028, -0.05084174871444702, -0.07983958721160889, -0.05264824256300926, 0.22878725826740265, 0.0032321538310498, -0.0007844142382964492, -0.0029224175959825516, 0.9982513785362244, 0.23042599856853485, -2.325857639312744, -0.05392184481024742, 0.0, 0.0, 0.0, 0, 0, 0, 0, 0, 0, 0.23042599856853485, -2.325857639312744, -0.05392184481024742
14657, -0.014129419811069965, -0.05113445222377777, -0.07836371660232544, 0.006624281872063875, 0.35728850960731506, 0.023017432540655136, 0.000579063780605793, -0.0033442028798162937, 0.9999738931655884, 0.2309562712907791, -2.329866647720337, -0.0539914108812809, 0.0, 0.0, 0.0, 0, 0, 0, 0, 0, 0, 0.2309562712907791, -2.329866647720337, -0.0539914108812809
14667, -0.013824937865138054, -0.05132371559739113, -0.07786942273378372, 0.12653504312038422, -0.11998544633388519, 0.019783159717917442, 0.0023949395399540663, -0.0015107440995052457, 0.998515248298645, 0.23148763179779053, -2.333878517150879, -0.05406196787953377, 0.0, 0.0, 0.0, 0, 0, 0, 0, 0, 0, 0.23148763179779053, -2.333878517150879, -0.05406196787953377
14677, -0.013333537615835667, -0.05435791239142418, -0.07854881137609482, 0.01070162933319807, 0.3249472975730896, 0.09726668149232864, 0.0010518264025449753, -0.002063473453745246, 1.001509666442871, 0.23202131688594818, -2.3378922939300537, -0.05413321778178215, 0.0, 0.0, 0.0, 0, 0, 0, 0, 0, 0, 0.23202131688594818, -2.3378922939300537, -0.05413321778178215
14687, -0.013385445810854435, -0.05413449928164482, -0.07829425483942032, 0.11880240589380264, 0.029644334688782692, 0.18466226756572723, -0.0005638544680550694, -0.004308299161493778, 1.000157356262207, 0.23255741596221924, -2.3419077396392822, -0.05420448258519173, 0.0, 0.0, 0.0, 0, 0, 0, 0, 0, 0, 0.23255741596221924, -2.3419077396392822, -0.05420448258519173
14697, -0.01249864511191845, -0.05295214429497719, -0.07795260846614838, 0.12976378202438354, -0.08348725736141205, 0.2132674753665924, 0.00021039176499471068, -0.004508774261921644, 1.002081036567688, 0.23309475183486938, -2.345926284790039, -0.054275061935186386, 0.0, 0.0, 0.0, 0, 0, 0, 0, 0, 0, 0.23309475183486938, -2.345926284790039, -0.054275061935186386
14707, -0.01341728214174509, -0.05598178133368492, -0.07699838280677795, -0.17309901118278503, 0.3081076145172119, 0.09916306287050247, -0.002333356300368905, -0.0035661673173308372, 0.9987130761146545, 0.2336326390504837, -2.3499486446380615, -0.05434447154402733, 0.0, 0.0, 0.0, 0, 0, 0, 0, 0, 0, 0.2336326390504837, -2.3499486446380615, -0.05434447154402733
14717, -0.013012979179620743, -0.05687042698264122, -0.07673824578523636, -0.05684034153819084, -0.050888705998659134, -0.029167143628001213, -0.002473536878824234, -0.0036173921544104815, 0.9996603727340698, 0.2341701090335846, -2.3539743423461914, -0.054413583129644394, 0.0, 0.0, 0.0, 0, 0, 0, 0, 0, 0, 0.2341701090335846, -2.3539743423461914, -0.054413583129644394
14727, -0.013183173723518848, -0.0575585663318634, -0.0748954564332962, -0.1683519184589386, 0.2373822182416916, 0.21766109764575958, -0.0008519758121110499, -0.005949045531451702, 0.9990588426589966, 0.23470623791217804, -2.358003616333008, -0.05448348447680473, 0.0, 0.0, 0.0, 0, 0, 0, 0, 0, 0, 0.23470623791217804, -2.358003616333008, -0.05448348447680473
14737, -0.012498236261308193, -0.0562211312353611, -0.07380855828523636, 0.14426976442337036, -0.2255798876285553, -0.008999493904411793, 0.000754767213948071, -0.004663893021643162, 0.9992832541465759, 0.23524199426174164, -2.362037420272827, -0.054554183036088943, 0.0, 0.0, 0.0, 0, 0, 0, 0, 0, 0, 0.23524199426174164, -2.362037420272827, -0.054554183036088943
14747, -0.012962667271494865, -0.05440288409590721, -0.07319411635398865, -0.16469594836235046, -0.10490600019693375, -0.005288721062242985, 0.00039140181615948677, -0.004172655753791332, 1.001637578010559, 0.23577885329723358, -2.3660757541656494, -0.054625604301691055, 0.0, 0.0, 0.0, 0, 0, 0, 0, 0, 0, 0.23577885329723358, -2.3660757541656494, -0.054625604301691055
14757, -0.013771052472293377, -0.05506270378828049, -0.07221970707178116, -0.24751761555671692, 0.18985359370708466, 0.1415717601776123, -0.0017775901360437274, -0.0018275895854458213, 0.9999857544898987, 0.23631682991981506, -2.3701179027557373, -0.054696496576070786, 0.0, 0.0, 0.0, 0, 0, 0, 0, 0, 0, 0.23631682991981506, -2.3701179027557373, -0.054696496576070786
14767, -0.013428445905447006, -0.054229993373155594, -0.07094709575176239, 0.06916280090808868, -0.19246238470077515, 0.24394525587558746, -0.0013683764263987541, -0.00284515880048275, 0.9967901706695557, 0.2368546575307846, -2.3741626739501953, -0.05476689711213112, 0.0, 0.0, 0.0, 0, 0, 0, 0, 0, 0, 0.2368546575307846, -2.3741626739501953, -0.05476689711213112
14777, -0.012872554361820221, -0.054753296077251434, -0.07124628871679306, 0.010136661119759083, 0.12432682514190674, -0.0959484726190567, -0.0013564251130446792, -0.004480825737118721, 1.000611424446106, 0.2373918890953064, -2.3782095909118652, -0.05483870953321457, 0.0, 0.0, 0.0, 0, 0, 0, 0, 0, 0, 0.2373918890953064, -2.3782095909118652, -0.05483870953321457
14787, -0.013118735514581203, -0.055383846163749695, -0.07133300602436066, 0.030816948041319847, 0.2541721761226654, 0.035820964723825455, -0.0007109735161066055, -0.005350067280232906, 0.9998741745948792, 0.2379288673400879, -2.3822600841522217, -0.0549115315079689, 0.0, 0.0, 0.0, 0, 0, 0, 0, 0, 0, 0.2379288673400879, -2.3822600841522217, -0.0549115315079689
14797, -0.013069561682641506, -0.055409934371709824, -0.07268697023391724, 0.12558577954769135, -0.06917436420917511, -0.2534186840057373, -0.0014289428945630789, -0.003517285455018282, 1.0013723373413086, 0.23846577107906342, -2.386315107345581, -0.054984159767627716, 0.0, 0.0, 0.0, 0, 0, 0, 0, 0, 0, 0.23846577107906342, -2.386315107345581, -0.054984159767627716
14807, -0.013635248877108097, -0.05719035118818283, -0.07309460639953613, -0.12074321508407593, 0.1092279776930809, 0.042467955499887466, 0.000451848580269143, -0.0030497058760374784, 1.0014171600341797, 0.23900261521339417, -2.390374183654785, -0.05505610257387161, 0.0, 0.0, 0.0, 0, 0, 0, 0, 0, 0, 0.23900261521339417, -2.390374183654785, -0.05505610257387161
14817, -0.01328193861991167, -0.05815139412879944, -0.07353843748569489, 0.04070180654525757, 0.0580671988427639, -0.06126105412840843, -0.0008751858258619905, -0.0029834650922566652, 0.9983213543891907, 0.2395399659872055, -2.3944361209869385, -0.055126845836639404, 0.0, 0.0, 0.0, 0, 0, 0, 0, 0, 0, 0.2395399659872055, -2.3944361209869385, -0.055126845836639404
14827, -0.013128932565450668, -0.05807036533951759, -0.07402747869491577, -0.06729132682085037, 0.08421887457370758, -0.03988977521657944, 0.00021678023040294647, -0.003433007514104247, 0.9992853403091431, 0.24007809162139893, -2.398500680923462, -0.05519764870405197, 0.0, 0.0, 0.0, 0, 0, 0, 0, 0, 0, 0.24007809162139893, -2.398500680923462, -0.05519764870405197
14837, -0.013343977741897106, -0.059588588774204254, -0.07274851948022842, 0.02896248549222946, 0.034457977861166, 0.13610197603702545, 0.00031567615224048495, -0.00356291770003736, 0.9993956685066223, 0.24061697721481323, -2.4025683403015137, -0.0552692636847496, 0.0, 0.0, 0.0, 0, 0, 0, 0, 0, 0, 0.24061697721481323, -2.4025683403015137, -0.0552692636847496
14847, -0.01379937119781971, -0.06056412309408188, -0.0735110342502594, -0.05155647173523903, -0.06131613999605179, 0.09235251694917679, 9.041628800332546e-06, -0.004407583735883236, 0.9988730549812317, 0.2411569207906723, -2.4066390991210938, -0.05534149706363678, 0.0, 0.0, 0.0, 0, 0, 0, 0, 0, 0, 0.2411569207906723, -2.4066390991210938, -0.05534149706363678
14857, -0.014161189086735249, -0.06092072278261185, -0.07357480376958847, 0.0763561874628067, 0.3312748968601227, -0.1847440004348755, -0.0023593269288539886, -0.0040765684098005295, 0.9985437989234924, 0.2416977435350418, -2.4107134342193604, -0.05541454628109932, 0.0, 0.0, 0.0, 0, 0, 0, 0, 0, 0, 0.2416977435350418, -2.4107134342193604, -0.05541454628109932
14867, -0.015509437769651413, -0.06077605485916138, -0.07438246160745621, -0.08314802497625351, -0.10690735280513763, -0.16231586039066315, -0.004194924607872963, -0.003104266244918108, 0.9994534254074097, 0.2422381490468979, -2.4147915840148926, -0.055488742887973785, 0.0, 0.0, 0.0, 0, 0, 0, 0, 0, 0, 0.2422381490468979, -2.4147915840148926, -0.055488742887973785
14877, -0.016292156651616096, -0.06076982989907265, -0.07503225654363632, -0.2520989179611206, 0.11020388454198837, -0.031673651188611984, -0.001803844003006816, -0.004494069144129753, 0.9999834299087524, 0.24277636408805847, -2.4188730716705322, -0.055563800036907196, 0.0, 0.0, 0.0, 0, 0, 0, 0, 0, 0, 0.24277636408805847, -2.4188730716705322, -0.055563800036907196
14887, -0.015206404961645603, -0.06122405081987381, -0.07507941871881485, -0.009771632961928844, 0.05861525237560272, 0.11825235933065414, -0.0014388898853212595, -0.003553990740329027, 0.9983248710632324, 0.24331285059452057, -2.4229581356048584, -0.05563918873667717, 0.0, 0.0, 0.0, 0, 0, 0, 0, 0, 0, 0.24331285059452057, -2.4229581356048584, -0.05563918873667717
14897, -0.015306426212191582, -0.06111343950033188, -0.07571089267730713, -0.02232792228460312, 0.1625407636165619, -0.11787822097539902, 0.0012055649422109127, -0.0039045403245836496, 1.0004253387451172, 0.24384893476963043, -2.427046537399292, -0.055715352296829224, 0.0, 0.0, 0.0, 0, 0, 0, 0, 0, 0, 0.24384893476963043, -2.427046537399292, -0.055715352296829224
14907, -0.015278295613825321, -0.06055610626935959, -0.07455898821353912, 0.010410789400339127, -0.0952906608581543, 0.23689496517181396, -0.0009695363114587963, -0.00523000443354249, 0.9988844394683838, 0.2443859875202179, -2.431138515472412, -0.05579211562871933, 0.0, 0.0, 0.0, 0, 0, 0, 0, 0, 0, 0.2443859875202179, -2.431138515472412, -0.05579211562871933
14917, -0.01596723310649395, -0.05883486568927765, -0.07610789686441422, -0.03437177836894989, -0.2265416383743286, -0.2836158275604248, -0.0023549923207610846, -0.0033978023566305637, 1.001561164855957, 0.24492394924163818, -2.435234785079956, -0.055869124829769135, 0.0, 0.0, 0.0, 0, 0, 0, 0, 0, 0, 0.24492394924163818, -2.435234785079956, -0.055869124829769135
14927, -0.016877103596925735, -0.05899406224489212, -0.07425497472286224, -0.03424137458205223, 0.1456713229417801, 0.19673916697502136, -0.0011648503132164478, -0.0028462971094995737, 1.0021265745162964, 0.2454613447189331, -2.4393346309661865, -0.05594564601778984, 0.0, 0.0, 0.0, 0, 0, 0, 0, 0, 0, 0.2454613447189331, -2.4393346309661865, -0.05594564601778984
14937, -0.01651870459318161, -0.05762191489338875, -0.07531902194023132, 0.06808653473854065, -0.10880998522043228, -0.07224233448505402, 0.0011012277100235224, -0.003190106013789773, 1.0008679628372192, 0.24599845707416534, -2.443437337875366, -0.056020546704530716, 0.0, 0.0, 0.0, 0, 0, 0, 0, 0, 0, 0.24599845707416534, -2.443437337875366, -0.056020546704530716
14947, -0.015355953946709633, -0.05796094238758087, -0.07533420622348785, 0.2123672366142273, -0.11679571866989136, -0.1105520948767662, -0.0007979490328580141, -0.004802749492228031, 1.0001721382141113, 0.24653661251068115, -2.447543144226074, -0.05609394609928131, 0.0, 0.0, 0.0, 0, 0, 0, 0, 0, 0, 0.24653661251068115, -2.447543144226074, -0.05609394609928131
14957, -0.015895554795861244, -0.05717846378684044, -0.07476877421140671, 0.05590272694826126, -0.3855001628398895, 0.1177871972322464, -0.00037961199996061623, -0.0028852256946265697, 0.9995953440666199, 0.24707578122615814, -2.4516525268554688, -0.05616668239235878, 0.0, 0.0, 0.0, 0, 0, 0, 0, 0, 0, 0.24707578122615814, -2.4516525268554688, -0.05616668239235878
14967, -0.015343977138400078, -0.05725587159395218, -0.07409574836492538, 0.02958356775343418, -0.033689841628074646, 0.10865405946969986, 0.0014498626114800572, -0.0044778743758797646, 0.99900883436203, 0.24761559069156647, -2.45576548576355, -0.05623982101678848, 0.0, 0.0, 0.0, 0, 0, 0, 0, 0, 0, 0.24761559069156647, -2.45576548576355, -0.05623982101678848
14977, -0.014796962030231953, -0.058829616755247116, -0.07374313473701477, 0.03166117146611214, 0.19598835706710815, -0.05074463412165642, -0.0005609277868643403, -0.0025633240584284067, 0.9982003569602966, 0.24815697968006134, -2.459881544113159, -0.056313857436180115, 0.0, 0.0, 0.0, 0, 0, 0, 0, 0, 0, 0.24815697968006134, -2.459881544113159, -0.056313857436180115
14987, -0.014250998385250568, -0.058425262570381165, -0.07544004917144775, -0.08075815439224243, -0.15526182949543, -0.1704171746969223, -0.0008566566975787282, -0.004214960616081953, 0.9987448453903198, 0.2486996203660965, -2.464000701904297, -0.056389134377241135, 0.0, 0.0, 0.0, 0, 0, 0, 0, 0, 0, 0.2486996203660965, -2.464000701904297, -0.056389134377241135
14997, -0.014116746373474598, -0.060462918132543564, -0.0752251073718071, 0.03651617839932442, 0.2689349353313446, -0.07348448038101196, -0.0009424647432751954, -0.0036590828094631433, 1.0008727312088013, 0.24924257397651672, -2.468122959136963, -0.056465648114681244, 0.0, 0.0, 0.0, 0, 0, 0, 0, 0, 0, 0.24924257397651672, -2.468122959136963, -0.056465648114681244
15007, -0.013972781598567963, -0.05994920805096626, -0.07512649148702621, 0.060204584151506424, -0.2489936798810959, -0.024567600339651108, -0.0001103171452996321, -0.0015168888494372368, 1.0006176233291626, 0.2497858703136444, -2.4722485542297363, -0.05654209479689598, 0.0, 0.0, 0.0, 0, 0, 0, 0, 0, 0, 0.2497858703136444, -2.4722485542297363, -0.05654209479689598
15017, -0.01506925281137228, -0.06075194850564003, -0.07338114827871323, -0.050649531185626984, 0.08969086408615112, 0.3284008502960205, -0.00019731337670236826, -0.0016783538740128279, 0.9996256828308105, 0.25032973289489746, -2.4763762950897217, -0.05661768093705177, 0.0, 0.0, 0.0, 0, 0, 0, 0, 0, 0, 0.25032973289489746, -2.4763762950897217, -0.05661768093705177
15027, -0.015591595321893692, -0.061173245310783386, -0.07463822513818741, 0.023217231035232544, 0.022908026352524757, -0.17165176570415497, -0.0005584416212514043, -0.004474872723221779, 0.9995520710945129, 0.250874400138855, -2.4805054664611816, -0.056692853569984436, 0.0, 0.0, 0.0, 0, 0, 0, 0, 0, 0, 0.250874400138855, -2.4805054664611816, -0.056692853569984436
15037, -0.016245456412434578, -0.060128167271614075, -0.07433981448411942, -0.10772775858640671, -0.1776399165391922, 0.089846171438694, 0.002636742778122425, -0.004160893149673939, 0.9965176582336426, 0.25141990184783936, -2.484637498855591, -0.05676838010549545, 0.0, 0.0, 0.0, 0, 0, 0, 0, 0, 0, 0.25141990184783936, -2.484637498855591, -0.05676838010549545
15047, -0.01643749140202999, -0.061377957463264465, -0.07464312016963959, -0.07814088463783264, 0.28362810611724854, -0.036959365010261536, 0.0011600182624533772, -0.004708181135356426, 0.9971537590026855, 0.25196734070777893, -2.4887735843658447, -0.0568460077047348, 0.0, 0.0, 0.0, 0, 0, 0, 0, 0, 0, 0.25196734070777893, -2.4887735843658447, -0.0568460077047348
15057, -0.017368383705615997, -0.06140161678195, -0.07394944876432419, -0.043989330530166626, 0.03185594826936722, -0.12495332956314087, 0.0012879561400040984, -0.0033017536625266075, 0.9981862306594849, 0.2525172829627991, -2.4929139614105225, -0.05692673102021217, 0.0, 0.0, 0.0, 0, 0, 0, 0, 0, 0, 0.2525172829627991, -2.4929139614105225, -0.05692673102021217
15067, -0.016978921368718147, -0.0622389130294323, -0.07480894774198532, 0.06988954544067383, 0.01790972799062729, 0.10596751421689987, 0.0011825596448034048, -0.005676798988133669, 0.9981949925422668, 0.2531246840953827, -2.4974727630615234, -0.057018253952264786, 0.0, 0.0, 0.0, 0, 0, 0, 0, 0, 0, 0.2531246840953827, -2.4974727630615234, -0.057018253952264786
15077, -0.016978921368718147, -0.0622389130294323, -0.07480894774198532, 0.015195347368717194, -0.11475703120231628, -0.005776645615696907, 0.0007424827781505883, -0.004515593871474266, 0.996708869934082, 0.25367915630340576, -2.5016214847564697, -0.057103462517261505, 0.0, 0.0, 0.0, 0, 0, 0, 0, 0, 0, 0.25367915630340576, -2.5016214847564697, -0.057103462517261505
15087, -0.016603533178567886, -0.062315307557582855, -0.0748240202665329, -0.020979678258299828, 0.15550079941749573, -0.018990157172083855, 4.22592056565918e-05, -0.0035318282898515463, 0.9997166395187378, 0.25423556566238403, -2.505774736404419, -0.05719083175063133, 0.0, 0.0, 0.0, 0, 0, 0, 0, 0, 0, 0.25423556566238403, -2.505774736404419, -0.05719083175063133
15097, -0.016603533178567886, -0.062315307557582855, -0.0748240202665329, -0.06442474573850632, -0.056471746414899826, -0.08790196478366852, 0.0017453159671276808, -0.003858129261061549, 0.9992623329162598, 0.25479352474212646, -2.5099315643310547, -0.057279642671346664, 0.0, 0.0, 0.0, 0, 0, 0, 0, 0, 0, 0.25479352474212646, -2.5099315643310547, -0.057279642671346664
15107, -0.017462842166423798, -0.06218387186527252, -0.0752113088965416, 0.04788317158818245, 0.0014206881169229746, -0.1279124617576599, 0.002968231216073036, -0.0035979142412543297, 0.9986253380775452, 0.25535374879837036, -2.514091730117798, -0.057369258254766464, 0.0, 0.0, 0.0, 0, 0, 0, 0, 0, 0, 0.25535374879837036, -2.514091730117798, -0.057369258254766464
15117, -0.01772194355726242, -0.0627543032169342, -0.07563772052526474, -0.07222100347280502, 0.0325753316283226, 0.1061534434556961, 0.001030453247949481, -0.003142368048429489, 0.998613178730011, 0.25591734051704407, -2.5182552337646484, -0.057460080832242966, 0.0, 0.0, 0.0, 0, 0, 0, 0, 0, 0, 0.25591734051704407, -2.5182552337646484, -0.057460080832242966
15127, -0.01763046346604824, -0.06342329829931259, -0.07511357963085175, 0.157400444149971, -0.24647560715675354, -0.03762885183095932, -0.0010494741145521402, -0.0024241944774985313, 0.9991927146911621, 0.25648313760757446, -2.522421360015869, -0.057552240788936615, 0.0, 0.0, 0.0, 0, 0, 0, 0, 0, 0, 0.25648313760757446, -2.522421360015869, -0.057552240788936615
15137, -0.017735281959176064, -0.06143011897802353, -0.07495354115962982, 0.06569576263427734, 0.12006984651088715, -0.05467331409454346, -3.541917249094695e-05, -0.0029468873981386423, 1.0008468627929688, 0.2570495307445526, -2.5265896320343018, -0.057645443826913834, 0.0, 0.0, 0.0, 0, 0, 0, 0, 0, 0, 0.2570495307445526, -2.5265896320343018, -0.057645443826913834
15147, -0.016982706263661385, -0.062408383935689926, -0.07550197094678879, -0.0546618327498436, -0.048764973878860474, -0.19442546367645264, 0.001860002288594842, -0.004395322874188423, 1.00163996219635, 0.25761693716049194, -2.5307607650756836, -0.057738322764635086, 0.0, 0.0, 0.0, 0, 0, 0, 0, 0, 0, 0.25761693716049194, -2.5307607650756836, -0.057738322764635086
15157, -0.016522474586963654, -0.06205736845731735, -0.07639260590076447, 0.06767286360263824, 0.12402001023292542, -0.22482289373874664, 0.001399943488650024, -0.005176477134227753, 0.9997372627258301, 0.258186399936676, -2.534935712814331, -0.05782998725771904, 0.0, 0.0, 0.0, 0, 0, 0, 0, 0, 0, 0.258186399936676, -2.534935712814331, -0.05782998725771904
15167, -0.016077833250164986, -0.061690397560596466, -0.07671663165092468, -0.12557460367679596, 0.07201725989580154, -0.27791687846183777, 0.0011324227089062333, -0.002729632193222642, 0.9987756013870239, 0.25875815749168396, -2.5391149520874023, -0.05792142078280449, 0.0, 0.0, 0.0, 0, 0, 0, 0, 0, 0, 0.25875815749168396, -2.5391149520874023, -0.05792142078280449
15177, -0.01662503182888031, -0.062129225581884384, -0.07698488235473633, 0.008728866465389729, -0.12983447313308716, 0.03662208840250969, 0.0013455272419378161, -0.006120202597230673, 0.9986808896064758, 0.25933200120925903, -2.5432980060577393, -0.05801372602581978, 0.0, 0.0, 0.0, 0, 0, 0, 0, 0, 0, 0.25933200120925903, -2.5432980060577393, -0.05801372602581978
15187, -0.01624428667128086, -0.0617535375058651, -0.07715972512960434, 0.08120661973953247, 0.38815730810165405, -0.1660642772912979, 0.0010337256826460361, -0.003179217455908656, 1.0000649690628052, 0.2599080801010132, -2.5474853515625, -0.05810694023966789, 0.0, 0.0, 0.0, 0, 0, 0, 0, 0, 0, 0.2599080801010132, -2.5474853515625, -0.05810694023966789
15197, -0.01654287800192833, -0.06366517394781113, -0.07890823483467102, 0.0026648701168596745, -0.16307170689105988, 0.19670994579792023, 0.0005928726750425994, -0.0025150212459266186, 1.0019903182983398, 0.2604861259460449, -2.5516765117645264, -0.058200202882289886, 0.0, 0.0, 0.0, 0, 0, 0, 0, 0, 0, 0.2604861259460449, -2.5516765117645264, -0.058200202882289886
15207, -0.016300957649946213, -0.06238627806305885, -0.07838200032711029, -0.18103154003620148, 0.11502312123775482, -0.10987504571676254, 4.314810212235898e-05, -0.00504445843398571, 1.0020986795425415, 0.26106569170951843, -2.555870294570923, -0.058291956782341, 0.0, 0.0, 0.0, 0, 0, 0, 0, 0, 0, 0.26106569170951843, -2.555870294570923, -0.058291956782341
15217, -0.016927050426602364, -0.06285489350557327, -0.07830459624528885, -0.054463498294353485, 0.3020910322666168, 0.1858551949262619, -0.001054709660820663, -0.003613926935940981, 0.9982697367668152, 0.26164641976356506, -2.560067653656006, -0.05838215723633766, 0.0, 0.0, 0.0, 0, 0, 0, 0, 0, 0, 0.26164641976356506, -2.560067653656006, -0.05838215723633766
15227, -0.017938289791345596, -0.06442190706729889, -0.07761537283658981, -0.005518996622413397, -0.054928962141275406, -0.08683323115110397, -0.0021487856283783913, -0.001967344433069229, 1.0005996227264404, 0.2622274160385132, -2.5642685890197754, -0.05847249552607536, 0.0, 0.0, 0.0, 0, 0, 0, 0, 0, 0, 0.2622274160385132, -2.5642685890197754, -0.05847249552607536
15237, -0.01760208234190941, -0.06257310509681702, -0.07728205621242523, -0.014806284569203854, -0.427660197019577, -0.28643694519996643, -0.00023403776867780834, -0.002204395132139325, 1.0006502866744995, 0.2628078758716583, -2.5684714317321777, -0.05856296420097351, 0.0, 0.0, 0.0, 0, 0, 0, 0, 0, 0, 0.2628078758716583, -2.5684714317321777, -0.05856296420097351
15247, -0.01685982011258602, -0.060039080679416656, -0.0785464197397232, -0.051452431827783585, -0.08112968504428864, 0.07172907143831253, -0.0003638896450866014, -0.0029937466606497765, 1.0002187490463257, 0.26338860392570496, -2.572676181793213, -0.05865272879600525, 0.0, 0.0, 0.0, 0, 0, 0, 0, 0, 0, 0.26338860392570496, -2.572676181793213, -0.05865272879600525
15257, -0.017202168703079224, -0.05987493693828583, -0.0787070021033287, 0.21333704888820648, -0.310383677482605, -0.055411189794540405, -0.000316883553750813, -0.002694613067433238, 1.0009952783584595, 0.26397013664245605, -2.576883554458618, -0.05874188244342804, 0.0, 0.0, 0.0, 0, 0, 0, 0, 0, 0, 0.26397013664245605, -2.576883554458618, -0.05874188244342804
15267, -0.01759827882051468, -0.05770965293049812, -0.07902313023805618, -0.056975383311510086, -0.20429761707782745, 0.2241262048482895, -0.0028081038035452366, -0.003181386273354292, 0.9994854927062988, 0.2645520567893982, -2.5810933113098145, -0.05883030220866203, 0.0, 0.0, 0.0, 0, 0, 0, 0, 0, 0, 0.2645520567893982, -2.5810933113098145, -0.05883030220866203
15277, -0.017709413543343544, -0.05598555505275726, -0.07790566235780716, -0.15937495231628418, -0.2490197867155075, 0.0267943125218153, -0.0015371177578344941, -0.0030717365443706512, 0.99874347448349, 0.2651330828666687, -2.5853054523468018, -0.05891874432563782, 0.0, 0.0, 0.0, 0, 0, 0, 0, 0, 0, 0.2651330828666687, -2.5853054523468018, -0.05891874432563782
15287, -0.017340045422315598, -0.05403002351522446, -0.07800837606191635, -0.029154891148209572, -0.021042564883828163, -0.012246242724359035, 0.000913861847948283, -0.005018304567784071, 0.9996526837348938, 0.26571327447891235, -2.5895211696624756, -0.05900831148028374, 0.0, 0.0, 0.0, 0, 0, 0, 0, 0, 0, 0.26571327447891235, -2.5895211696624756, -0.05900831148028374
15297, -0.017511336132884026, -0.05388510599732399, -0.07866662740707397, 0.048309843987226486, -0.059895649552345276, 0.16403134167194366, 0.000859155086800456, -0.0024910238571465015, 1.0003387928009033, 0.2662947475910187, -2.593740463256836, -0.0590987354516983, 0.0, 0.0, 0.0, 0, 0, 0, 0, 0, 0, 0.2662947475910187, -2.593740463256836, -0.0590987354516983
15307, -0.01622595079243183, -0.052658434957265854, -0.077542245388031, 0.11314447969198227, 0.24523989856243134, -0.08301449567079544, 0.000822284840978682, -0.0033418459352105856, 1.0005227327346802, 0.2668778896331787, -2.5979628562927246, -0.059189144521951675, 0.0, 0.0, 0.0, 0, 0, 0, 0, 0, 0, 0.2668778896331787, -2.5979628562927246, -0.059189144521951675
15317, -0.016883401200175285, -0.055095549672842026, -0.07624515146017075, -0.15966244041919708, -0.07030028849840164, -0.03134942799806595, -0.0008825534605421126, -0.0035204889718443155, 1.0002995729446411, 0.26746219396591187, -2.6021878719329834, -0.059279024600982666, 0.0, 0.0, 0.0, 0, 0, 0, 0, 0, 0, 0.26746219396591187, -2.6021878719329834, -0.059279024600982666
15327, -0.017303291708230972, -0.05512838065624237, -0.0761115774512291, 0.04191449284553528, 0.02653336711227894, 0.024564437568187714, -0.0004007349780295044, -0.00128115841653198, 0.9994350671768188, 0.2680475115776062, -2.6064157485961914, -0.05936846509575844, 0.0, 0.0, 0.0, 0, 0, 0, 0, 0, 0, 0.2680475115776062, -2.6064157485961914, -0.05936846509575844
15337, -0.017519015818834305, -0.05595424771308899, -0.07638365030288696, 0.010811119340360165, -0.05969629064202309, 0.026601964607834816, -0.001332545536570251, -0.0017025909619405866, 1.0016412734985352, 0.268633097410202, -2.610645294189453, -0.05945777893066406, 0.0, 0.0, 0.0, 0, 0, 0, 0, 0, 0, 0.268633097410202, -2.610645294189453, -0.05945777893066406
15347, -0.01798461377620697, -0.05463511869311333, -0.07527900487184525, 0.15981236100196838, -0.04675595089793205, -0.0002224795607617125, 0.0016809433000162244, -0.0037552297580987215, 1.0006603002548218, 0.26921898126602173, -2.6148765087127686, -0.05954618379473686, 0.0, 0.0, 0.0, 0, 0, 0, 0, 0, 0, 0.26921898126602173, -2.6148765087127686, -0.05954618379473686
15357, -0.017687568441033363, -0.05545983463525772, -0.07413012534379959, -0.027302855625748634, 0.26082611083984375, -0.07287529855966568, 0.0019141572993248701, -0.004550835583359003, 0.9974396228790283, 0.26980671286582947, -2.619110345840454, -0.0596337616443634, 0.0, 0.0, 0.0, 0, 0, 0, 0, 0, 0, 0.26980671286582947, -2.619110345840454, -0.0596337616443634
15367, -0.0178925059735775, -0.05725324526429176, -0.07433280348777771, 0.032454606145620346, 0.04274936392903328, 0.18399779498577118, -0.00032659227144904435, -0.0012669601710513234, 1.0002251863479614, 0.27039697766304016, -2.623347520828247, -0.05972255393862724, 0.0, 0.0, 0.0, 0, 0, 0, 0, 0, 0, 0.27039697766304016, -2.623347520828247, -0.05972255393862724
15377, -0.01860492303967476, -0.05750791355967522, -0.0745786502957344, 0.031782232224941254, -0.1534431427717209, 0.030787723138928413, -0.0012189879780635238, -0.0036258306354284286, 0.9999279379844666, 0.27098870277404785, -2.627587080001831, -0.059812333434820175, 0.0, 0.0, 0.0, 0, 0, 0, 0, 0, 0, 0.27098870277404785, -2.627587080001831, -0.059812333434820175
15387, -0.01863410696387291, -0.05611531808972359, -0.07577840983867645, -0.08109365403652191, 0.36127227544784546, 0.16703662276268005, -0.001337324152700603, -0.005165405571460724, 0.9996001124382019, 0.27158069610595703, -2.631829261779785, -0.05990215390920639, 0.0, 0.0, 0.0, 0, 0, 0, 0, 0, 0, 0.27158069610595703, -2.631829261779785, -0.05990215390920639
15397, -0.018433135002851486, -0.056282516568899155, -0.07453711330890656, -0.07858792692422867, -0.05428307503461838, -0.26711779832839966, -0.001500505255535245, -0.0037485596258193254, 0.9987380504608154, 0.27217233180999756, -2.636075735092163, -0.059992507100105286, 0.0, 0.0, 0.0, 0, 0, 0, 0, 0, 0, 0.27217233180999756, -2.636075735092163, -0.059992507100105286
15407, -0.018697483465075493, -0.057956840842962265, -0.07558578252792358, -0.19807937741279602, 0.1211962178349495, 0.009305995889008045, -0.0008639837033115327, -0.000960866513196379, 1.0022754669189453, 0.2727634906768799, -2.6403257846832275, -0.06008336693048477, 0.0, 0.0, 0.0, 0, 0, 0, 0, 0, 0, 0.2727634906768799, -2.6403257846832275, -0.06008336693048477
15417, -0.01933905854821205, -0.057228825986385345, -0.07577753067016602, -0.07840217649936676, 0.028022006154060364, -0.03612834960222244, -0.0006818794063292444, -0.003267174120992422, 1.000604271888733, 0.2733546793460846, -2.644577741622925, -0.06017353758215904, 0.0, 0.0, 0.0, 0, 0, 0, 0, 0, 0, 0.2733546793460846, -2.644577741622925, -0.06017353758215904
15427, -0.01975337602198124, -0.056633010506629944, -0.07499292492866516, 0.035146940499544144, -0.020558053627610207, 0.0741858184337616, -0.0008440419915132225, -0.0035790554247796535, 0.9990572929382324, 0.27394619584083557, -2.648832082748413, -0.06026269868016243, 0.0, 0.0, 0.0, 0, 0, 0, 0, 0, 0, 0.27394619584083557, -2.648832082748413, -0.06026269868016243
15437, -0.020150423049926758, -0.05890534818172455, -0.0743803083896637, 0.002035955898463726, 0.020081082358956337, -0.0534031018614769, -0.0009604715742170811, -0.003394235158339143, 0.9984372854232788, 0.2745378315448761, -2.6530895233154297, -0.06035224348306656, 0.0, 0.0, 0.0, 0, 0, 0, 0, 0, 0, 0.2745378315448761, -2.6530895233154297, -0.06035224348306656
15447, -0.019528331235051155, -0.05841241404414177, -0.07512150704860687, -0.016534985974431038, -0.15234901010990143, -0.09801428765058517, -0.0019983742386102676, -0.0025984449312090874, 1.0011637210845947, 0.2751294672489166, -2.6573498249053955, -0.06044280156493187, 0.0, 0.0, 0.0, 0, 0, 0, 0, 0, 0, 0.2751294672489166, -2.6573498249053955, -0.06044280156493187
15457, -0.019068095833063126, -0.058077987283468246, -0.0746975764632225, -0.1551651507616043, -0.19117750227451324, 0.013031207025051117, -0.0018402246059849858, -0.003480330342426896, 1.0009106397628784, 0.27572083473205566, -2.6616127490997314, -0.060533326119184494, 0.0, 0.0, 0.0, 0, 0, 0, 0, 0, 0, 0.27572083473205566, -2.6616127490997314, -0.060533326119184494
15467, -0.02008652500808239, -0.05884873494505882, -0.0739239752292633, 0.024486416950821877, 0.5193978548049927, 0.06065243110060692, 0.00018554521375335753, -0.0020648837089538574, 1.0000520944595337, 0.2763116955757141, -2.6658782958984375, -0.06062315031886101, 0.0, 0.0, 0.0, 0, 0, 0, 0, 0, 0, 0.2763116955757141, -2.6658782958984375, -0.06062315031886101
15477, -0.02076716534793377, -0.060066789388656616, -0.07382272183895111, -0.22045618295669556, -0.1174091100692749, 0.11876609176397324, 0.0003520897589623928, -0.003090612357482314, 1.00004243850708, 0.2769031524658203, -2.6701462268829346, -0.06071280315518379, 0.0, 0.0, 0.0, 0, 0, 0, 0, 0, 0, 0.2769031524658203, -2.6701462268829346, -0.06071280315518379
15487, -0.021231431514024734, -0.06048964709043503, -0.07382334768772125, -0.047237593680620193, 0.2074546217918396, 0.10008377581834793, -5.152239100425504e-05, -0.0031946003437042236, 0.9987747073173523, 0.2774961292743683, -2.6744165420532227, -0.06080261245369911, 0.0, 0.0, 0.0, 0, 0, 0, 0, 0, 0, 0.2774961292743683, -2.6744165420532227, -0.06080261245369911
15497, -0.021557006984949112, -0.06133019179105759, -0.07297421991825104, -0.03260580822825432, -0.2603471577167511, -0.09687215089797974, -0.0023958939127624035, -0.0036885151639580727, 0.99998939037323, 0.2780900001525879, -2.67868971824646, -0.06089285388588905, 0.0, 0.0, 0.0, 0, 0, 0, 0, 0, 0, 0.2780900001525879, -2.67868971824646, -0.06089285388588905
15507, -0.02289349026978016, -0.0607224740087986, -0.07406560331583023, -0.16812914609909058, 0.13052265346050262, -0.15530313551425934, -0.0008855562773533165, -0.002286362461745739, 1.000326156616211, 0.2786835730075836, -2.6829655170440674, -0.06098318472504616, 0.0, 0.0, 0.0, 0, 0, 0, 0, 0, 0, 0.2786835730075836, -2.6829655170440674, -0.06098318472504616
15517, -0.023292146623134613, -0.060856014490127563, -0.07527396082878113, 0.03156360611319542, -0.044763579964637756, 0.13815438747406006, 0.0003614524321164936, -0.0028831048402935266, 1.0012656450271606, 0.27927690744400024, -2.687243700027466, -0.06107305362820625, 0.0, 0.0, 0.0, 0, 0, 0, 0, 0, 0, 0.27927690744400024, -2.687243700027466, -0.06107305362820625
15527, -0.02278716489672661, -0.06160639598965645, -0.07497025281190872, -0.04991216957569122, 0.2187480628490448, -0.03928820416331291, 8.975565287983045e-05, -0.0042382036335766315, 1.001752495765686, 0.27987122535705566, -2.691524028778076, -0.06116199493408203, 0.0, 0.0, 0.0, 0, 0, 0, 0, 0, 0, 0.27987122535705566, -2.691524028778076, -0.06116199493408203
15537, -0.024014905095100403, -0.06381014734506607, -0.07473036646842957, -0.09094826132059097, 0.18073835968971252, -0.017304278910160065, -0.0002465543511789292, -0.005051642190665007, 1.0002351999282837, 0.2804667353630066, -2.695807695388794, -0.061249494552612305, 0.0, 0.0, 0.0, 0, 0, 0, 0, 0, 0, 0.2804667353630066, -2.695807695388794, -0.061249494552612305
15547, -0.024366797879338264, -0.06430791318416595, -0.07462473213672638, -0.1532423347234726, 0.21786679327487946, -0.3410695791244507, 0.0015607863897457719, -0.004706489387899637, 0.9994064569473267, 0.28106337785720825, -2.7000958919525146, -0.061336223036050797, 0.0, 0.0, 0.0, 0, 0, 0, 0, 0, 0, 0.28106337785720825, -2.7000958919525146, -0.061336223036050797
15557, -0.02419971488416195, -0.0656205415725708, -0.07635881006717682, 0.14487513899803162, 0.12329746037721634, -0.12032018601894379, 0.0013589494628831744, -0.00203136308118701, 1.0009944438934326, 0.281662255525589, -2.704388380050659, -0.061422932893037796, 0.0, 0.0, 0.0, 0, 0, 0, 0, 0, 0, 0.281662255525589, -2.704388380050659, -0.061422932893037796
15567, -0.024032464250922203, -0.0640091747045517, -0.07725398987531662, -0.08431310206651688, -0.21620701253414154, 0.0940220057964325, -0.0010994323529303074, -0.004308149218559265, 1.0005645751953125, 0.28226345777511597, -2.708683729171753, -0.06150924041867256, 0.0, 0.0, 0.0, 0, 0, 0, 0, 0, 0, 0.28226345777511597, -2.708683729171753, -0.06150924041867256
15577, -0.024658525362610817, -0.06388375163078308, -0.07611991465091705, -0.1267700344324112, -0.010680927895009518, 0.1382855921983719, -0.00010157181532122195, -0.0027331223245710135, 1.0004276037216187, 0.2828655242919922, -2.712981939315796, -0.06159474328160286, 0.0, 0.0, 0.0, 0, 0, 0, 0, 0, 0, 0.2828655242919922, -2.712981939315796, -0.06159474328160286
15587, -0.024837616831064224, -0.06256259232759476, -0.07716237753629684, 0.1632463037967682, -0.19991865754127502, 0.20073401927947998, -8.973023068392649e-05, 9.571489499649033e-05, 1.0006554126739502, 0.2834681272506714, -2.717283010482788, -0.06167938932776451, 0.0, 0.0, 0.0, 0, 0, 0, 0, 0, 0, 0.2834681272506714, -2.717283010482788, -0.06167938932776451
15597, -0.024894867092370987, -0.06056971475481987, -0.07720093429088593, -0.054845668375492096, 0.011230632662773132, -0.2690391540527344, 0.0005891918553970754, -0.001227715634740889, 0.9994386434555054, 0.2840718626976013, -2.7215847969055176, -0.06176365539431572, 0.0, 0.0, 0.0, 0, 0, 0, 0, 0, 0, 0.2840718626976013, -2.7215847969055176, -0.06176365539431572
15607, -0.024323398247361183, -0.06106825917959213, -0.0772884413599968, 0.17855486273765564, 0.0870220884680748, -0.037558794021606445, -0.0005296222516335547, -0.003981587942689657, 1.0016649961471558, 0.2846769690513611, -2.7258870601654053, -0.06184791028499603, 0.0, 0.0, 0.0, 0, 0, 0, 0, 0, 0, 0.2846769690513611, -2.7258870601654053, -0.06184791028499603
15617, -0.023818252608180046, -0.06230227276682854, -0.07621452212333679, 0.04357804358005524, -0.09221606701612473, -0.20820839703083038, -0.0018889263737946749, -0.002293891506269574, 0.9995102286338806, 0.28528279066085815, -2.730191707611084, -0.06193163990974426, 0.0, 0.0, 0.0, 0, 0, 0, 0, 0, 0, 0.28528279066085815, -2.730191707611084, -0.06193163990974426
15627, -0.02274755947291851, -0.059805065393447876, -0.07741551101207733, 0.004062514286488295, 0.17236365377902985, -0.03155825287103653, -0.0006348550086840987, -0.00259560183621943, 1.000837802886963, 0.2858884632587433, -2.7344987392425537, -0.06201505661010742, 0.0, 0.0, 0.0, 0, 0, 0, 0, 0, 0, 0.2858884632587433, -2.7344987392425537, -0.06201505661010742
15637, -0.023720094934105873, -0.060399092733860016, -0.07630216330289841, 0.2129475176334381, -0.29081854224205017, 0.09052654355764389, -0.0016838572919368744, -0.00030719570349901915, 0.9994752407073975, 0.28649404644966125, -2.7388076782226562, -0.062098219990730286, 0.0, 0.0, 0.0, 0, 0, 0, 0, 0, 0, 0.28649404644966125, -2.7388076782226562, -0.062098219990730286
15647, -0.022852221503853798, -0.05877703055739403, -0.07632770389318466, -0.03517049923539162, 0.02093825675547123, -0.1857680231332779, 0.001355233252979815, -0.0019939930643886328, 1.0013025999069214, 0.28709983825683594, -2.743117332458496, -0.0621810108423233, 0.0, 0.0, 0.0, 0, 0, 0, 0, 0, 0, 0.28709983825683594, -2.743117332458496, -0.0621810108423233
15657, -0.023381223902106285, -0.059036437422037125, -0.07696403563022614, -0.02553275041282177, -0.07640842348337173, 0.046583183109760284, -0.00026831080322153866, -0.0038350974209606647, 1.0004217624664307, 0.2877066135406494, -2.7474284172058105, -0.06226314604282379, 0.0, 0.0, 0.0, 0, 0, 0, 0, 0, 0, 0.2877066135406494, -2.7474284172058105, -0.06226314604282379
15667, -0.023151416331529617, -0.05733465775847435, -0.07733722031116486, 0.0912267193198204, -0.2696811258792877, 0.0958600714802742, -0.0007066333200782537, -0.0019232804188504815, 0.9993572235107422, 0.28831449151039124, -2.751742362976074, -0.06234455853700638, 0.0, 0.0, 0.0, 0, 0, 0, 0, 0, 0, 0.28831449151039124, -2.751742362976074, -0.06234455853700638
15677, -0.022798042744398117, -0.058454275131225586, -0.07632896304130554, 0.11615096032619476, 0.371182918548584, 0.17814241349697113, -0.0005756295868195593, -0.0028279644902795553, 1.0002379417419434, 0.2889227569103241, -2.756058931350708, -0.06242632120847702, 0.0, 0.0, 0.0, 0, 0, 0, 0, 0, 0, 0.2889227569103241, -2.756058931350708, -0.06242632120847702
15687, -0.022332429885864258, -0.06052596494555473, -0.07595587521791458, 0.06274982541799545, -0.1769179403781891, -0.0786752700805664, 0.000347006629453972, -0.003780548693612218, 1.000942349433899, 0.2895312011241913, -2.7603776454925537, -0.06250835955142975, 0.0, 0.0, 0.0, 0, 0, 0, 0, 0, 0, 0.2895312011241913, -2.7603776454925537, -0.06250835955142975
15697, -0.022257059812545776, -0.060150209814310074, -0.07543917000293732, 0.12897691130638123, -0.03295765444636345, 0.08697444945573807, 0.0002535134262870997, -0.0049102152697741985, 1.0007679462432861, 0.2901402711868286, -2.7646994590759277, -0.06258977949619293, 0.0, 0.0, 0.0, 0, 0, 0, 0, 0, 0, 0.2901402711868286, -2.7646994590759277, -0.06258977949619293
15707, -0.021400082856416702, -0.06072400137782097, -0.0757235586643219, -0.08329560607671738, 0.20689567923545837, -0.17806047201156616, -0.000773947627749294, -0.0034048371016979218, 1.0002155303955078, 0.2907504737377167, -2.7690255641937256, -0.06267030537128448, 0.0, 0.0, 0.0, 0, 0, 0, 0, 0, 0, 0.2907504737377167, -2.7690255641937256, -0.06267030537128448
15717, -0.022510284557938576, -0.060881294310092926, -0.07568277418613434, -0.04311234503984451, -0.0709335058927536, 0.18521860241889954, -0.0009360233671031892, -0.0019404587801545858, 1.0006316900253296, 0.2913613021373749, -2.773355007171631, -0.0627501830458641, 0.0, 0.0, 0.0, 0, 0, 0, 0, 0, 0, 0.2913613021373749, -2.773355007171631, -0.0627501830458641
15727, -0.022313224151730537, -0.061102982610464096, -0.07660694420337677, -0.13903257250785828, -0.17569196224212646, -0.00296701118350029, -0.002136367140337825, -0.0024508291389793158, 0.9979397058486938, 0.2919721007347107, -2.77768611907959, -0.0628298670053482, 0.0, 0.0, 0.0, 0, 0, 0, 0, 0, 0, 0.2919721007347107, -2.77768611907959, -0.0628298670053482
15737, -0.023347413167357445, -0.05854925885796547, -0.07816476374864578, 0.05480663478374481, 0.04990561306476593, 0.13208451867103577, -0.0004082733066752553, -0.006186804734170437, 1.000619649887085, 0.29258254170417786, -2.78201961517334, -0.06291027367115021, 0.0, 0.0, 0.0, 0, 0, 0, 0, 0, 0, 0.29258254170417786, -2.78201961517334, -0.06291027367115021
15747, -0.022906403988599777, -0.05947807803750038, -0.07656463235616684, -0.11716534942388535, -0.17586776614189148, -0.06492412835359573, -0.0016935036983340979, -0.004209385719150305, 1.0015840530395508, 0.29319292306900024, -2.7863574028015137, -0.06299076974391937, 0.0, 0.0, 0.0, 0, 0, 0, 0, 0, 0, 0.29319292306900024, -2.7863574028015137, -0.06299076974391937
15757, -0.02329743094742298, -0.058629412204027176, -0.07550919055938721, 0.1357431411743164, -0.15659603476524353, 0.3566952049732208, -8.825203985907137e-05, -0.00375885097309947, 0.9992384314537048, 0.29380327463150024, -2.7906999588012695, -0.06307019293308258, 0.0, 0.0, 0.0, 0, 0, 0, 0, 0, 0, 0.29380327463150024, -2.7906999588012695, -0.06307019293308258
15767, -0.02183682657778263, -0.05913471430540085, -0.07373339682817459, -0.013805104419589043, 0.17238453030586243, 0.06814069300889969, 0.0007014070870354772, -0.0023412874434143305, 1.000161051750183, 0.2944139540195465, -2.795045852661133, -0.06314929574728012, 0.0, 0.0, 0.0, 0, 0, 0, 0, 0, 0, 0.2944139540195465, -2.795045852661133, -0.06314929574728012
15777, -0.02214246615767479, -0.05768721550703049, -0.07428388297557831, 0.030648715794086456, 0.0320151224732399, -0.023445837199687958, 0.003110920311883092, -0.004009938333183527, 0.9996765851974487, 0.2950262427330017, -2.799394369125366, -0.0632285624742508, 0.0, 0.0, 0.0, 0, 0, 0, 0, 0, 0, 0.2950262427330017, -2.799394369125366, -0.0632285624742508
15787, -0.022140691056847572, -0.06118868663907051, -0.07554909586906433, -0.01464375201612711, 0.5307719111442566, -0.04726453125476837, -0.0007488437695428729, -0.004023063462227583, 0.9998399019241333, 0.29564133286476135, -2.803745746612549, -0.06330785900354385, 0.0, 0.0, 0.0, 0, 0, 0, 0, 0, 0, 0.29564133286476135, -2.803745746612549, -0.06330785900354385
15797, -0.021870531141757965, -0.06246035546064377, -0.07462908327579498, -0.05248450115323067, 0.06784699857234955, -0.01819070428609848, 0.00010889449913520366, -0.004331664647907019, 0.9996007680892944, 0.29625818133354187, -2.808100938796997, -0.06338711082935333, 0.0, 0.0, 0.0, 0, 0, 0, 0, 0, 0, 0.29625818133354187, -2.808100938796997, -0.06338711082935333
15807, -0.022228175774216652, -0.0636473074555397, -0.07447817921638489, 0.10909552872180939, -0.020193742588162422, 0.1704685240983963, -1.982423236768227e-05, -0.0023212297819554806, 1.0001769065856934, 0.29687580466270447, -2.812459707260132, -0.06346642225980759, 0.0, 0.0, 0.0, 0, 0, 0, 0, 0, 0, 0.29687580466270447, -2.812459707260132, -0.06346642225980759
15817, -0.021566975861787796, -0.061945103108882904, -0.07389272749423981, -0.11501059681177139, 0.065514475107193, 0.046094004064798355, -0.00021653936710208654, -0.0042635356076061726, 1.001510739326477, 0.2974946200847626, -2.8168210983276367, -0.06354566663503647, 0.0, 0.0, 0.0, 0, 0, 0, 0, 0, 0, 0.2974946200847626, -2.8168210983276367, -0.06354566663503647
15827, -0.021696817129850388, -0.061477214097976685, -0.0743120089173317, -0.1179594099521637, 0.10380017757415771, 0.04427182301878929, -0.0011670540552586317, -0.004854794591665268, 0.999681293964386, 0.2981143891811371, -2.82118558883667, -0.0636240765452385, 0.0, 0.0, 0.0, 0, 0, 0, 0, 0, 0, 0.2981143891811371, -2.82118558883667, -0.0636240765452385
