timeTick, roll, pitch, yaw, gyroX, gyroY, gyroZ, accX, accY, accZ, stateX, stateY, stateZ, target_x, target_y, target_z, otX, otY, otZ, otRoll, otPitch, otYaw, kalX, kalY, kalZ
10914, 0.01021097507327795, -0.1311378926038742, 0.1044987365603447, 0, 0, 0, 0, 0, 0, 0, 0, 0, 0, 0, 0, 0, 0, 0, 0, 0, 0, 0, 0, 0
10924, 0.01043801847845316, -0.1310073435306549, 0.1050175279378891, 0.06789413839578629, 0.36799463629722595, 0.17921708524227142, -9.382141433889046e-05, -0.0025310541968792677, 1.0004289150238037, 0.33083420991897583, -0.7833535671234131, 0.014167139306664467, 0.0, 0.0, 0.0, 0, 0, 0, 0, 0, 0, 0.33083420991897583, -0.7833535671234131, 0.014167139306664467
10934, 0.010869203135371208, -0.13190902769565582, 0.10575508326292038, 0.1979937106370926, 0.03562445938587189, -0.03520622104406357, 0.0010948384879156947, -0.00391930527985096, 0.9998120665550232, 0.3319198787212372, -0.7854291200637817, 0.014233453199267387, 0.0, 0.0, 0.0, 0, 0, 0, 0, 0, 0, 0.3319198787212372, -0.7854291200637817, 0.014233453199267387
10944, 0.010509883984923363, -0.1326439529657364, 0.10539001226425171, -0.11075197160243988, 0.140357106924057, -0.10842239111661911, 0.0015208846889436245, -0.003555168630555272, 0.9992620348930359, 0.3330083191394806, -0.7875082492828369, 0.014299767091870308, 0.0, 0.0, 0.0, 0, 0, 0, 0, 0, 0, 0.3330083191394806, -0.7875082492828369, 0.014299767091870308
10954, 0.010147355496883392, -0.13311882317066193, 0.10545792430639267, -0.19970957934856415, -0.0016744858585298061, 0.10594587028026581, -0.001589492429047823, -0.0024502472952008247, 0.9973660707473755, 0.334209144115448, -0.7897994518280029, 0.0143717210739851, 0.0, 0.0, 0.0, 0, 0, 0, 0, 0, 0, 0.334209144115448, -0.7897994518280029, 0.0143717210739851
10964, 0.010039561428129673, -0.13402734696865082, 0.10679561644792557, 0.16168421506881714, 0.13790275156497955, 0.14619047939777374, -4.554004408419132e-05, -0.0029590881895273924, 0.9987557530403137, 0.33541232347488403, -0.7920945286750793, 0.014441736973822117, 0.0, 0.0, 0.0, 0, 0, 0, 0, 0, 0, 0.33541232347488403, -0.7920945286750793, 0.014441736973822117
10974, 0.009755847975611687, -0.13557462394237518, 0.106903076171875, 0.07107391953468323, 0.11524470150470734, -0.04264986887574196, 0.0005780934588983655, -0.0017532354686409235, 1.0007911920547485, 0.336508184671402, -0.7941837906837463, 0.014504057355225086, 0.0, 0.0, 0.0, 0, 0, 0, 0, 0, 0, 0.336508184671402, -0.7941837906837463, 0.014504057355225086
10984, 0.009297392331063747, -0.13486985862255096, 0.10557299107313156, 0.11668825149536133, -0.12442516535520554, 0.015538696199655533, -0.0003486114728730172, -0.0029455008916556835, 1.0003387928009033, 0.33760666847229004, -0.7962753772735596, 0.01456629578024149, 0.0, 0.0, 0.0, 0, 0, 0, 0, 0, 0, 0.33760666847229004, -0.7962753772735596, 0.01456629578024149
10994, 0.008920191787183285, -0.1347581148147583, 0.10603407770395279, -0.02292144112288952, 0.10982319712638855, 0.0009181232890114188, 0.0017047182191163301, -0.002543921349570155, 1.000083565711975, 0.33760666847229004, -0.7962753772735596, 0.01456629578024149, 0.0, 0.0, 0.0, 0, 0, 0, 0, 0, 0, 0.33870792388916016, -0.7983697652816772, 0.01462886855006218
11004, 0.009149237535893917, -0.13464322686195374, 0.10513124614953995, -0.011248394846916199, -0.002226126380264759, -0.07602865993976593, 0.0008144002640619874, -0.0034169747959822416, 1.0002912282943726, 0.33870792388916016, -0.7983697652816772, 0.01462886855006218, 0.0, 0.0, 0.0, 0, 0, 0, 0, 0, 0, 0.3398122191429138, -0.8004670143127441, 0.014691696502268314
11014, 0.008384722284972668, -0.133843332529068, 0.10429389774799347, -0.12677468359470367, -0.003639835398644209, -0.21946315467357635, 0.0013357105199247599, -0.0007753954268991947, 1.000273585319519, 0.3398122191429138, -0.8004670143127441, 0.014691696502268314, 0.0, 0.0, 0.0, 0, 0, 0, 0, 0, 0, 0.3409197926521301, -0.8025669455528259, 0.014754821546375751
11024, 0.008467723615467548, -0.13385874032974243, 0.10500697046518326, -0.061974089592695236, 0.008951317518949509, 0.22457465529441833, 0.0004343089531175792, -0.0025602388195693493, 0.9990571737289429, 0.3409197926521301, -0.8025669455528259, 0.014754821546375751, 0.0, 0.0, 0.0, 0, 0, 0, 0, 0, 0, 0.3420306146144867, -0.8046689629554749, 0.014818035066127777
11034, 0.008047855459153652, -0.1347411721944809, 0.10639411956071854, -0.09027411043643951, 0.10281924158334732, 0.1307940036058426, -0.0010551539016887546, -0.0045560854487121105, 0.9996915459632874, 0.3420306146144867, -0.8046689629554749, 0.014818035066127777, 0.0, 0.0, 0.0, 0, 0, 0, 0, 0, 0, 0.34314408898353577, -0.8067736625671387, 0.01488101202994585
11044, 0.007457744795829058, -0.13645721971988678, 0.10595982521772385, -0.0753496065735817, 0.03847559168934822, 0.1946474313735962, -0.0022034868597984314, -0.003398745786398649, 0.9983315467834473, 0.34314408898353577, -0.8067736625671387, 0.01488101202994585, 0.0, 0.0, 0.0, 0, 0, 0, 0, 0, 0, 0.3442588448524475, -0.8088821172714233, 0.014943397603929043
11054, 0.0072404504753649235, -0.13766251504421234, 0.10565570741891861, -0.08671964704990387, 0.1428115963935852, -0.09367403388023376, -0.0016474419971928, -0.0032770016696304083, 0.9975036978721619, 0.3442588448524475, -0.8088821172714233, 0.014943397603929043, 0.0, 0.0, 0.0, 0, 0, 0, 0, 0, 0, 0.3453741669654846, -0.8109940886497498, 0.015004238113760948
11064, 0.006933215074241161, -0.13896645605564117, 0.10570026934146881, 0.07056385278701782, 0.02191694639623165, -0.15825574100017548, -0.0011284479405730963, -0.0017174145905300975, 1.0010443925857544, 0.3453741669654846, -0.8109940886497498, 0.015004238113760948, 0.0, 0.0, 0.0, 0, 0, 0, 0, 0, 0, 0.3464904725551605, -0.8131089210510254, 0.015063561499118805
11074, 0.006256344728171825, -0.13814900815486908, 0.10565302520990372, -0.1418934464454651, 0.1075441837310791, 0.020809251815080643, -0.00019390862144064158, -0.0022368808276951313, 1.0020109415054321, 0.3464904725551605, -0.8131089210510254, 0.015063561499118805, 0.0, 0.0, 0.0, 0, 0, 0, 0, 0, 0, 0.34760838747024536, -0.815226137638092, 0.01512352004647255
11084, 0.00513371080160141, -0.13729488849639893, 0.1073274165391922, 0.14110834896564484, -0.28529298305511475, 0.15970592200756073, -0.0006739770178683102, -0.0004872985009569675, 1.0006985664367676, 0.34760838747024536, -0.815226137638092, 0.01512352004647255, 0.0, 0.0, 0.0, 0, 0, 0, 0, 0, 0, 0.34872809052467346, -0.8173452019691467, 0.015185083262622356
11094, 0.006436722353100777, -0.13764919340610504, 0.10660959780216217, 0.18144634366035461, -0.046577297151088715, -0.09881298989057541, -0.0006443033926188946, -0.003096621949225664, 1.0003434419631958, 0.34872809052467346, -0.8173452019691467, 0.015185083262622356, 0.0, 0.0, 0.0, 0, 0, 0, 0, 0, 0, 0.34984952211380005, -0.8194657564163208, 0.015247030183672905
11104, 0.006908911745995283, -0.13935182988643646, 0.10693246126174927, -0.18173274397850037, 0.406563937664032, 0.05871627479791641, -0.00023944128770381212, -0.0031249134335666895, 1.000999093055725, 0.34984952211380005, -0.8194657564163208, 0.015247030183672905, 0.0, 0.0, 0.0, 0, 0, 0, 0, 0, 0, 0.35097241401672363, -0.8215886354446411, 0.015309503301978111
11114, 0.006823067087680101, -0.1391938030719757, 0.10680610686540604, -0.030082261189818382, -0.24635012447834015, -0.059669144451618195, 0.0010687249014154077, -0.003425787203013897, 1.0014480352401733, 0.35097241401672363, -0.8215886354446411, 0.015309503301978111, 0.0, 0.0, 0.0, 0, 0, 0, 0, 0, 0, 0.35209736227989197, -0.823714554309845, 0.015373227186501026
11124, 0.007369301747530699, -0.13822056353092194, 0.10740970820188522, 0.12398558109998703, 0.15488381683826447, 0.05867428705096245, -0.0007785494672134519, -0.003416965948417783, 1.0021520853042603, 0.35209736227989197, -0.823714554309845, 0.015373227186501026, 0.0, 0.0, 0.0, 0, 0, 0, 0, 0, 0, 0.35322511196136475, -0.8258439898490906, 0.015438525006175041
11134, 0.0075964848510921, -0.13788436353206635, 0.10739266127347946, 0.007702573202550411, -0.2938918173313141, -0.002431294182315469, -0.0006095519638620317, -0.004147258121520281, 1.0008374452590942, 0.35322511196136475, -0.8258439898490906, 0.015438525006175041, 0.0, 0.0, 0.0, 0, 0, 0, 0, 0, 0, 0.35435500741004944, -0.8279774785041809, 0.015505792573094368
11144, 0.007432953920215368, -0.13623017072677612, 0.10774563252925873, -0.07218705862760544, -0.15670304000377655, 0.010373321361839771, -1.6952773876255378e-05, -0.0022790832445025444, 0.9997663497924805, 0.35435500741004944, -0.8279774785041809, 0.015505792573094368, 0.0, 0.0, 0.0, 0, 0, 0, 0, 0, 0, 0.3554864823818207, -0.8301146626472473, 0.015573891811072826
11154, 0.006792814936488867, -0.13652892410755157, 0.1090037077665329, 0.03753550350666046, 0.23267976939678192, 0.07479961216449738, 0.0006977662560530007, -0.0012964740162715316, 0.9995258450508118, 0.3554864823818207, -0.8301146626472473, 0.015573891811072826, 0.0, 0.0, 0.0, 0, 0, 0, 0, 0, 0, 0.35662004351615906, -0.8322544693946838, 0.015641773119568825
11164, 0.007217989768832922, -0.13646024465560913, 0.10839719325304031, -0.004496023524552584, -0.06365948915481567, 0.06126253306865692, 0.000990440370514989, -0.0007387296645902097, 1.0007145404815674, 0.35662004351615906, -0.8322544693946838, 0.015641773119568825, 0.0, 0.0, 0.0, 0, 0, 0, 0, 0, 0, 0.35775670409202576, -0.8343955278396606, 0.015709489583969116
11174, 0.007168026175349951, -0.1372920274734497, 0.10687907785177231, 0.0403410904109478, 0.23283050954341888, -0.2335088700056076, 0.0008019027300179005, -0.001251761568710208, 0.9995509386062622, 0.35775670409202576, -0.8343955278396606, 0.015709489583969116, 0.0, 0.0, 0.0, 0, 0, 0, 0, 0, 0, 0.3588968813419342, -0.8365374207496643, 0.01577710174024105
11184, 0.006991122383624315, -0.138320654630661, 0.10745752602815628, 0.06400648504495621, 0.12039509415626526, 0.10414476692676544, -0.001393539598211646, -0.003324974561110139, 0.9999643564224243, 0.3588968813419342, -0.8365374207496643, 0.01577710174024105, 0.0, 0.0, 0.0, 0, 0, 0, 0, 0, 0, 0.36003994941711426, -0.8386812806129456, 0.01584448106586933
11194, 0.006189920473843813, -0.13870903849601746, 0.10862145572900772, -0.11663540452718735, 0.15128770470619202, 0.19747145473957062, 0.0009614363661967218, -0.0028106095269322395, 0.9993715882301331, 0.36003994941711426, -0.8386812806129456, 0.01584448106586933, 0.0, 0.0, 0.0, 0, 0, 0, 0, 0, 0, 0.36118507385253906, -0.8408280611038208, 0.015911618247628212
11204, 0.006087766960263252, -0.13847486674785614, 0.1071881577372551, 0.02206694521009922, -0.1437670737504959, -0.18685853481292725, 0.0004951206501573324, -0.0021520103327929974, 0.9999193549156189, 0.36118507385253906, -0.8408280611038208, 0.015911618247628212, 0.0, 0.0, 0.0, 0, 0, 0, 0, 0, 0, 0.3623327612876892, -0.8429775834083557, 0.015978394076228142
11214, 0.005919551942497492, -0.13737653195858002, 0.10663055628538132, -0.023041700944304466, 0.01936228759586811, 0.018700052052736282, -0.0007143705151975155, -0.002920607104897499, 1.0007431507110596, 0.3623327612876892, -0.8429775834083557, 0.015978394076228142, 0.0, 0.0, 0.0, 0, 0, 0, 0, 0, 0, 0.36348289251327515, -0.8451296091079712, 0.016045058146119118
11224, 0.005311122164130211, -0.13771317899227142, 0.1066431999206543, -7.099472713889554e-05, 0.02321263961493969, -0.09935390204191208, -0.0004963630926795304, -0.00432976521551609, 0.9985141754150391, 0.36348289251327515, -0.8451296091079712, 0.016045058146119118, 0.0, 0.0, 0.0, 0, 0, 0, 0, 0, 0, 0.36463481187820435, -0.847284734249115, 0.01611163839697838
11234, 0.005358744878321886, -0.13715292513370514, 0.10672956705093384, -0.09282920509576797, -0.01507581677287817, -0.030840232968330383, 0.0005795859033241868, -0.002172172535210848, 1.0010921955108643, 0.36463481187820435, -0.847284734249115, 0.01611163839697838, 0.0, 0.0, 0.0, 0, 0, 0, 0, 0, 0, 0.3657889664173126, -0.849443793296814, 0.016177868470549583
11244, 0.00615393090993166, -0.13678418099880219, 0.10926086455583572, 0.2119433581829071, -0.08009427040815353, 0.37259823083877563, -0.0013361675664782524, -0.004374180920422077, 1.0017510652542114, 0.3657889664173126, -0.849443793296814, 0.016177868470549583, 0.0, 0.0, 0.0, 0, 0, 0, 0, 0, 0, 0.36694568395614624, -0.8516058921813965, 0.016245098784565926
11254, 0.006774955429136753, -0.1379973590373993, 0.10915292054414749, 0.04917895048856735, 0.13633854687213898, 0.10427410900592804, -0.0011194800026714802, -0.003632717300206423, 0.9991477131843567, 0.36694568395614624, -0.8516058921813965, 0.016245098784565926, 0.0, 0.0, 0.0, 0, 0, 0, 0, 0, 0, 0.3681039810180664, -0.8537712097167969, 0.01631343364715576
11264, 0.007695803418755531, -0.13705983757972717, 0.10903939604759216, 0.14507968723773956, 0.037157092243433, -0.010396284982562065, 0.0024175129365175962, -0.0032844559755176306, 1.0002520084381104, 0.3681039810180664, -0.8537712097167969, 0.01631343364715576, 0.0, 0.0, 0.0, 0, 0, 0, 0, 0, 0, 0.36926406621932983, -0.8559401631355286, 0.016381504014134407
11274, 0.0075102318078279495, -0.1371014416217804, 0.10811503231525421, 0.1176072284579277, -0.05756593123078346, -0.10293225944042206, 0.0008979858830571175, -0.0037702531553804874, 1.0000708103179932, 0.36926406621932983, -0.8559401631355286, 0.016381504014134407, 0.0, 0.0, 0.0, 0, 0, 0, 0, 0, 0, 0.37042784690856934, -0.8581123352050781, 0.016449445858597755
11284, 0.007772502023726702, -0.13660119473934174, 0.1094791516661644, -0.07395223528146744, -0.1343001276254654, 0.015029902569949627, -0.00019951579452026635, -0.0021246548276394606, 1.0002825260162354, 0.37042784690856934, -0.8581123352050781, 0.016449445858597755, 0.0, 0.0, 0.0, 0, 0, 0, 0, 0, 0, 0.3715949058532715, -0.8602877855300903, 0.016517605632543564
11294, 0.007967093028128147, -0.13727988302707672, 0.10964831709861755, -0.06842449307441711, 0.1233024001121521, 0.0788460299372673, -3.4135623536712956e-06, -0.0032899477519094944, 1.001124382019043, 0.3715949058532715, -0.8602877855300903, 0.016517605632543564, 0.0, 0.0, 0.0, 0, 0, 0, 0, 0, 0, 0.37276411056518555, -0.8624662160873413, 0.01658601313829422
11304, 0.007681289222091436, -0.13679082691669464, 0.11061394214630127, -0.10043001919984818, -0.014906634576618671, 0.06698139756917953, 0.0007122159586288035, -0.003321888390928507, 1.001081943511963, 0.37276411056518555, -0.8624662160873413, 0.01658601313829422, 0.0, 0.0, 0.0, 0, 0, 0, 0, 0, 0, 0.3739358186721802, -0.8646478652954102, 0.01665535569190979
11314, 0.007123516872525215, -0.1382736712694168, 0.11023476719856262, 0.03871461749076843, -0.0591210275888443, 0.1078464612364769, 0.0009237563353963196, -0.003262855811044574, 0.9977322220802307, 0.3739358186721802, -0.8646478652954102, 0.01665535569190979, 0.0, 0.0, 0.0, 0, 0, 0, 0, 0, 0, 0.3751107454299927, -0.8668330907821655, 0.01672489196062088
11324, 0.006783110089600086, -0.13846589624881744, 0.10987270623445511, -0.09997477382421494, 0.21615347266197205, 0.03802129626274109, 0.0013579875230789185, -0.004242346156388521, 1.000632643699646, 0.3751107454299927, -0.8668330907821655, 0.01672489196062088, 0.0, 0.0, 0.0, 0, 0, 0, 0, 0, 0, 0.376289039850235, -0.8690218329429626, 0.016793400049209595
11334, 0.00588343758136034, -0.13844706118106842, 0.11135707050561905, -0.008084177039563656, -0.05332242697477341, 0.035999033600091934, 0.0007630670443177223, -0.004330702591687441, 1.000733494758606, 0.376289039850235, -0.8690218329429626, 0.016793400049209595, 0.0, 0.0, 0.0, 0, 0, 0, 0, 0, 0, 0.3774706721305847, -0.8712144494056702, 0.0168621763586998
11344, 0.0070059518329799175, -0.1401234120130539, 0.11058491468429565, -0.048272792249917984, 0.09671641886234283, -0.04647022485733032, 0.0010085544781759381, -0.0038385188672691584, 0.9995794892311096, 0.3774706721305847, -0.8712144494056702, 0.0168621763586998, 0.0, 0.0, 0.0, 0, 0, 0, 0, 0, 0, 0.3786555528640747, -0.8734112977981567, 0.016931546851992607
11354, 0.006194757763296366, -0.13767236471176147, 0.1096639335155487, -0.05049635097384453, -0.4396427571773529, -0.012125074863433838, -0.0004512699379120022, -0.003426586976274848, 1.001019835472107, 0.3786555528640747, -0.8734112977981567, 0.016931546851992607, 0.0, 0.0, 0.0, 0, 0, 0, 0, 0, 0, 0.3798432946205139, -0.8756121397018433, 0.017001353204250336
11364, 0.006493050139397383, -0.1376943439245224, 0.11057014763355255, 0.06534772366285324, -0.12494424730539322, 0.26609936356544495, -0.001075400155968964, -0.0022150781005620956, 1.0016000270843506, 0.3798432946205139, -0.8756121397018433, 0.017001353204250336, 0.0, 0.0, 0.0, 0, 0, 0, 0, 0, 0, 0.38103315234184265, -0.8778162598609924, 0.017072267830371857
11374, 0.00662757596001029, -0.13904280960559845, 0.11130846291780472, -0.01248440332710743, 0.14969271421432495, 0.018659263849258423, -6.330843461910263e-05, -0.0026851205620914698, 0.9989147782325745, 0.38103315234184265, -0.8778162598609924, 0.017072267830371857, 0.0, 0.0, 0.0, 0, 0, 0, 0, 0, 0, 0.38222479820251465, -0.8800227642059326, 0.017143914476037025
11384, 0.006441587116569281, -0.13985082507133484, 0.11114678531885147, -0.10371729731559753, -0.017249509692192078, 0.05730780214071274, 0.0019171863095834851, -0.004797052126377821, 1.0015360116958618, 0.38222479820251465, -0.8800227642059326, 0.017143914476037025, 0.0, 0.0, 0.0, 0, 0, 0, 0, 0, 0, 0.38341906666755676, -0.8822324275970459, 0.01721571385860443
11394, 0.00738464156165719, -0.1392417550086975, 0.11092928797006607, 0.06738594174385071, -0.2193116843700409, 0.03865404799580574, 0.0031705875881016254, -0.0016012596897780895, 1.0007315874099731, 0.38341906666755676, -0.8822324275970459, 0.01721571385860443, 0.0, 0.0, 0.0, 0, 0, 0, 0, 0, 0, 0.3846176862716675, -0.8844454884529114, 0.017288165166974068
11404, 0.006639583967626095, -0.13804158568382263, 0.11116255819797516, 0.057044677436351776, -0.20244497060775757, 0.09416588395833969, 0.0012253952445462346, -0.0033620367757976055, 0.998270571231842, 0.3846176862716675, -0.8844454884529114, 0.017288165166974068, 0.0, 0.0, 0.0, 0, 0, 0, 0, 0, 0, 0.385821133852005, -0.8866614699363708, 0.01736101321876049
11414, 0.006539308466017246, -0.1395384967327118, 0.10947249829769135, -0.0920407846570015, 0.3385341465473175, -0.21403534710407257, -0.0002265370130771771, -0.004677084274590015, 0.9976136684417725, 0.385821133852005, -0.8866614699363708, 0.01736101321876049, 0.0, 0.0, 0.0, 0, 0, 0, 0, 0, 0, 0.3870279788970947, -0.888880729675293, 0.01743253320455551
11424, 0.007738790009170771, -0.13939788937568665, 0.1097351536154747, 0.1645308881998062, -0.34629693627357483, -0.051590193063020706, 0.0006037873099558055, -0.003713789628818631, 0.9990519285202026, 0.3870279788970947, -0.888880729675293, 0.01743253320455551, 0.0, 0.0, 0.0, 0, 0, 0, 0, 0, 0, 0.38823774456977844, -0.8911041617393494, 0.017502211034297943
11434, 0.008563248440623283, -0.13849589228630066, 0.11029480397701263, 0.15646930038928986, 0.08998885005712509, 0.0795791819691658, 0.001473430311307311, -0.002428298583254218, 0.9986329674720764, 0.38823774456977844, -0.8911041617393494, 0.017502211034297943, 0.0, 0.0, 0.0, 0, 0, 0, 0, 0, 0, 0.3894508183002472, -0.8933313488960266, 0.01757068559527397
11444, 0.008202933706343174, -0.13876916468143463, 0.11088231205940247, 0.09671986848115921, 0.010772310197353363, -0.0642036497592926, 0.00041108173900283873, -0.0013868740061298013, 1.0002752542495728, 0.3894508183002472, -0.8933313488960266, 0.01757068559527397, 0.0, 0.0, 0.0, 0, 0, 0, 0, 0, 0, 0.39066722989082336, -0.8955608606338501, 0.017638415098190308
11454, 0.009124976582825184, -0.13755598664283752, 0.11212123185396194, 0.04385112226009369, 0.005510877352207899, 0.2630619406700134, -0.00044719819561578333, -0.0027154802810400724, 1.0000087022781372, 0.39066722989082336, -0.8955608606338501, 0.017638415098190308, 0.0, 0.0, 0.0, 0, 0, 0, 0, 0, 0, 0.39188623428344727, -0.8977922797203064, 0.017705785110592842
11464, 0.009427141398191452, -0.13658437132835388, 0.11227481812238693, -0.039152584969997406, -0.07154581695795059, -0.14333504438400269, 0.0016049585537984967, -0.00034485087962821126, 1.0011738538742065, 0.39188623428344727, -0.8977922797203064, 0.017705785110592842, 0.0, 0.0, 0.0, 0, 0, 0, 0, 0, 0, 0.39310792088508606, -0.9000257253646851, 0.017773492261767387
11474, 0.00986301526427269, -0.13798722624778748, 0.1123206689953804, 0.2112836092710495, 0.3540632426738739, 0.013891219161450863, 0.00015622108185198158, -0.002963169477880001, 0.9987264275550842, 0.39310792088508606, -0.9000257253646851, 0.017773492261767387, 0.0, 0.0, 0.0, 0, 0, 0, 0, 0, 0, 0.3943327069282532, -0.9022608995437622, 0.017841288819909096
11484, 0.009952826425433159, -0.13660630583763123, 0.11226581037044525, 0.054045699536800385, 0.0004852195270359516, -0.07096731662750244, 0.00165404356084764, -0.003796662436798215, 1.0004329681396484, 0.3943327069282532, -0.9022608995437622, 0.017841288819909096, 0.0, 0.0, 0.0, 0, 0, 0, 0, 0, 0, 0.3955606520175934, -0.9044986367225647, 0.017908738926053047
11494, 0.008940698578953743, -0.13774988055229187, 0.11162691563367844, 0.03957350552082062, -0.059208910912275314, -0.058733727782964706, -0.002130085602402687, -0.0033219994511455297, 0.9983816146850586, 0.3955606520175934, -0.9044986367225647, 0.017908738926053047, 0.0, 0.0, 0.0, 0, 0, 0, 0, 0, 0, 0.3967912495136261, -0.906740128993988, 0.017975861206650734
11504, 0.009157405234873295, -0.13746050000190735, 0.11222434788942337, 0.0850215032696724, -0.023612109944224358, 0.09361034631729126, -0.0009223798988386989, -0.0007204149151220918, 0.9996398687362671, 0.3967912495136261, -0.906740128993988, 0.017975861206650734, 0.0, 0.0, 0.0, 0, 0, 0, 0, 0, 0, 0.39802324771881104, -0.9089844822883606, 0.01804223470389843
11514, 0.008669629693031311, -0.13705676794052124, 0.11307358741760254, -0.0623781755566597, -0.032437898218631744, 0.12574049830436707, -0.00014220741286408156, -0.0004500727809499949, 0.99978107213974, 0.39802324771881104, -0.9089844822883606, 0.01804223470389843, 0.0, 0.0, 0.0, 0, 0, 0, 0, 0, 0, 0.39925646781921387, -0.9112300276756287, 0.018107930198311806
11524, 0.008053638972342014, -0.13829895853996277, 0.11280199885368347, 0.15257523953914642, 0.07945709675550461, -0.033292658627033234, 0.0013647605665028095, -0.001973312348127365, 1.0007492303848267, 0.39925646781921387, -0.9112300276756287, 0.018107930198311806, 0.0, 0.0, 0.0, 0, 0, 0, 0, 0, 0, 0.4004921019077301, -0.9134767055511475, 0.018173521384596825
11534, 0.00818189699202776, -0.1390373259782791, 0.11260385066270828, 0.05410592257976532, -0.035491883754730225, -0.10571442544460297, 0.0013136209454387426, -0.0015577898593619466, 1.0018473863601685, 0.4004921019077301, -0.9134767055511475, 0.018173521384596825, 0.0, 0.0, 0.0, 0, 0, 0, 0, 0, 0, 0.4017312526702881, -0.9157254099845886, 0.018240027129650116
11544, 0.007841113023459911, -0.14018204808235168, 0.11212565004825592, -0.05271591246128082, 0.3448735773563385, 0.02959022857248783, 0.00017994019435718656, -0.003322817385196686, 1.0025370121002197, 0.4017312526702881, -0.9157254099845886, 0.018240027129650116, 0.0, 0.0, 0.0, 0, 0, 0, 0, 0, 0, 0.40297383069992065, -0.9179764986038208, 0.01830824464559555
11554, 0.007461241912096739, -0.14049628376960754, 0.11221281439065933, 0.0010485748061910272, 0.016505921259522438, 0.013111026957631111, 0.0013043205253779888, -0.0022687811870127916, 1.0013909339904785, 0.40297383069992065, -0.9179764986038208, 0.01830824464559555, 0.0, 0.0, 0.0, 0, 0, 0, 0, 0, 0, 0.40421944856643677, -0.920229971408844, 0.01837833598256111
11564, 0.007980025373399258, -0.14120611548423767, 0.11394570767879486, 0.09306853264570236, -0.18455684185028076, 0.27903029322624207, 0.0010704901069402695, -0.0035467809066176414, 0.999857485294342, 0.40421944856643677, -0.920229971408844, 0.01837833598256111, 0.0, 0.0, 0.0, 0, 0, 0, 0, 0, 0, 0.40546828508377075, -0.9224860668182373, 0.018449552357196808
11574, 0.00799785926938057, -0.13828450441360474, 0.11278997361660004, 0.10949195176362991, -0.19961431622505188, 0.011155451647937298, 0.0016755065880715847, -0.0035280229058116674, 0.9990158677101135, 0.40546828508377075, -0.9224860668182373, 0.018449552357196808, 0.0, 0.0, 0.0, 0, 0, 0, 0, 0, 0, 0.4067208170890808, -0.9247452020645142, 0.018520720303058624
11584, 0.008511887863278389, -0.1386253982782364, 0.11270059645175934, 0.016936006024479866, 0.12397180497646332, -0.1461847871541977, 0.0015291234012693167, -0.003534774063155055, 1.0008069276809692, 0.4067208170890808, -0.9247452020645142, 0.018520720303058624, 0.0, 0.0, 0.0, 0, 0, 0, 0, 0, 0, 0.4079773426055908, -0.9270080327987671, 0.018591664731502533
11594, 0.008960768580436707, -0.13863810896873474, 0.11176174879074097, 0.0015551348915323615, 0.08198404312133789, -0.13564041256904602, 0.0015655235620215535, -0.0020461142994463444, 1.0007017850875854, 0.4079773426055908, -0.9270080327987671, 0.018591664731502533, 0.0, 0.0, 0.0, 0, 0, 0, 0, 0, 0, 0.40923792123794556, -0.9292740821838379, 0.018662970513105392
11604, 0.009695938788354397, -0.1379331350326538, 0.11195411533117294, 0.15901152789592743, 0.012663827277719975, 0.15024252235889435, -0.0008302396745420992, -0.0027546638157218695, 1.0009937286376953, 0.40923792123794556, -0.9292740821838379, 0.018662970513105392, 0.0, 0.0, 0.0, 0, 0, 0, 0, 0, 0, 0.4105018079280853, -0.9315425157546997, 0.01873486116528511
11614, 0.009592915885150433, -0.13720466196537018, 0.11300493776798248, -0.02886820398271084, 0.2508576810359955, 0.06196892261505127, -0.00221501593478024, -0.0026148888282477856, 1.000653624534607, 0.4105018079280853, -0.9315425157546997, 0.01873486116528511, 0.0, 0.0, 0.0, 0, 0, 0, 0, 0, 0, 0.4117671251296997, -0.9338138103485107, 0.01880728453397751
11624, 0.009039548225700855, -0.13611485064029694, 0.11262866854667664, -0.09162317216396332, -0.09248723834753036, -0.10976868867874146, -0.0013430006802082062, -0.0010252173524349928, 1.0007848739624023, 0.4117671251296997, -0.9338138103485107, 0.01880728453397751, 0.0, 0.0, 0.0, 0, 0, 0, 0, 0, 0, 0.4130330979824066, -0.9360876083374023, 0.01888052374124527
11634, 0.008498559705913067, -0.1366594135761261, 0.11286485195159912, -0.24796822667121887, 0.4050045311450958, -0.07396631687879562, -0.0004097732889931649, -0.0035858331248164177, 1.0008076429367065, 0.4130330979824066, -0.9360876083374023, 0.01888052374124527, 0.0, 0.0, 0.0, 0, 0, 0, 0, 0, 0, 0.4143006503582001, -0.938363254070282, 0.018954791128635406
11644, 0.008781337179243565, -0.13663634657859802, 0.11059310287237167, 0.07921147346496582, 0.14871393144130707, -0.3602220416069031, -0.0015726457349956036, -0.004969847854226828, 0.9990382790565491, 0.4143006503582001, -0.938363254070282, 0.018954791128635406, 0.0, 0.0, 0.0, 0, 0, 0, 0, 0, 0, 0.41556990146636963, -0.9406421780586243, 0.019029559567570686
11654, 0.00879878643900156, -0.1380772888660431, 0.11149664968252182, -0.02205493114888668, 0.04364532232284546, -0.039441611617803574, -0.0006833848310634494, -0.00225242436863482, 1.0007699728012085, 0.41556990146636963, -0.9406421780586243, 0.019029559567570686, 0.0, 0.0, 0.0, 0, 0, 0, 0, 0, 0, 0.4168403744697571, -0.9429251551628113, 0.019103871658444405
11664, 0.008227323181927204, -0.13744951784610748, 0.10879389196634293, -0.19188286364078522, -0.12075451761484146, -0.19526566565036774, 0.00014069813187234104, -0.0018766248831525445, 1.0009492635726929, 0.4168403744697571, -0.9429251551628113, 0.019103871658444405, 0.0, 0.0, 0.0, 0, 0, 0, 0, 0, 0, 0.4181124269962311, -0.9452111721038818, 0.01917843706905842
11674, 0.007876014336943626, -0.1366807222366333, 0.10893473774194717, 0.01931072771549225, 0.02057645469903946, -0.028064390644431114, 0.0012906425399705768, 0.00017591383948456496, 0.9997051954269409, 0.4181124269962311, -0.9452111721038818, 0.01917843706905842, 0.0, 0.0, 0.0, 0, 0, 0, 0, 0, 0, 0.4193868935108185, -0.9474989175796509, 0.01925375871360302
11684, 0.007963348180055618, -0.13627402484416962, 0.1081203892827034, -0.11854801326990128, 0.07774944603443146, -0.3364036977291107, -0.0005982408183626831, -0.0021670092828571796, 0.9977291226387024, 0.42066410183906555, -0.9497876763343811, 0.019328733906149864, 0.0, 0.0, 0.0, 0, 0, 0, 0, 0, 0, 0.42066410183906555, -0.9497876763343811, 0.019328733906149864
11694, 0.007562396582216024, -0.13339446485042572, 0.10663390904664993, -0.11398723721504211, -0.2870188355445862, -0.09068143367767334, -2.6402369257993996e-05, -0.002744280034676194, 0.9988467693328857, 0.4219438433647156, -0.9520782828330994, 0.019402069970965385, 0.0, 0.0, 0.0, 0, 0, 0, 0, 0, 0, 0.4219438433647156, -0.9520782828330994, 0.019402069970965385
11704, 0.00764696579426527, -0.1333664357662201, 0.10767717659473419, -0.03714928776025772, 0.26174429059028625, 0.21726514399051666, -0.0006973775452934206, -0.0012892259983345866, 0.9988290071487427, 0.42322567105293274, -0.9543712735176086, 0.01947391778230667, 0.0, 0.0, 0.0, 0, 0, 0, 0, 0, 0, 0.42322567105293274, -0.9543712735176086, 0.01947391778230667
11714, 0.0073480140417814255, -0.13405069708824158, 0.1081843227148056, -0.14422041177749634, 0.11082296818494797, -0.07329805195331573, -0.0003358402173034847, -0.002494685584679246, 0.9985964298248291, 0.42450928688049316, -0.9566665291786194, 0.01954466663300991, 0.0, 0.0, 0.0, 0, 0, 0, 0, 0, 0, 0.42450928688049316, -0.9566665291786194, 0.01954466663300991
11724, 0.006832112558186054, -0.1351713240146637, 0.107264444231987, 0.032314687967300415, 0.02989722415804863, 0.06667625904083252, -0.0007951371953822672, -0.0018358964007347822, 0.9996671676635742, 0.4257945418357849, -0.9589639902114868, 0.01961403153836727, 0.0, 0.0, 0.0, 0, 0, 0, 0, 0, 0, 0.4257945418357849, -0.9589639902114868, 0.01961403153836727
11734, 0.006500394083559513, -0.13453863561153412, 0.10735440254211426, -0.09373757988214493, 0.27235180139541626, 0.016401929780840874, -0.0002878359518945217, -0.0019423720659688115, 0.9998613595962524, 0.4257945418357849, -0.9589639902114868, 0.01961403153836727, 0.0, 0.0, 0.0, 0, 0, 0, 0, 0, 0, 0.4272101819515228, -0.9614937901496887, 0.019689740613102913
11744, 0.006867676042020321, -0.13595566153526306, 0.10738176107406616, 0.011269514448940754, -0.05553800240159035, 0.007679574191570282, 0.0012761343969032168, -0.0019780946895480156, 0.9996841549873352, 0.4272101819515228, -0.9614937901496887, 0.019689740613102913, 0.0, 0.0, 0.0, 0, 0, 0, 0, 0, 0, 0.42849934101104736, -0.9637958407402039, 0.019758155569434166
11754, 0.007150240708142519, -0.13481806218624115, 0.10727426409721375, 0.09069672971963882, 0.03127865493297577, 0.18480755388736725, 0.001975713763386011, -0.0019697071984410286, 1.0003535747528076, 0.42849934101104736, -0.9637958407402039, 0.019758155569434166, 0.0, 0.0, 0.0, 0, 0, 0, 0, 0, 0, 0.42979171872138977, -0.9660997986793518, 0.019826186820864677
11764, 0.00717286067083478, -0.13488875329494476, 0.10733871161937714, 0.07548350840806961, 0.015316188335418701, -0.019645512104034424, -0.00023271368991117924, -0.0018758629448711872, 1.002124309539795, 0.42979171872138977, -0.9660997986793518, 0.019826186820864677, 0.0, 0.0, 0.0, 0, 0, 0, 0, 0, 0, 0.4310876429080963, -0.9684056043624878, 0.019894883036613464
11774, 0.00726246926933527, -0.13311050832271576, 0.10658255219459534, 0.016797909513115883, -0.30478620529174805, -0.15952946245670319, -0.0006408574990928173, -0.0017235223203897476, 1.0017650127410889, 0.4310876429080963, -0.9684056043624878, 0.019894883036613464, 0.0, 0.0, 0.0, 0, 0, 0, 0, 0, 0, 0.4323859214782715, -0.9707133769989014, 0.01996516063809395
11784, 0.007462456356734037, -0.13611218333244324, 0.10733228176832199, -0.029941096901893616, 0.3666723966598511, 0.07894908636808395, 0.0009905063780024648, -0.0006264456314966083, 1.0002371072769165, 0.4323859214782715, -0.9707133769989014, 0.01996516063809395, 0.0, 0.0, 0.0, 0, 0, 0, 0, 0, 0, 0.4336864650249481, -0.9730227589607239, 0.020036794245243073
11794, 0.007116468157619238, -0.13759922981262207, 0.10738713294267654, -0.09795980900526047, 0.3034648001194, 0.04560202360153198, -0.00128746940754354, -0.005458205007016659, 1.0002740621566772, 0.4336864650249481, -0.9730227589607239, 0.020036794245243073, 0.0, 0.0, 0.0, 0, 0, 0, 0, 0, 0, 0.4349895715713501, -0.9753344058990479, 0.02010868489742279
11804, 0.007317046634852886, -0.13576294481754303, 0.10712127387523651, 0.06836629658937454, -0.2407611459493637, -0.08663968741893768, 4.953687039233046e-06, -0.00284969643689692, 1.00017249584198, 0.4349895715713501, -0.9753344058990479, 0.02010868489742279, 0.0, 0.0, 0.0, 0, 0, 0, 0, 0, 0, 0.4362945854663849, -0.9776500463485718, 0.02018083818256855
11814, 0.007408557925373316, -0.13567793369293213, 0.10611695051193237, -0.04035232588648796, -0.4089345335960388, 0.050759874284267426, 0.0020650119986385107, -0.002463527489453554, 0.9974647164344788, 0.4362945854663849, -0.9776500463485718, 0.02018083818256855, 0.0, 0.0, 0.0, 0, 0, 0, 0, 0, 0, 0.4376022517681122, -0.9799692034721375, 0.020252589136362076
11824, 0.006981659214943647, -0.133995920419693, 0.10501885414123535, -0.016766643151640892, -0.28930118680000305, -0.023655589669942856, 0.0009190288255922496, -0.0036315210163593292, 0.9983320832252502, 0.4376022517681122, -0.9799692034721375, 0.020252589136362076, 0.0, 0.0, 0.0, 0, 0, 0, 0, 0, 0, 0.43891337513923645, -0.982291042804718, 0.020322566851973534
11834, 0.007584184408187866, -0.135117769241333, 0.1058034598827362, 0.14310519397258759, 0.059733521193265915, -0.02187342941761017, 3.446813570917584e-05, -0.003330674720928073, 1.0003912448883057, 0.43891337513923645, -0.982291042804718, 0.020322566851973534, 0.0, 0.0, 0.0, 0, 0, 0, 0, 0, 0, 0.4402274787425995, -0.9846162796020508, 0.020391155034303665
11844, 0.007360722403973341, -0.1344054937362671, 0.10573102533817291, -0.10239578783512115, 0.07648231834173203, 0.1435341238975525, 0.0021766768768429756, -0.004165323916822672, 1.0032520294189453, 0.4402274787425995, -0.9846162796020508, 0.020391155034303665, 0.0, 0.0, 0.0, 0, 0, 0, 0, 0, 0, 0.4415448307991028, -0.9869452714920044, 0.020460398867726326
11854, 0.00658479705452919, -0.13541720807552338, 0.10414127260446548, -0.008334747515618801, 0.37811970710754395, 0.028348902240395546, 0.0011371622094884515, -0.0036876616068184376, 0.999047577381134, 0.4415448307991028, -0.9869452714920044, 0.020460398867726326, 0.0, 0.0, 0.0, 0, 0, 0, 0, 0, 0, 0.4428660571575165, -0.9892781376838684, 0.02053103595972061
11864, 0.006233775522559881, -0.13405205309391022, 0.10419429838657379, -0.16216722130775452, -0.18485550582408905, 0.2930530607700348, 0.0005605727783404291, -0.0012702052481472492, 0.9985888004302979, 0.4428660571575165, -0.9892781376838684, 0.02053103595972061, 0.0, 0.0, 0.0, 0, 0, 0, 0, 0, 0, 0.4441905915737152, -0.9916141629219055, 0.020601216703653336
11874, 0.006167767569422722, -0.1342306137084961, 0.10552062839269638, 0.03843165189027786, -0.05835346505045891, 0.006177336443215609, 0.0016770402435213327, -0.0012935809791088104, 0.999435544013977, 0.4441905915737152, -0.9916141629219055, 0.020601216703653336, 0.0, 0.0, 0.0, 0, 0, 0, 0, 0, 0, 0.44551825523376465, -0.993952214717865, 0.020670462399721146
11884, 0.006107883062213659, -0.1344207227230072, 0.10425908118486404, 0.10227575153112411, -0.1515352874994278, -0.15195618569850922, 0.0009677388006821275, -0.006465883459895849, 0.9984797835350037, 0.44551825523376465, -0.993952214717865, 0.020670462399721146, 0.0, 0.0, 0.0, 0, 0, 0, 0, 0, 0, 0.446849524974823, -0.9962936043739319, 0.02073885314166546
11894, 0.0058600399643182755, -0.13652712106704712, 0.10395608842372894, 0.004054117016494274, 0.19543658196926117, -0.02113998495042324, -0.00028566684341058135, -0.005457053426653147, 1.0000784397125244, 0.446849524974823, -0.9962936043739319, 0.02073885314166546, 0.0, 0.0, 0.0, 0, 0, 0, 0, 0, 0, 0.4481837749481201, -0.9986404180526733, 0.02080622687935829
11904, 0.005560164339840412, -0.1372518390417099, 0.10531020909547806, -0.11180119961500168, 0.1445978581905365, 0.31110551953315735, 0.002687168074771762, -0.0026897911448031664, 0.9993283748626709, 0.4481837749481201, -0.9986404180526733, 0.02080622687935829, 0.0, 0.0, 0.0, 0, 0, 0, 0, 0, 0, 0.44952118396759033, -1.0009920597076416, 0.020873304456472397
11914, 0.006519260350614786, -0.13685868680477142, 0.10531315952539444, 0.15892086923122406, -0.07528214901685715, -0.06440896540880203, 0.0014058566885069013, -0.002768926788121462, 1.0004231929779053, 0.44952118396759033, -1.0009920597076416, 0.020873304456472397, 0.0, 0.0, 0.0, 0, 0, 0, 0, 0, 0, 0.45086270570755005, -1.0033466815948486, 0.020940430462360382
11924, 0.005923791788518429, -0.1370864063501358, 0.1049768403172493, -0.0488349050283432, 0.1613876223564148, 0.04509391635656357, -0.00046207121340557933, -0.0042429156601428986, 1.001495122909546, 0.45086270570755005, -1.0033466815948486, 0.020940430462360382, 0.0, 0.0, 0.0, 0, 0, 0, 0, 0, 0, 0.45220765471458435, -1.0057042837142944, 0.021008165553212166
11934, 0.006267613731324673, -0.1372850090265274, 0.10496808588504791, -0.016866598278284073, -0.0842551440000534, 0.2075815349817276, 2.0395802494022064e-05, -0.0049397265538573265, 0.9988871812820435, 0.45220765471458435, -1.0057042837142944, 0.021008165553212166, 0.0, 0.0, 0.0, 0, 0, 0, 0, 0, 0, 0.45355525612831116, -1.0080660581588745, 0.021076437085866928
11944, 0.0060067749582231045, -0.13856816291809082, 0.10452535003423691, -0.13346454501152039, 0.20467840135097504, -0.10234592854976654, 0.0018711562734097242, -0.0021601838525384665, 0.9999887347221375, 0.45355525612831116, -1.0080660581588745, 0.021076437085866928, 0.0, 0.0, 0.0, 0, 0, 0, 0, 0, 0, 0.45490583777427673, -1.0104315280914307, 0.02114434912800789
11954, 0.005688884295523167, -0.13849467039108276, 0.10583406686782837, -0.06517944484949112, -0.13875612616539001, 0.10556076467037201, 0.0030139819718897343, -0.0010588731383904815, 1.001712679862976, 0.45490583777427673, -1.0104315280914307, 0.02114434912800789, 0.0, 0.0, 0.0, 0, 0, 0, 0, 0, 0, 0.456260621547699, -1.0127993822097778, 0.02121262438595295
11964, 0.006545346695929766, -0.1377655416727066, 0.10609865933656693, 0.11230163276195526, -0.07170350104570389, 0.1106981635093689, 0.001448466326110065, -0.0039884308353066444, 0.9992190599441528, 0.456260621547699, -1.0127993822097778, 0.02121262438595295, 0.0, 0.0, 0.0, 0, 0, 0, 0, 0, 0, 0.45762014389038086, -1.0151692628860474, 0.02128165401518345
11974, 0.0072762672789394855, -0.13716578483581543, 0.10614718496799469, 0.09602780640125275, -0.052326686680316925, 0.0716908648610115, -1.2132176379964221e-05, -0.0039724623784422874, 0.999180257320404, 0.45762014389038086, -1.0151692628860474, 0.02128165401518345, 0.0, 0.0, 0.0, 0, 0, 0, 0, 0, 0, 0.45898309350013733, -1.0175424814224243, 0.021350430324673653
11984, 0.0067405723966658115, -0.1369604468345642, 0.10706976801156998, -0.055551666766405106, 0.06343627721071243, -0.0012763985432684422, 0.0014522771816700697, -0.0040888856165111065, 0.9990280270576477, 0.45898309350013733, -1.0175424814224243, 0.021350430324673653, 0.0, 0.0, 0.0, 0, 0, 0, 0, 0, 0, 0.4603489935398102, -1.019919991493225, 0.021418195217847824
11994, 0.006371706258505583, -0.13799434900283813, 0.10780614614486694, 0.04845704138278961, -0.18272849917411804, 0.10099825263023376, 0.0020302380435168743, -0.002512961393222213, 1.0013459920883179, 0.4603489935398102, -1.019919991493225, 0.021418195217847824, 0.0, 0.0, 0.0, 0, 0, 0, 0, 0, 0, 0.46171846985816956, -1.0223013162612915, 0.02148580364882946
12004, 0.006521899253129959, -0.13889040052890778, 0.10844804346561432, 0.02778766304254532, 0.15601268410682678, 0.1313038468360901, 0.0007288292981684208, -0.0012559808092191815, 0.998877227306366, 0.46171846985816956, -1.0223013162612915, 0.02148580364882946, 0.0, 0.0, 0.0, 0, 0, 0, 0, 0, 0, 0.46309179067611694, -1.0246849060058594, 0.021554024890065193
12014, 0.006133729126304388, -0.1359548717737198, 0.1071818396449089, -0.11080022901296616, -0.2916758954524994, -0.12956586480140686, -0.00020591057545971125, -0.0025234611239284277, 0.9984466433525085, 0.46309179067611694, -1.0246849060058594, 0.021554024890065193, 0.0, 0.0, 0.0, 0, 0, 0, 0, 0, 0, 0.4644682705402374, -1.0270702838897705, 0.021621428430080414
12024, 0.007230982184410095, -0.13574276864528656, 0.10908374190330505, 0.21401730179786682, 0.016695654019713402, 0.40574532747268677, -0.0014433484757319093, -0.0026595296803861856, 1.0002737045288086, 0.4644682705402374, -1.0270702838897705, 0.021621428430080414, 0.0, 0.0, 0.0, 0, 0, 0, 0, 0, 0, 0.46584638953208923, -1.0294580459594727, 0.02168782241642475
12034, 0.006970312912017107, -0.13435710966587067, 0.10925975441932678, 0.10069471597671509, 0.011244622990489006, -0.07690577208995819, 0.000494401145260781, -0.0016018747119233012, 0.9980196952819824, 0.46584638953208923, -1.0294580459594727, 0.02168782241642475, 0.0, 0.0, 0.0, 0, 0, 0, 0, 0, 0, 0.46722611784935, -1.031848430633545, 0.02175368368625641
12044, 0.008172242902219296, -0.13393037021160126, 0.10812146216630936, 0.07137474417686462, -0.007336030248552561, -0.18730825185775757, -0.002236850094050169, -0.0012456964468583465, 0.9977144598960876, 0.46722611784935, -1.031848430633545, 0.02175368368625641, 0.0, 0.0, 0.0, 0, 0, 0, 0, 0, 0, 0.468607634305954, -1.0342408418655396, 0.02181798405945301
12054, 0.008997960016131401, -0.1345270425081253, 0.11007792502641678, 0.017075976356863976, 0.032783202826976776, 0.189543217420578, -0.0005797350313514471, -0.0021332427859306335, 1.0002120733261108, 0.468607634305954, -1.0342408418655396, 0.02181798405945301, 0.0, 0.0, 0.0, 0, 0, 0, 0, 0, 0, 0.4699901342391968, -1.0366350412368774, 0.0218808613717556
12064, 0.00846761092543602, -0.1335030198097229, 0.10840804129838943, -0.20894360542297363, -0.1823950856924057, -0.0660177618265152, -0.0008861339301802218, -0.0008008001605048776, 1.0015889406204224, 0.4699901342391968, -1.0366350412368774, 0.0218808613717556, 0.0, 0.0, 0.0, 0, 0, 0, 0, 0, 0, 0.4713740646839142, -1.0390311479568481, 0.021944183856248856
12074, 0.00907209049910307, -0.13186943531036377, 0.10926807671785355, 0.22597971558570862, 0.027892930433154106, 0.05175956338644028, -0.0008254535496234894, -0.002001906046643853, 1.00034499168396, 0.4713740646839142, -1.0390311479568481, 0.021944183856248856, 0.0, 0.0, 0.0, 0, 0, 0, 0, 0, 0, 0.4727596342563629, -1.0414289236068726, 0.022008659318089485
12084, 0.00833619013428688, -0.13068492710590363, 0.1092064380645752, 0.0882091149687767, -0.13156186044216156, -0.13078217208385468, -0.0010833287378773093, -0.00042996666161343455, 1.001252293586731, 0.4727596342563629, -1.0414289236068726, 0.022008659318089485, 0.0, 0.0, 0.0, 0, 0, 0, 0, 0, 0, 0.4741465151309967, -1.0438278913497925, 0.022074146196246147
12094, 0.008658106438815594, -0.12997370958328247, 0.10782690346240997, 0.01722886599600315, -0.17874082922935486, -0.09487523138523102, -4.518298010225408e-05, -0.0005331581342034042, 1.0000945329666138, 0.4741465151309967, -1.0438278913497925, 0.022074146196246147, 0.0, 0.0, 0.0, 0, 0, 0, 0, 0, 0, 0.4755348265171051, -1.0462276935577393, 0.022140540182590485
12104, 0.00936728436499834, -0.12764503061771393, 0.1086169183254242, -0.056527335196733475, -0.20845581591129303, 0.05326980724930763, 0.0014044443378224969, -0.0012415864039212465, 0.9983053207397461, 0.4755348265171051, -1.0462276935577393, 0.022140540182590485, 0.0, 0.0, 0.0, 0, 0, 0, 0, 0, 0, 0.4769255220890045, -1.0486284494400024, 0.02220665104687214
12114, 0.009387748315930367, -0.12730476260185242, 0.10761503875255585, -0.0497160330414772, -0.047175083309412, -0.1426604837179184, 0.0015561934560537338, -0.0019195412751287222, 0.999164342880249, 0.4769255220890045, -1.0486284494400024, 0.02220665104687214, 0.0, 0.0, 0.0, 0, 0, 0, 0, 0, 0, 0.47831955552101135, -1.0510306358337402, 0.02227143384516239
12124, 0.00913569051772356, -0.12583351135253906, 0.10687306523323059, -0.1165633350610733, -0.1683766096830368, -0.2245028018951416, 0.0023289467208087444, -0.004245304968208075, 1.0006113052368164, 0.47831955552101135, -1.0510306358337402, 0.02227143384516239, 0.0, 0.0, 0.0, 0, 0, 0, 0, 0, 0, 0.4797174632549286, -1.0534353256225586, 0.022335520014166832
12134, 0.010137357749044895, -0.12382043898105621, 0.10720932483673096, 0.08608704805374146, -0.23287944495677948, -0.03345012292265892, -0.00023406586842611432, -0.003680810797959566, 1.001338005065918, 0.4797174632549286, -1.0534353256225586, 0.022335520014166832, 0.0, 0.0, 0.0, 0, 0, 0, 0, 0, 0, 0.48111918568611145, -1.0558441877365112, 0.02240024507045746
12144, 0.00926163513213396, -0.12304376810789108, 0.10561590641736984, -0.07878749072551727, 0.07171504199504852, -0.2058393955230713, 0.0004948655259795487, -0.0030105903279036283, 1.0007431507110596, 0.48111918568611145, -1.0558441877365112, 0.02240024507045746, 0.0, 0.0, 0.0, 0, 0, 0, 0, 0, 0, 0.48252353072166443, -1.0582571029663086, 0.02246587909758091
12154, 0.009294254705309868, -0.12207494676113129, 0.10669317841529846, 0.16553130745887756, -0.31190225481987, 0.0698046088218689, -0.00014052189362701029, -0.001336321234703064, 1.0015119314193726, 0.48252353072166443, -1.0582571029663086, 0.02246587909758091, 0.0, 0.0, 0.0, 0, 0, 0, 0, 0, 0, 0.48393017053604126, -1.0606727600097656, 0.022532330825924873
12164, 0.010169778019189835, -0.12162317335605621, 0.1067970022559166, 0.04531576484441757, 0.13363267481327057, -0.02490714192390442, -0.00045191741082817316, -0.001549656386487186, 1.0014740228652954, 0.48393017053604126, -1.0606727600097656, 0.022532330825924873, 0.0, 0.0, 0.0, 0, 0, 0, 0, 0, 0, 0.48533886671066284, -1.063090205192566, 0.022599929943680763
12174, 0.008691963739693165, -0.12349492311477661, 0.10604128986597061, -0.20734746754169464, 0.29142141342163086, 0.008167479187250137, 0.000820118875708431, -0.0010241917334496975, 0.9993684887886047, 0.48533886671066284, -1.063090205192566, 0.022599929943680763, 0.0, 0.0, 0.0, 0, 0, 0, 0, 0, 0, 0.48674964904785156, -1.0655089616775513, 0.022668171674013138
12184, 0.008958003483712673, -0.12280682474374771, 0.10646822303533554, 0.014260624535381794, -0.08676229417324066, 0.12488731741905212, -0.00123148737475276, -0.002493980573490262, 1.0013620853424072, 0.48674964904785156, -1.0655089616775513, 0.022668171674013138, 0.0, 0.0, 0.0, 0, 0, 0, 0, 0, 0, 0.4881625473499298, -1.0679292678833008, 0.02273659221827984
12194, 0.008433813229203224, -0.1215038001537323, 0.10751491785049438, -0.10362383723258972, -0.07837419956922531, -0.09834599494934082, -0.00024140390451066196, -0.0018539961893111467, 0.999935507774353, 0.4881625473499298, -1.0679292678833008, 0.02273659221827984, 0.0, 0.0, 0.0, 0, 0, 0, 0, 0, 0, 0.4895767569541931, -1.0703517198562622, 0.022805355489253998
12204, 0.008528780192136765, -0.12216708064079285, 0.10759124159812927, 0.056837886571884155, 0.09231783449649811, -0.08093564212322235, 0.001606201403774321, -0.004252229817211628, 1.0004656314849854, 0.4895767569541931, -1.0703517198562622, 0.022805355489253998, 0.0, 0.0, 0.0, 0, 0, 0, 0, 0, 0, 0.49099284410476685, -1.0727769136428833, 0.022874340415000916
12214, 0.007972006686031818, -0.12181967496871948, 0.10786173492670059, -0.15160156786441803, 0.1238998994231224, -0.00518179452046752, 0.0017395527102053165, -0.0040301731787621975, 1.0001592636108398, 0.49099284410476685, -1.0727769136428833, 0.022874340415000916, 0.0, 0.0, 0.0, 0, 0, 0, 0, 0, 0, 0.4924125671386719, -1.0752058029174805, 0.022943414747714996
12224, 0.007104263640940189, -0.12348635494709015, 0.10669372975826263, -0.13647359609603882, 0.09797615557909012, -0.06659609824419022, 0.0003514089621603489, -0.0030378573574125767, 1.0010263919830322, 0.4924125671386719, -1.0752058029174805, 0.022943414747714996, 0.0, 0.0, 0.0, 0, 0, 0, 0, 0, 0, 0.4938359558582306, -1.0776387453079224, 0.023012937977910042
12234, 0.00699178921058774, -0.12319514155387878, 0.10742311179637909, 0.11234281957149506, -0.022228214889764786, 0.22772714495658875, -0.0008188526844605803, -0.0019368692301213741, 1.0000269412994385, 0.4938359558582306, -1.0776387453079224, 0.023012937977910042, 0.0, 0.0, 0.0, 0, 0, 0, 0, 0, 0, 0.49526137113571167, -1.0800745487213135, 0.023083258420228958
12244, 0.006987634114921093, -0.12368287146091461, 0.10847923904657364, -0.12255623936653137, -0.06268607079982758, 0.13945463299751282, 0.0002909897593781352, -0.0028661342803388834, 0.9995774030685425, 0.49526137113571167, -1.0800745487213135, 0.023083258420228958, 0.0, 0.0, 0.0, 0, 0, 0, 0, 0, 0, 0.4966886639595032, -1.082512378692627, 0.023153675720095634
12254, 0.006521148141473532, -0.12260375916957855, 0.10965705662965775, -0.10187723487615585, -0.0453396737575531, 0.16252601146697998, -0.0007491690339520574, -0.003292621113359928, 1.0000770092010498, 0.4966886639595032, -1.082512378692627, 0.023153675720095634, 0.0, 0.0, 0.0, 0, 0, 0, 0, 0, 0, 0.49811798334121704, -1.0849530696868896, 0.023223552852869034
12264, 0.006152919959276915, -0.12279867380857468, 0.11053922027349472, 0.10307012498378754, 0.04035966470837593, 0.21239590644836426, -0.0013770009391009808, -0.0025244965218007565, 1.0012106895446777, 0.49811798334121704, -1.0849530696868896, 0.023223552852869034, 0.0, 0.0, 0.0, 0, 0, 0, 0, 0, 0, 0.49954864382743835, -1.0873967409133911, 0.023293640464544296
12274, 0.0059637706726789474, -0.12460218369960785, 0.10978422313928604, -0.04267701879143715, 0.3225885033607483, -0.07732664048671722, -0.0010345038026571274, -0.002303172368556261, 0.9994185566902161, 0.49954864382743835, -1.0873967409133911, 0.023293640464544296, 0.0, 0.0, 0.0, 0, 0, 0, 0, 0, 0, 0.5009804964065552, -1.0898432731628418, 0.02336406707763672
12284, 0.006448496598750353, -0.12435971200466156, 0.11045241355895996, 0.15052388608455658, -0.2499435395002365, 0.14046747982501984, -0.000886124384123832, -0.003843276994302869, 1.0000263452529907, 0.5009804964065552, -1.0898432731628418, 0.02336406707763672, 0.0, 0.0, 0.0, 0, 0, 0, 0, 0, 0, 0.5024136304855347, -1.0922925472259521, 0.023434380069375038
12294, 0.007641594856977463, -0.12294409424066544, 0.11107326298952103, 0.15542922914028168, -0.18675285577774048, 0.026488114148378372, 0.001145872287452221, -0.0021212410647422075, 0.9996938109397888, 0.5024136304855347, -1.0922925472259521, 0.023434380069375038, 0.0, 0.0, 0.0, 0, 0, 0, 0, 0, 0, 0.503848671913147, -1.0947449207305908, 0.023504646494984627
12304, 0.006135226227343082, -0.12305305153131485, 0.11100191622972488, -0.06290463358163834, -0.025864621624350548, 0.10392503440380096, 0.00023873671307228506, -0.0021240105852484703, 0.999006450176239, 0.503848671913147, -1.0947449207305908, 0.023504646494984627, 0.0, 0.0, 0.0, 0, 0, 0, 0, 0, 0, 0.5052863359451294, -1.09719979763031, 0.023574283346533775
12314, 0.006821996998041868, -0.1234038919210434, 0.1118837520480156, 0.07098372280597687, 0.18305641412734985, 0.1455661803483963, -0.0007131074089556932, -0.003987864125519991, 1.0020211935043335, 0.5052863359451294, -1.09719979763031, 0.023574283346533775, 0.0, 0.0, 0.0, 0, 0, 0, 0, 0, 0, 0.5067262649536133, -1.0996575355529785, 0.023643799126148224
12324, 0.00657819677144289, -0.12280666083097458, 0.11093169450759888, -0.053831469267606735, 0.17422625422477722, -0.13170990347862244, -0.0019077727338299155, -0.002987450687214732, 1.0018466711044312, 0.5067262649536133, -1.0996575355529785, 0.023643799126148224, 0.0, 0.0, 0.0, 0, 0, 0, 0, 0, 0, 0.5081674456596375, -1.1021188497543335, 0.023714978247880936
12334, 0.006545328069478273, -0.12204389274120331, 0.11116639524698257, -0.0373166985809803, -0.04631849750876427, -0.09997478872537613, 8.220909512601793e-05, -0.0035488929133862257, 1.000806450843811, 0.5081674456596375, -1.1021188497543335, 0.023714978247880936, 0.0, 0.0, 0.0, 0, 0, 0, 0, 0, 0, 0.5096095204353333, -1.1045836210250854, 0.023787813261151314
12344, 0.005538828670978546, -0.12344114482402802, 0.11005356162786484, -0.1545543223619461, 0.4011087715625763, -0.016705313697457314, 0.0007120416848920286, -0.004458037670701742, 1.0007884502410889, 0.5096095204353333, -1.1045836210250854, 0.023787813261151314, 0.0, 0.0, 0.0, 0, 0, 0, 0, 0, 0, 0.5110536217689514, -1.1070523262023926, 0.02386133000254631
12354, 0.006277722772210836, -0.12299854308366776, 0.10943716019392014, 0.054044775664806366, -0.11200762540102005, -0.09973300993442535, -0.00047586296568624675, -0.0028866762295365334, 1.0016539096832275, 0.5110536217689514, -1.1070523262023926, 0.02386133000254631, 0.0, 0.0, 0.0, 0, 0, 0, 0, 0, 0, 0.5125002264976501, -1.1095249652862549, 0.023935848847031593
12364, 0.006222945172339678, -0.12285208702087402, 0.10844991356134415, -0.07204046100378036, 0.06512545794248581, -0.1283126026391983, -0.0004571000172290951, -0.0017010146984830499, 1.0004775524139404, 0.5125002264976501, -1.1095249652862549, 0.023935848847031593, 0.0, 0.0, 0.0, 0, 0, 0, 0, 0, 0, 0.5139488577842712, -1.1120004653930664, 0.02401147224009037
12374, 0.006197520066052675, -0.12183082103729248, 0.10781951248645782, 0.061788566410541534, 0.06355492770671844, -0.16822801530361176, 0.0012158125173300505, -0.0049404241144657135, 1.0000451803207397, 0.5139488577842712, -1.1120004653930664, 0.02401147224009037, 0.0, 0.0, 0.0, 0, 0, 0, 0, 0, 0, 0.5153996348381042, -1.1144788265228271, 0.024087443947792053
12384, 0.006703005637973547, -0.12406360357999802, 0.10932796448469162, -0.039088666439056396, 0.18948322534561157, 0.11342863738536835, -0.00038064277032390237, -0.003132434794679284, 0.9998879432678223, 0.5153996348381042, -1.1144788265228271, 0.024087443947792053, 0.0, 0.0, 0.0, 0, 0, 0, 0, 0, 0, 0.5168529748916626, -1.116961121559143, 0.024163490161299706
12394, 0.007760785520076752, -0.12351243942975998, 0.10963934659957886, 0.027245307341217995, -0.023344622924923897, 0.052260324358940125, -0.001965750940144062, -0.004261908587068319, 1.000945806503296, 0.5168529748916626, -1.116961121559143, 0.024163490161299706, 0.0, 0.0, 0.0, 0, 0, 0, 0, 0, 0, 0.5183081030845642, -1.1194474697113037, 0.024239826947450638
12404, 0.006988999433815479, -0.12147960066795349, 0.10944323986768723, -0.05481088161468506, -0.3005061745643616, 0.015462933108210564, -0.002061613369733095, -0.003816459560766816, 0.9997567534446716, 0.5183081030845642, -1.1194474697113037, 0.024239826947450638, 0.0, 0.0, 0.0, 0, 0, 0, 0, 0, 0, 0.519763708114624, -1.1219375133514404, 0.024316862225532532
12414, 0.007099559530615807, -0.12228085845708847, 0.1089555025100708, -0.07663572579622269, 0.022010279819369316, 0.07855069637298584, 0.0012621399946510792, -0.006179123185575008, 0.9986706376075745, 0.519763708114624, -1.1219375133514404, 0.024316862225532532, 0.0, 0.0, 0.0, 0, 0, 0, 0, 0, 0, 0.521220326423645, -1.1244322061538696, 0.024393469095230103
12424, 0.007586727384477854, -0.12305429577827454, 0.10977460443973541, -0.08611626923084259, 0.017268413677811623, 0.0033741246443241835, 0.0009767861338332295, -0.0034345106687396765, 0.9993149638175964, 0.521220326423645, -1.1244322061538696, 0.024393469095230103, 0.0, 0.0, 0.0, 0, 0, 0, 0, 0, 0, 0.5226796865463257, -1.1269320249557495, 0.024469012394547462
12434, 0.008315297774970531, -0.12406166642904282, 0.110877126455307, 0.07045551389455795, 0.013910377398133278, 0.141816645860672, -0.0012523074401542544, -0.003248360240831971, 0.9987255930900574, 0.5226796865463257, -1.1269320249557495, 0.024469012394547462, 0.0, 0.0, 0.0, 0, 0, 0, 0, 0, 0, 0.5241415500640869, -1.1294355392456055, 0.024543682113289833
12444, 0.00807418767362833, -0.12464690208435059, 0.11050049215555191, -0.045173294842243195, 0.008951765485107899, -0.1837005764245987, 0.0006539865862578154, -0.001890996820293367, 1.0016213655471802, 0.5241415500640869, -1.1294355392456055, 0.024543682113289833, 0.0, 0.0, 0.0, 0, 0, 0, 0, 0, 0, 0.5256052017211914, -1.1319416761398315, 0.02461799420416355
12454, 0.00973616261035204, -0.12718717753887177, 0.11006082594394684, 0.2636774778366089, 0.2064831405878067, 0.014379054307937622, 0.0007496411562897265, -0.0021608504466712475, 1.003694772720337, 0.5256052017211914, -1.1319416761398315, 0.02461799420416355, 0.0, 0.0, 0.0, 0, 0, 0, 0, 0, 0, 0.5270715355873108, -1.1344501972198486, 0.024694494903087616
12464, 0.009273767471313477, -0.1288508176803589, 0.1103530302643776, -0.11700034886598587, 0.33285799622535706, 0.09101647883653641, 0.001264600665308535, -0.000693011621478945, 1.0011285543441772, 0.5270715355873108, -1.1344501972198486, 0.024694494903087616, 0.0, 0.0, 0.0, 0, 0, 0, 0, 0, 0, 0.5285409092903137, -1.1369606256484985, 0.024773618206381798
12474, 0.008698487654328346, -0.12949465215206146, 0.11149735003709793, 0.005567455664277077, -0.13475970923900604, 0.07488611340522766, -0.000348366069374606, -0.0023172330111265182, 0.9996545314788818, 0.5285409092903137, -1.1369606256484985, 0.024773618206381798, 0.0, 0.0, 0.0, 0, 0, 0, 0, 0, 0, 0.530012845993042, -1.1394726037979126, 0.024853695183992386
12484, 0.009205331094563007, -0.12985828518867493, 0.11021733283996582, 0.0665355995297432, 0.08605990558862686, 0.06267046183347702, -0.0004115010960958898, -0.003819791367277503, 1.0003842115402222, 0.530012845993042, -1.1394726037979126, 0.024853695183992386, 0.0, 0.0, 0.0, 0, 0, 0, 0, 0, 0, 0.531486988067627, -1.1419870853424072, 0.024934196844697
12494, 0.010457916185259819, -0.13129162788391113, 0.11046476662158966, 0.041051268577575684, 0.16375167667865753, 0.22023248672485352, -0.0010850271210074425, -0.0034469650126993656, 1.0008761882781982, 0.531486988067627, -1.1419870853424072, 0.024934196844697, 0.0, 0.0, 0.0, 0, 0, 0, 0, 0, 0, 0.5329627990722656, -1.1445053815841675, 0.025015246123075485
12504, 0.0100699532777071, -0.13300035893917084, 0.11049540340900421, 0.012755068950355053, -0.07655632495880127, -0.0032868417911231518, 0.0019253271166235209, -0.0015754366759210825, 0.9993991255760193, 0.5329627990722656, -1.1445053815841675, 0.025015246123075485, 0.0, 0.0, 0.0, 0, 0, 0, 0, 0, 0, 0.5344406962394714, -1.1470268964767456, 0.025096727535128593
12514, 0.010651293210685253, -0.13302309811115265, 0.110227569937706, 0.14741452038288116, 0.1263885498046875, 0.11382866650819778, 0.00034976235474459827, -0.0029829442501068115, 0.999197244644165, 0.5344406962394714, -1.1470268964767456, 0.025096727535128593, 0.0, 0.0, 0.0, 0, 0, 0, 0, 0, 0, 0.5359216332435608, -1.149550199508667, 0.025178177282214165
12524, 0.01055587362498045, -0.1356753557920456, 0.1126880943775177, -0.04998853802680969, 0.4743613302707672, 0.09141041338443756, 0.0002952760842163116, -0.0028975505847483873, 0.9976410865783691, 0.5359216332435608, -1.149550199508667, 0.025178177282214165, 0.0, 0.0, 0.0, 0, 0, 0, 0, 0, 0, 0.5374054908752441, -1.152076244354248, 0.02525848150253296
12534, 0.011098593473434448, -0.13708791136741638, 0.11342892050743103, 0.08771421015262604, 0.07405867427587509, 0.10215076059103012, 0.0009124780190177262, -0.002617725171148777, 1.0001438856124878, 0.5374054908752441, -1.152076244354248, 0.02525848150253296, 0.0, 0.0, 0.0, 0, 0, 0, 0, 0, 0, 0.5388919115066528, -1.1546056270599365, 0.025337332859635353
12544, 0.011847671121358871, -0.1376844197511673, 0.11444307118654251, 0.014161147177219391, 0.20696322619915009, 0.12444094568490982, 0.001142051536589861, -0.003767074551433325, 1.0003169775009155, 0.5388919115066528, -1.1546056270599365, 0.025337332859635353, 0.0, 0.0, 0.0, 0, 0, 0, 0, 0, 0, 0.5403813719749451, -1.1571379899978638, 0.025415856391191483
12554, 0.012813248671591282, -0.13819676637649536, 0.11476690322160721, 0.1819247156381607, 0.058512765914201736, 0.08083800226449966, 0.0005196630372665823, -0.0020151580683887005, 0.9996725916862488, 0.5403813719749451, -1.1571379899978638, 0.025415856391191483, 0.0, 0.0, 0.0, 0, 0, 0, 0, 0, 0, 0.5420236587524414, -1.1599270105361938, 0.025502266362309456
12564, 0.012360269203782082, -0.13984356820583344, 0.11545678973197937, 0.05846104025840759, 0.049287620931863785, -0.0012861931463703513, 0.0008730426197871566, -0.0016046443488448858, 1.0007884502410889, 0.5420236587524414, -1.1599270105361938, 0.025502266362309456, 0.0, 0.0, 0.0, 0, 0, 0, 0, 0, 0, 0.5435200333595276, -1.1624650955200195, 0.025580966845154762
12574, 0.01223150733858347, -0.141173854470253, 0.11615058779716492, 0.06526701897382736, 0.09479470551013947, 0.12382747232913971, -0.00037397685809992254, -0.004890523385256529, 1.0004955530166626, 0.5435200333595276, -1.1624650955200195, 0.025580966845154762, 0.0, 0.0, 0.0, 0, 0, 0, 0, 0, 0, 0.545019268989563, -1.1650062799453735, 0.0256601981818676
12584, 0.012562430463731289, -0.1413401961326599, 0.11728617548942566, 0.02365698292851448, -0.0045370077714324, 0.22467364370822906, -0.0006108303205110133, -0.006570065394043922, 1.0001789331436157, 0.545019268989563, -1.1650062799453735, 0.0256601981818676, 0.0, 0.0, 0.0, 0, 0, 0, 0, 0, 0, 0.5465206503868103, -1.1675525903701782, 0.025739766657352448
12594, 0.013021579943597317, -0.14097903668880463, 0.11842335760593414, -0.018814675509929657, -0.1112084910273552, 0.14755316078662872, -1.0491737157281023e-05, -0.005539348348975182, 1.0008834600448608, 0.5465206503868103, -1.1675525903701782, 0.025739766657352448, 0.0, 0.0, 0.0, 0, 0, 0, 0, 0, 0, 0.5480241775512695, -1.17010498046875, 0.025819629430770874
12604, 0.012389960698783398, -0.1397155076265335, 0.11819804459810257, -0.06334575265645981, -0.053140055388212204, -0.025308644399046898, -0.0003440500586293638, -0.0037118319887667894, 0.9986133575439453, 0.5480241775512695, -1.17010498046875, 0.025819629430770874, 0.0, 0.0, 0.0, 0, 0, 0, 0, 0, 0, 0.5495302081108093, -1.1726622581481934, 0.025899499654769897
12614, 0.012892508879303932, -0.13896943628787994, 0.11771634221076965, -0.017473386600613594, -0.05788945034146309, 0.040209583938121796, 4.912284930469468e-05, -0.003827662905678153, 0.999836266040802, 0.5495302081108093, -1.1726622581481934, 0.025899499654769897, 0.0, 0.0, 0.0, 0, 0, 0, 0, 0, 0, 0.5510385036468506, -1.1752235889434814, 0.025978688150644302
12624, 0.012547575868666172, -0.14012913405895233, 0.11702150106430054, 0.0749124139547348, 0.04268499091267586, 0.09072165936231613, -0.00036293911398388445, -0.0024020071141421795, 1.0015369653701782, 0.5510385036468506, -1.1752235889434814, 0.025978688150644302, 0.0, 0.0, 0.0, 0, 0, 0, 0, 0, 0, 0.5525491237640381, -1.1777883768081665, 0.02605796791613102
12634, 0.012084095738828182, -0.14063814282417297, 0.11739285290241241, -0.046786848455667496, 0.043283529579639435, 0.055033352226018906, -0.00019542683730833232, -0.003444845322519541, 1.000207543373108, 0.5525491237640381, -1.1777883768081665, 0.02605796791613102, 0.0, 0.0, 0.0, 0, 0, 0, 0, 0, 0, 0.554062008857727, -1.1803561449050903, 0.02613811381161213
12644, 0.01259300485253334, -0.13830816745758057, 0.11559435725212097, 0.03207262232899666, -0.38160204887390137, -0.13604837656021118, 8.307676034746692e-05, -0.00427640276029706, 1.0005427598953247, 0.554062008857727, -1.1803561449050903, 0.02613811381161213, 0.0, 0.0, 0.0, 0, 0, 0, 0, 0, 0, 0.5555769801139832, -1.1829276084899902, 0.026218662038445473
12654, 0.013012266717851162, -0.13798975944519043, 0.11614329367876053, 0.0529455691576004, -0.08710740506649017, 0.27615347504615784, -0.00018657783220987767, -0.0019299652194604278, 0.9991086721420288, 0.5555769801139832, -1.1829276084899902, 0.026218662038445473, 0.0, 0.0, 0.0, 0, 0, 0, 0, 0, 0, 0.5570943355560303, -1.185502529144287, 0.026299219578504562
12664, 0.013161787763237953, -0.13884076476097107, 0.11734306067228317, 0.041429776698350906, 0.22616098821163177, 0.22322781383991241, 0.001377424574457109, -0.004049608949571848, 0.9993845820426941, 0.5570943355560303, -1.185502529144287, 0.026299219578504562, 0.0, 0.0, 0.0, 0, 0, 0, 0, 0, 0, 0.5586143732070923, -1.1880807876586914, 0.026379212737083435
12674, 0.0137949138879776, -0.13853152096271515, 0.11633142828941345, 0.07487280666828156, -0.12199634313583374, -0.2812019884586334, 0.0019432817352935672, -0.002556824591010809, 0.9997261762619019, 0.5586143732070923, -1.1880807876586914, 0.026379212737083435, 0.0, 0.0, 0.0, 0, 0, 0, 0, 0, 0, 0.560137927532196, -1.1906625032424927, 0.026458466425538063
12684, 0.014329345896840096, -0.1387903392314911, 0.11680304259061813, -0.06541437655687332, -0.020489754155278206, -0.14952443540096283, 0.0001549808803247288, -0.0027620408218353987, 1.001070499420166, 0.560137927532196, -1.1906625032424927, 0.026458466425538063, 0.0, 0.0, 0.0, 0, 0, 0, 0, 0, 0, 0.5616651177406311, -1.1932474374771118, 0.026537861675024033
12694, 0.0140093844383955, -0.13933546841144562, 0.1176023781299591, -0.009508850052952766, 0.20689481496810913, 0.207816019654274, 0.0003866003535222262, -0.0020888186991214752, 1.0004589557647705, 0.5616651177406311, -1.1932474374771118, 0.026537861675024033, 0.0, 0.0, 0.0, 0, 0, 0, 0, 0, 0, 0.563194990158081, -1.1958351135253906, 0.02661787159740925
12704, 0.014744593761861324, -0.13933569192886353, 0.11877143383026123, 0.0060209669172763824, 0.10723833739757538, 0.10041177272796631, 0.0009171493584290147, -0.002876728307455778, 1.0016857385635376, 0.563194990158081, -1.1958351135253906, 0.02661787159740925, 0.0, 0.0, 0.0, 0, 0, 0, 0, 0, 0, 0.5647276043891907, -1.1984256505966187, 0.02669874019920826
12714, 0.014240328222513199, -0.13883422315120697, 0.11884916573762894, 0.0038601262494921684, -0.1361185610294342, 0.0590379424393177, -0.0022542139049619436, -0.001901651849038899, 1.0010777711868286, 0.5647276043891907, -1.1984256505966187, 0.02669874019920826, 0.0, 0.0, 0.0, 0, 0, 0, 0, 0, 0, 0.5662623047828674, -1.201019048690796, 0.02678084559738636
12724, 0.015039503574371338, -0.13845841586589813, 0.11886996775865555, 0.11871431767940521, 0.020528435707092285, 0.1598067730665207, -0.0026234732940793037, -0.000588016991969198, 1.0007331371307373, 0.5662623047828674, -1.201019048690796, 0.02678084559738636, 0.0, 0.0, 0.0, 0, 0, 0, 0, 0, 0, 0.5677976012229919, -1.2036141157150269, 0.02686387673020363
12734, 0.01489495299756527, -0.13868218660354614, 0.12023262679576874, -0.09609229862689972, -0.0069729178212583065, 0.10282129049301147, -0.0001975546038011089, -0.0029547340236604214, 0.9996676445007324, 0.5677976012229919, -1.2036141157150269, 0.02686387673020363, 0.0, 0.0, 0.0, 0, 0, 0, 0, 0, 0, 0.5693337917327881, -1.2062108516693115, 0.0269471425563097
12744, 0.015629177913069725, -0.13818451762199402, 0.11940713226795197, 0.09228181838989258, -0.0742788165807724, 0.00852870661765337, -0.0003121799963992089, -0.0022144103422760963, 0.99831223487854, 0.5693337917327881, -1.2062108516693115, 0.0269471425563097, 0.0, 0.0, 0.0, 0, 0, 0, 0, 0, 0, 0.5708717703819275, -1.2088103294372559, 0.027029622346162796
12754, 0.016430241987109184, -0.13680098950862885, 0.11933859437704086, 0.06048541143536568, -0.3060177266597748, -0.012925838120281696, -0.0007861105259507895, -0.0018019888084381819, 1.000385046005249, 0.5708717703819275, -1.2088103294372559, 0.027029622346162796, 0.0, 0.0, 0.0, 0, 0, 0, 0, 0, 0, 0.5724114775657654, -1.2114121913909912, 0.027111263945698738
12764, 0.017054738476872444, -0.1384800225496292, 0.11920566111803055, 0.061441339552402496, 0.2655993402004242, -0.11821729689836502, -0.0004208005266264081, -0.0007363711483776569, 1.002997636795044, 0.5724114775657654, -1.2114121913909912, 0.027111263945698738, 0.0, 0.0, 0.0, 0, 0, 0, 0, 0, 0, 0.573952853679657, -1.2140156030654907, 0.027194032445549965
12774, 0.017456138506531715, -0.13592489063739777, 0.11705464124679565, 0.009034777991473675, -0.23393605649471283, -0.22693093121051788, 0.00034886482171714306, -0.002301325323060155, 1.0015442371368408, 0.573952853679657, -1.2140156030654907, 0.027194032445549965, 0.0, 0.0, 0.0, 0, 0, 0, 0, 0, 0, 0.5754964351654053, -1.2166204452514648, 0.027278976514935493
12784, 0.017714284360408783, -0.1375201940536499, 0.11680082976818085, -0.04093361273407936, 0.31452590227127075, -0.16538016498088837, 0.0025065045338124037, -0.002732792403548956, 1.0011141300201416, 0.5754964351654053, -1.2166204452514648, 0.027278976514935493, 0.0, 0.0, 0.0, 0, 0, 0, 0, 0, 0, 0.5770432949066162, -1.2192275524139404, 0.027365390211343765
12794, 0.017607958987355232, -0.13644327223300934, 0.11542457342147827, -0.05754893645644188, 0.007079060189425945, -0.17326045036315918, 0.00043644043034873903, -0.0027764798142015934, 0.9987871646881104, 0.5770432949066162, -1.2192275524139404, 0.027365390211343765, 0.0, 0.0, 0.0, 0, 0, 0, 0, 0, 0, 0.578593909740448, -1.2218375205993652, 0.0274520143866539
12804, 0.017471177503466606, -0.13617444038391113, 0.11506688594818115, -0.10755693912506104, 0.0832282230257988, -0.10726863145828247, -0.003010221291333437, -0.004361862316727638, 0.9992299675941467, 0.578593909740448, -1.2218375205993652, 0.0274520143866539, 0.0, 0.0, 0.0, 0, 0, 0, 0, 0, 0, 0.5801462531089783, -1.224450945854187, 0.027537867426872253
12814, 0.0173517856746912, -0.13237622380256653, 0.11459841579198837, -0.10529274493455887, -0.30898210406303406, -0.09677977859973907, -0.0016549058491364121, -0.0018093453254550695, 0.9997040033340454, 0.5801462531089783, -1.224450945854187, 0.027537867426872253, 0.0, 0.0, 0.0, 0, 0, 0, 0, 0, 0, 0.5816987156867981, -1.2270678281784058, 0.027622893452644348
12824, 0.018524764105677605, -0.13129667937755585, 0.11354808509349823, 0.17357610166072845, -0.019598431885242462, -0.07772615551948547, 0.00019979964417871088, -0.0038740152958780527, 1.0012327432632446, 0.5816987156867981, -1.2270678281784058, 0.027622893452644348, 0.0, 0.0, 0.0, 0, 0, 0, 0, 0, 0, 0.5832521915435791, -1.2296878099441528, 0.027708031237125397
12834, 0.01781044714152813, -0.12957026064395905, 0.11287184804677963, -0.08371750265359879, -0.3266773521900177, -0.15130889415740967, -0.0007862585480324924, -0.002712169662117958, 0.9989539980888367, 0.5832521915435791, -1.2296878099441528, 0.027708031237125397, 0.0, 0.0, 0.0, 0, 0, 0, 0, 0, 0, 0.5848076939582825, -1.2323111295700073, 0.02779356576502323
12844, 0.01859143376350403, -0.13026905059814453, 0.11311078071594238, 0.1086956113576889, -0.0062644644640386105, -0.013905825093388557, -0.00039760841173119843, -0.0036475618835538626, 1.0002105236053467, 0.5848076939582825, -1.2323111295700073, 0.02779356576502323, 0.0, 0.0, 0.0, 0, 0, 0, 0, 0, 0, 0.586365282535553, -1.2349379062652588, 0.027878612279891968
12854, 0.01926901750266552, -0.13182248175144196, 0.11230261623859406, 0.09968803822994232, 0.2759464383125305, -0.08916129916906357, 0.0016016733134165406, -0.0016996667254716158, 1.0004240274429321, 0.586365282535553, -1.2349379062652588, 0.027878612279891968, 0.0, 0.0, 0.0, 0, 0, 0, 0, 0, 0, 0.5879254341125488, -1.2375677824020386, 0.027963558211922646
12864, 0.019477831199765205, -0.13092418015003204, 0.11242111772298813, 0.0441923588514328, 0.10544387251138687, 0.2202678769826889, -0.0010112050222232938, -0.0021595237776637077, 0.999184787273407, 0.5879254341125488, -1.2375677824020386, 0.027963558211922646, 0.0, 0.0, 0.0, 0, 0, 0, 0, 0, 0, 0.58948814868927, -1.240200161933899, 0.028048602864146233
12874, 0.01873375102877617, -0.13189272582530975, 0.11225056648254395, -0.05815258249640465, -0.0930858701467514, 0.08203265815973282, -0.0021343680564314127, -0.0025700770784169436, 0.9990473985671997, 0.58948814868927, -1.240200161933899, 0.028048602864146233, 0.0, 0.0, 0.0, 0, 0, 0, 0, 0, 0, 0.5910521149635315, -1.242835283279419, 0.028133338317275047
12884, 0.017483046278357506, -0.1326896846294403, 0.11365120857954025, -0.0653323233127594, 0.017990123480558395, 0.2550285756587982, -0.0013143764808773994, -0.0027916543185710907, 0.9989076256752014, 0.5910521149635315, -1.242835283279419, 0.028133338317275047, 0.0, 0.0, 0.0, 0, 0, 0, 0, 0, 0, 0.5926167368888855, -1.2454731464385986, 0.028217611834406853
12894, 0.016907645389437675, -0.1340448260307312, 0.11312302947044373, -0.053527068346738815, -0.027814440429210663, -0.1289401799440384, -0.002282575238496065, -0.0016450741095468402, 0.9979658722877502, 0.5926167368888855, -1.2454731464385986, 0.028217611834406853, 0.0, 0.0, 0.0, 0, 0, 0, 0, 0, 0, 0.5941818952560425, -1.2481133937835693, 0.028300518169999123
12904, 0.016461307182908058, -0.1346101015806198, 0.11341571062803268, -0.04369809105992317, 0.12965214252471924, 0.13698551058769226, 0.0010039706248790026, -0.0019428891828283668, 0.9991984963417053, 0.5941818952560425, -1.2481133937835693, 0.028300518169999123, 0.0, 0.0, 0.0, 0, 0, 0, 0, 0, 0, 0.5957485437393188, -1.250755786895752, 0.028382044285535812
12914, 0.017511796206235886, -0.1337013691663742, 0.11335441470146179, 0.10991787910461426, -0.19146984815597534, -0.1732756793498993, 0.0030752236489206553, -0.0026073295157402754, 0.9998595118522644, 0.5957485437393188, -1.250755786895752, 0.028382044285535812, 0.0, 0.0, 0.0, 0, 0, 0, 0, 0, 0, 0.5973188877105713, -1.2534005641937256, 0.028463125228881836
12924, 0.01833656243979931, -0.13612030446529388, 0.11404673010110855, 0.22470466792583466, 0.3790103793144226, -0.026120467111468315, 0.0011226758360862732, -0.0012272971216589212, 1.0004647970199585, 0.5973188877105713, -1.2534005641937256, 0.028463125228881836, 0.0, 0.0, 0.0, 0, 0, 0, 0, 0, 0, 0.5988938808441162, -1.2560478448867798, 0.028544293716549873
12934, 0.017205411568284035, -0.13798034191131592, 0.11405258625745773, -0.14888110756874084, 0.2684532701969147, 0.0327439047396183, -0.000857881736010313, -0.0018097034189850092, 1.0013967752456665, 0.5988938808441162, -1.2560478448867798, 0.028544293716549873, 0.0, 0.0, 0.0, 0, 0, 0, 0, 0, 0, 0.600472092628479, -1.2586971521377563, 0.02862635813653469
12944, 0.01642443984746933, -0.1366538256406784, 0.11402864009141922, -0.16503404080867767, -0.17033767700195312, -0.04777790233492851, -0.002898877952247858, -0.0011081516277045012, 0.9994435906410217, 0.600472092628479, -1.2586971521377563, 0.02862635813653469, 0.0, 0.0, 0.0, 0, 0, 0, 0, 0, 0, 0.6020511388778687, -1.2613483667373657, 0.02870897203683853
12954, 0.015363666228950024, -0.13820871710777283, 0.11386173218488693, 0.012478191405534744, 0.16586853563785553, -0.04255519434809685, -0.0014467916917055845, -0.002793447347357869, 0.998883068561554, 0.6020511388778687, -1.2613483667373657, 0.02870897203683853, 0.0, 0.0, 0.0, 0, 0, 0, 0, 0, 0, 0.6036301851272583, -1.264001727104187, 0.028790907934308052
12964, 0.01513169426470995, -0.13642506301403046, 0.1141832247376442, -0.05272076651453972, -0.08694462478160858, 0.10754851251840591, 0.0015269337454810739, -0.003479452570900321, 1.0011744499206543, 0.6036301851272583, -1.264001727104187, 0.028790907934308052, 0.0, 0.0, 0.0, 0, 0, 0, 0, 0, 0, 0.6052109599113464, -1.2666579484939575, 0.02887243777513504
12974, 0.01502513512969017, -0.13696421682834625, 0.11478057503700256, 0.010560733266174793, 0.13928274810314178, 0.09843745082616806, -0.0004089669091627002, -0.002508679172024131, 1.0015794038772583, 0.6052109599113464, -1.2666579484939575, 0.02887243777513504, 0.0, 0.0, 0.0, 0, 0, 0, 0, 0, 0, 0.6067944765090942, -1.2693172693252563, 0.028955010697245598
12984, 0.01505637913942337, -0.1350785493850708, 0.1149139478802681, 0.11115266382694244, -0.3303340971469879, 0.18866343796253204, -0.0009995484724640846, -0.004605260211974382, 0.9995119571685791, 0.6067944765090942, -1.2693172693252563, 0.028955010697245598, 0.0, 0.0, 0.0, 0, 0, 0, 0, 0, 0, 0.6083799600601196, -1.2719801664352417, 0.029038377106189728
12994, 0.014720752835273743, -0.13423964381217957, 0.11489477008581161, -0.024171190336346626, -0.18901455402374268, 0.016365529969334602, 2.568614399933722e-05, -0.0017332877032458782, 0.999302089214325, 0.6083799600601196, -1.2719801664352417, 0.029038377106189728, 0.0, 0.0, 0.0, 0, 0, 0, 0, 0, 0, 0.6099673509597778, -1.2746466398239136, 0.029121339321136475
13004, 0.014911905862390995, -0.13264144957065582, 0.11457110941410065, -0.0036124801263213158, -0.08179394900798798, 0.027848826721310616, -0.000693030480761081, -0.0036071932408958673, 1.0020862817764282, 0.6099673509597778, -1.2746466398239136, 0.029121339321136475, 0.0, 0.0, 0.0, 0, 0, 0, 0, 0, 0, 0.6115569472312927, -1.2773160934448242, 0.029204467311501503
13014, 0.014623548835515976, -0.1323772817850113, 0.11479184776544571, -0.04711080342531204, 0.13653028011322021, -0.14646020531654358, 0.0014681830070912838, -0.0024106937926262617, 1.001697301864624, 0.6115569472312927, -1.2773160934448242, 0.029204467311501503, 0.0, 0.0, 0.0, 0, 0, 0, 0, 0, 0, 0.6131491661071777, -1.2799886465072632, 0.029289240017533302
13024, 0.015018594451248646, -0.13135926425457, 0.11551748961210251, 0.10347077995538712, -0.042800579220056534, 0.142121359705925, 0.0033021043054759502, -0.0014573349617421627, 1.000401258468628, 0.6131491661071777, -1.2799886465072632, 0.029289240017533302, 0.0, 0.0, 0.0, 0, 0, 0, 0, 0, 0, 0.614745557308197, -1.282663345336914, 0.029375651851296425
13034, 0.01490772608667612, -0.12925702333450317, 0.11480477452278137, -0.0906403586268425, -0.37091508507728577, -0.05492480844259262, 0.001105278148315847, -0.002819356508553028, 0.9981575608253479, 0.614745557308197, -1.282663345336914, 0.029375651851296425, 0.0, 0.0, 0.0, 0, 0, 0, 0, 0, 0, 0.6163466572761536, -1.2853403091430664, 0.029461991041898727
13044, 0.014995689503848553, -0.1286812573671341, 0.11438174545764923, 0.03823718801140785, -0.07889291644096375, 0.07005830109119415, -0.00035527400905266404, -0.005807377398014069, 0.998245894908905, 0.6163466572761536, -1.2853403091430664, 0.029461991041898727, 0.0, 0.0, 0.0, 0, 0, 0, 0, 0, 0, 0.6179508566856384, -1.288021445274353, 0.029546990990638733
13054, 0.015853798016905785, -0.1298184096813202, 0.11462748050689697, 0.019718745723366737, 0.20777955651283264, 0.030664140358567238, 0.0016243895515799522, -0.003773830132558942, 1.0005515813827515, 0.6179508566856384, -1.288021445274353, 0.029546990990638733, 0.0, 0.0, 0.0, 0, 0, 0, 0, 0, 0, 0.6195576190948486, -1.2907072305679321, 0.02963118813931942
13064, 0.01636899635195732, -0.12895771861076355, 0.11494790017604828, -0.0907321348786354, -0.20308685302734375, -0.0075487964786589146, 0.0009510734817013144, -0.004587839357554913, 1.001621127128601, 0.6195576190948486, -1.2907072305679321, 0.02963118813931942, 0.0, 0.0, 0.0, 0, 0, 0, 0, 0, 0, 0.6211675405502319, -1.2933976650238037, 0.029716096818447113
13074, 0.0173794012516737, -0.12838301062583923, 0.11393532902002335, 0.1894291192293167, 0.0034412893000990152, -0.1635623276233673, 0.0008413962204940617, -0.004181991331279278, 1.00034761428833, 0.6211675405502319, -1.2933976650238037, 0.029716096818447113, 0.0, 0.0, 0.0, 0, 0, 0, 0, 0, 0, 0.6227806210517883, -1.2960927486419678, 0.029802056029438972
13084, 0.017126498743891716, -0.1296437382698059, 0.1153927743434906, 0.07342104613780975, 0.13506168127059937, 0.23823633790016174, 0.0006187403341755271, -0.004624387715011835, 1.0007442235946655, 0.6227806210517883, -1.2960927486419678, 0.029802056029438972, 0.0, 0.0, 0.0, 0, 0, 0, 0, 0, 0, 0.6243966221809387, -1.2987926006317139, 0.02988850325345993
13094, 0.01725262589752674, -0.13022349774837494, 0.11683591455221176, 0.0021347817964851856, -0.13703884184360504, 0.14898350834846497, 0.0011478450614959002, -0.003022984601557255, 1.0007519721984863, 0.6243966221809387, -1.2987926006317139, 0.02988850325345993, 0.0, 0.0, 0.0, 0, 0, 0, 0, 0, 0, 0.6260155439376831, -1.3014967441558838, 0.029975468292832375
13104, 0.016973955556750298, -0.13135942816734314, 0.11591127514839172, -0.10589609295129776, 0.1896260678768158, -0.2514086663722992, 0.0005249792011454701, -0.0011207357747480273, 1.0018917322158813, 0.6260155439376831, -1.3014967441558838, 0.029975468292832375, 0.0, 0.0, 0.0, 0, 0, 0, 0, 0, 0, 0.6276376247406006, -1.3042038679122925, 0.030063627287745476
13114, 0.017738033086061478, -0.130599245429039, 0.11613886058330536, 0.07705709338188171, -0.059293098747730255, -0.07470733672380447, -0.0008139146375469863, -0.002309310482814908, 0.9998506307601929, 0.6276376247406006, -1.3042038679122925, 0.030063627287745476, 0.0, 0.0, 0.0, 0, 0, 0, 0, 0, 0, 0.6292620301246643, -1.3069132566452026, 0.03015272319316864
13124, 0.016705818474292755, -0.13102303445339203, 0.11648140102624893, -0.014518608339130878, -0.0011182093294337392, 0.001611172454431653, 0.00036810358869843185, -0.0019256409723311663, 0.9989446997642517, 0.6292620301246643, -1.3069132566452026, 0.03015272319316864, 0.0, 0.0, 0.0, 0, 0, 0, 0, 0, 0, 0.6308884620666504, -1.3096247911453247, 0.030241448432207108
13134, 0.016076939180493355, -0.13230174779891968, 0.11479966342449188, 0.01217629760503769, 0.06346627324819565, -0.09848910570144653, -0.0011273440904915333, -0.0042382050305604935, 0.9997625946998596, 0.6308884620666504, -1.3096247911453247, 0.030241448432207108, 0.0, 0.0, 0.0, 0, 0, 0, 0, 0, 0, 0.6325169205665588, -1.3123395442962646, 0.030329294502735138
13144, 0.016112154349684715, -0.13305756449699402, 0.11498677730560303, 0.03976514935493469, 0.06017006188631058, 0.010128130204975605, -0.0009178246255032718, -0.0029809637926518917, 0.9997013211250305, 0.6325169205665588, -1.3123395442962646, 0.030329294502735138, 0.0, 0.0, 0.0, 0, 0, 0, 0, 0, 0, 0.6341467499732971, -1.3150582313537598, 0.030416611582040787
13154, 0.016872253268957138, -0.1325511634349823, 0.11406783759593964, 0.1898871660232544, -0.1182866245508194, -0.09466332197189331, 0.00028151640435680747, -0.0021888618357479572, 1.0006909370422363, 0.6341467499732971, -1.3150582313537598, 0.030416611582040787, 0.0, 0.0, 0.0, 0, 0, 0, 0, 0, 0, 0.6357784271240234, -1.3177800178527832, 0.030503593385219574
13164, 0.01759396679699421, -0.13128502666950226, 0.11398547142744064, 0.13816189765930176, -0.18399576842784882, -0.043197985738515854, -9.243689419236034e-05, -0.0019510826095938683, 1.0009243488311768, 0.6357784271240234, -1.3177800178527832, 0.030503593385219574, 0.0, 0.0, 0.0, 0, 0, 0, 0, 0, 0, 0.637412428855896, -1.3205043077468872, 0.030590785667300224
13174, 0.017828529700636864, -0.1316525638103485, 0.11334415525197983, 0.024419283494353294, 0.019555754959583282, -0.025418721139431, 0.0012497496791183949, -0.0018448397750034928, 0.9997299909591675, 0.637412428855896, -1.3205043077468872, 0.030590785667300224, 0.0, 0.0, 0.0, 0, 0, 0, 0, 0, 0, 0.6390489935874939, -1.3232307434082031, 0.030678387731313705
13184, 0.018268467858433723, -0.13150256872177124, 0.11401353776454926, 0.0619402751326561, -0.2271190881729126, 0.13377948105335236, 0.0030941348522901535, -0.0029017748311161995, 0.9992665648460388, 0.6390489935874939, -1.3232307434082031, 0.030678387731313705, 0.0, 0.0, 0.0, 0, 0, 0, 0, 0, 0, 0.640689492225647, -1.32595956325531, 0.030765695497393608
13194, 0.01947784051299095, -0.13015416264533997, 0.11201103776693344, 0.15978221595287323, -0.0970054641366005, -0.16297036409378052, 0.00023509397578891367, -0.0019495858578011394, 0.999474287033081, 0.640689492225647, -1.32595956325531, 0.030765695497393608, 0.0, 0.0, 0.0, 0, 0, 0, 0, 0, 0, 0.6423342227935791, -1.328691005706787, 0.030852414667606354
13204, 0.018454859033226967, -0.13129542768001556, 0.11202377825975418, -0.1453033834695816, 0.25230008363723755, -0.0433027558028698, -0.0007486338727176189, -0.0037444839254021645, 1.0002540349960327, 0.6423342227935791, -1.328691005706787, 0.030852414667606354, 0.0, 0.0, 0.0, 0, 0, 0, 0, 0, 0, 0.643981397151947, -1.3314251899719238, 0.030939115211367607
13214, 0.01833345554769039, -0.1296156346797943, 0.112645223736763, 0.08119204640388489, -0.17903034389019012, -0.05631869286298752, 9.2425943876151e-06, -0.0016238548560068011, 0.9984604716300964, 0.643981397151947, -1.3314251899719238, 0.030939115211367607, 0.0, 0.0, 0.0, 0, 0, 0, 0, 0, 0, 0.6456304788589478, -1.3341624736785889, 0.031025588512420654
13224, 0.018399404361844063, -0.12908990681171417, 0.11375324428081512, 0.05966218188405037, -0.009669644758105278, 0.2129116654396057, 0.0026692452374845743, -0.003724877955392003, 1.0010241270065308, 0.6456304788589478, -1.3341624736785889, 0.031025588512420654, 0.0, 0.0, 0.0, 0, 0, 0, 0, 0, 0, 0.6472828388214111, -1.3369028568267822, 0.03111155331134796
13234, 0.018116194754838943, -0.13035209476947784, 0.11558526754379272, -0.04658994451165199, 0.2200145721435547, 0.4222692847251892, 0.002204117365181446, -0.003247013781219721, 0.9995055794715881, 0.6472828388214111, -1.3369028568267822, 0.03111155331134796, 0.0, 0.0, 0.0, 0, 0, 0, 0, 0, 0, 0.6489396095275879, -1.339646816253662, 0.031197596341371536
13244, 0.01810799352824688, -0.13190487027168274, 0.11555158346891403, 0.018837498500943184, 0.37413206696510315, 0.1056157797574997, 0.0018155602738261223, -0.00045938885887153447, 1.001345157623291, 0.6489396095275879, -1.339646816253662, 0.031197596341371536, 0.0, 0.0, 0.0, 0, 0, 0, 0, 0, 0, 0.6506005525588989, -1.342393398284912, 0.031284164637327194
13254, 0.01821952313184738, -0.13065451383590698, 0.11461436748504639, 0.05712701007723808, 0.023522039875388145, -0.0814276784658432, -1.5098247786227148e-05, -0.002018129685893655, 1.0000834465026855, 0.6506005525588989, -1.342393398284912, 0.031284164637327194, 0.0, 0.0, 0.0, 0, 0, 0, 0, 0, 0, 0.6522651314735413, -1.3451414108276367, 0.03137144446372986
13264, 0.019190991297364235, -0.13187019526958466, 0.11576411128044128, 0.12688744068145752, -0.050153568387031555, 0.2125999629497528, -0.0019412686815485358, -0.0019904840737581253, 0.9998872876167297, 0.6522651314735413, -1.3451414108276367, 0.03137144446372986, 0.0, 0.0, 0.0, 0, 0, 0, 0, 0, 0, 0.6539317965507507, -1.3478912115097046, 0.03145880997180939
13274, 0.018427468836307526, -0.1302991807460785, 0.11651361733675003, -0.0784374251961708, -0.14490348100662231, 0.09467123448848724, -0.000984217505902052, -0.00228212121874094, 0.9994161128997803, 0.6539317965507507, -1.3478912115097046, 0.03145880997180939, 0.0, 0.0, 0.0, 0, 0, 0, 0, 0, 0, 0.6555991172790527, -1.350643515586853, 0.03154600039124489
13284, 0.018628988415002823, -0.12815053761005402, 0.11477330327033997, 0.01317950151860714, -0.13986894488334656, -0.18092702329158783, 0.0011769573902711272, -0.0015912626404315233, 1.0007134675979614, 0.6555991172790527, -1.350643515586853, 0.03154600039124489, 0.0, 0.0, 0.0, 0, 0, 0, 0, 0, 0, 0.657268226146698, -1.353398323059082, 0.03163309767842293
13294, 0.018497513607144356, -0.126646488904953, 0.1134079322218895, -0.07523667812347412, 0.03157658129930496, -0.18329323828220367, 0.0009303347324021161, -0.0038032522425055504, 1.0004310607910156, 0.657268226146698, -1.353398323059082, 0.03163309767842293, 0.0, 0.0, 0.0, 0, 0, 0, 0, 0, 0, 0.6589405536651611, -1.3561558723449707, 0.03172079846262932
13304, 0.018424713984131813, -0.12725405395030975, 0.11278023570775986, 0.07924395799636841, 0.18895189464092255, -0.05975781008601189, -0.0013353830436244607, -0.0014416719786822796, 0.9992838501930237, 0.6589405536651611, -1.3561558723449707, 0.03172079846262932, 0.0, 0.0, 0.0, 0, 0, 0, 0, 0, 0, 0.6606152057647705, -1.3589166402816772, 0.031809158623218536
13314, 0.018702557310461998, -0.12761400640010834, 0.11343108117580414, 0.007922369055449963, 0.005200558342039585, -0.0754062682390213, 0.0004882591019850224, -0.00024150550598278642, 0.9984607100486755, 0.6606152057647705, -1.3589166402816772, 0.031809158623218536, 0.0, 0.0, 0.0, 0, 0, 0, 0, 0, 0, 0.6622911691665649, -1.3616794347763062, 0.031896594911813736
13324, 0.02027098275721073, -0.1253662109375, 0.11396685987710953, 0.2395801544189453, -0.2596270442008972, 0.13507536053657532, 0.002296870807185769, -0.003456100355833769, 1.0012578964233398, 0.6622911691665649, -1.3616794347763062, 0.031896594911813736, 0.0, 0.0, 0.0, 0, 0, 0, 0, 0, 0, 0.663969874382019, -1.3644438982009888, 0.031983524560928345
13334, 0.020414166152477264, -0.12489169836044312, 0.11407249420881271, -0.058986399322748184, 0.11142735183238983, -0.06209983676671982, 0.0001522459788247943, -0.0028791381046175957, 1.0001252889633179, 0.663969874382019, -1.3644438982009888, 0.031983524560928345, 0.0, 0.0, 0.0, 0, 0, 0, 0, 0, 0, 0.6658204793930054, -1.3674883842468262, 0.032079555094242096
13344, 0.020081061869859695, -0.12562783062458038, 0.11501459032297134, -0.045643195509910583, 0.11904649436473846, 0.24659180641174316, 0.0005795031320303679, -0.002243700670078397, 1.0005688667297363, 0.6658204793930054, -1.3674883842468262, 0.032079555094242096, 0.0, 0.0, 0.0, 0, 0, 0, 0, 0, 0, 0.66750568151474, -1.3702595233917236, 0.03216716647148132
13354, 0.020078834146261215, -0.12486489862203598, 0.11459385603666306, 0.17945726215839386, -0.17729786038398743, 0.1150403544306755, 0.0008007647702470422, -0.0010929659474641085, 1.0014208555221558, 0.66750568151474, -1.3702595233917236, 0.03216716647148132, 0.0, 0.0, 0.0, 0, 0, 0, 0, 0, 0, 0.66750568151474, -1.3702595233917236, 0.03216716647148132
13364, 0.01982256770133972, -0.12557671964168549, 0.11487750709056854, 0.03792387619614601, 0.04540374502539635, 0.04322442784905434, 0.00014536285016220063, -0.0033595291897654533, 0.9994515180587769, 0.6693625450134277, -1.3733103275299072, 0.032264549285173416, 0.0, 0.0, 0.0, 0, 0, 0, 0, 0, 0, 0.6693625450134277, -1.3733103275299072, 0.032264549285173416
13374, 0.02026345580816269, -0.12518064677715302, 0.11469382792711258, 0.15832285583019257, -0.05129565671086311, 0.22360998392105103, -0.00043612747685983777, -0.000961278798058629, 1.000483512878418, 0.671053409576416, -1.3760861158370972, 0.032353486865758896, 0.0, 0.0, 0.0, 0, 0, 0, 0, 0, 0, 0.671053409576416, -1.3760861158370972, 0.032353486865758896
13384, 0.018380992114543915, -0.1269027292728424, 0.11376681178808212, -0.24258242547512054, 0.1882348656654358, 0.03516126424074173, 0.0010413165437057614, -0.0010045603848993778, 0.9994292259216309, 0.6727462410926819, -1.3788644075393677, 0.03244243562221527, 0.0, 0.0, 0.0, 0, 0, 0, 0, 0, 0, 0.6727462410926819, -1.3788644075393677, 0.03244243562221527
13394, 0.018390310928225517, -0.12380317598581314, 0.11359543353319168, -0.01061984058469534, -0.4809652268886566, 0.04963885247707367, 0.0017760758055374026, -0.003634699387475848, 0.9994358420372009, 0.674441397190094, -1.381644368171692, 0.03253140673041344, 0.0, 0.0, 0.0, 0, 0, 0, 0, 0, 0, 0.674441397190094, -1.381644368171692, 0.03253140673041344
13404, 0.018934035673737526, -0.12245069444179535, 0.11262499541044235, 0.05380989611148834, -0.2583323121070862, -0.13670864701271057, -0.000562036584597081, -0.0035451804287731647, 0.9991974830627441, 0.6761398911476135, -1.3844269514083862, 0.032619915902614594, 0.0, 0.0, 0.0, 0, 0, 0, 0, 0, 0, 0.6761398911476135, -1.3844269514083862, 0.032619915902614594
13414, 0.01835424080491066, -0.12323508411645889, 0.11304681748151779, 0.02579919807612896, -0.08940707892179489, 0.07833617925643921, -0.0003015392576344311, -0.002080893376842141, 0.9994930624961853, 0.6778411269187927, -1.387213110923767, 0.03270783647894859, 0.0, 0.0, 0.0, 0, 0, 0, 0, 0, 0, 0.6778411269187927, -1.387213110923767, 0.03270783647894859
13424, 0.018854500725865364, -0.12454793602228165, 0.11156284809112549, 0.11160226911306381, 0.2142724245786667, -0.1260281354188919, 0.0010397833539173007, -0.00010469234985066578, 0.9992377161979675, 0.6795442700386047, -1.3900023698806763, 0.03279513493180275, 0.0, 0.0, 0.0, 0, 0, 0, 0, 0, 0, 0.6795442700386047, -1.3900023698806763, 0.03279513493180275
13434, 0.01916833035647869, -0.1255553811788559, 0.11193034797906876, 0.03675215691328049, 0.10707554221153259, 0.07449891418218613, 0.0008815337205305696, -0.0017671444220468402, 0.9985881447792053, 0.6812498569488525, -1.3927932977676392, 0.0328817144036293, 0.0, 0.0, 0.0, 0, 0, 0, 0, 0, 0, 0.6812498569488525, -1.3927932977676392, 0.0328817144036293
13444, 0.018994754180312157, -0.12254420667886734, 0.11115411669015884, 0.043949950486421585, -0.31309133768081665, -0.12041960656642914, 0.0017387409461662173, -0.003568683983758092, 0.9977865219116211, 0.6829584836959839, -1.3955857753753662, 0.032967109233140945, 0.0, 0.0, 0.0, 0, 0, 0, 0, 0, 0, 0.6829584836959839, -1.3955857753753662, 0.032967109233140945
13454, 0.018456153571605682, -0.12195237725973129, 0.11198882758617401, -0.07059144228696823, 0.06510363519191742, 0.038282811641693115, 0.0006218580529093742, -0.0027433119248598814, 0.9981799125671387, 0.6846704483032227, -1.398381233215332, 0.03305070847272873, 0.0, 0.0, 0.0, 0, 0, 0, 0, 0, 0, 0.6846704483032227, -1.398381233215332, 0.03305070847272873
13464, 0.01833416521549225, -0.12302044034004211, 0.11175759136676788, -0.04692481458187103, 0.13588616251945496, 0.040058061480522156, 0.00038802079507149756, -0.0030853606294840574, 0.997955858707428, 0.6863856315612793, -1.4011802673339844, 0.03313232213258743, 0.0, 0.0, 0.0, 0, 0, 0, 0, 0, 0, 0.6863856315612793, -1.4011802673339844, 0.03313232213258743
13474, 0.018273530527949333, -0.12358421087265015, 0.11210300773382187, -0.014410620555281639, -0.05226629599928856, 0.03417472168803215, 0.0013313813833519816, -0.0007058600313030183, 0.9999862313270569, 0.6881034970283508, -1.403982400894165, 0.03321196511387825, 0.0, 0.0, 0.0, 0, 0, 0, 0, 0, 0, 0.6881034970283508, -1.403982400894165, 0.03321196511387825
13484, 0.018129713833332062, -0.12211799621582031, 0.11179547011852264, 0.003570341970771551, -0.2376064658164978, -0.059793729335069656, 0.0006807006429880857, -0.0011320840567350388, 1.001836895942688, 0.6898244023323059, -1.4067867994308472, 0.03329058364033699, 0.0, 0.0, 0.0, 0, 0, 0, 0, 0, 0, 0.6898244023323059, -1.4067867994308472, 0.03329058364033699
13494, 0.017448827624320984, -0.12257256358861923, 0.11056829988956451, -0.05568902567028999, 0.15141956508159637, -0.07975679636001587, -0.0017968794563785195, -5.3753879910800606e-05, 0.9976311922073364, 0.6915484070777893, -1.409592628479004, 0.03336993232369423, 0.0, 0.0, 0.0, 0, 0, 0, 0, 0, 0, 0.6915484070777893, -1.409592628479004, 0.03336993232369423
13504, 0.01812601648271084, -0.12189947068691254, 0.11116217076778412, 0.009919144213199615, -0.04395270720124245, 0.07840500771999359, -0.0006763836136087775, -0.0018649582052603364, 0.997641384601593, 0.6932740211486816, -1.4123992919921875, 0.03344913199543953, 0.0, 0.0, 0.0, 0, 0, 0, 0, 0, 0, 0.6932740211486816, -1.4123992919921875, 0.03344913199543953
13514, 0.018060799688100815, -0.12296103686094284, 0.1121034324169159, -0.06269251555204391, 0.06174900755286217, 0.09837384521961212, 0.00016016919107642025, -0.0029786040540784597, 0.9990280270576477, 0.6950005292892456, -1.4152072668075562, 0.033526428043842316, 0.0, 0.0, 0.0, 0, 0, 0, 0, 0, 0, 0.6950005292892456, -1.4152072668075562, 0.033526428043842316
13524, 0.01822395622730255, -0.12231633812189102, 0.11232760548591614, 0.038725946098566055, -0.05772889405488968, 0.07955347746610641, 0.0017487411387264729, -0.001427440787665546, 0.9990346431732178, 0.6967288851737976, -1.418017864227295, 0.033602043986320496, 0.0, 0.0, 0.0, 0, 0, 0, 0, 0, 0, 0.6967288851737976, -1.418017864227295, 0.033602043986320496
13534, 0.017748568207025528, -0.12186102569103241, 0.1118655726313591, -0.15975762903690338, -0.08123765885829926, 0.040683139115571976, 0.0004110201552975923, -0.0008401221712119877, 0.9985374212265015, 0.6984601616859436, -1.4208312034606934, 0.033676546066999435, 0.0, 0.0, 0.0, 0, 0, 0, 0, 0, 0, 0.6984601616859436, -1.4208312034606934, 0.033676546066999435
13544, 0.018772974610328674, -0.12030527740716934, 0.11160271614789963, 0.1144375205039978, -0.17751820385456085, 0.06582385301589966, 0.0006731529138050973, -0.002473907545208931, 1.0003691911697388, 0.7001945376396179, -1.4236462116241455, 0.03374983370304108, 0.0, 0.0, 0.0, 0, 0, 0, 0, 0, 0, 0.7001945376396179, -1.4236462116241455, 0.03374983370304108
13554, 0.01899261586368084, -0.11991506069898605, 0.11305137723684311, 0.13430532813072205, -0.03584938123822212, 0.16212686896324158, 8.654942212160677e-05, -0.00443637277930975, 1.0018937587738037, 0.7019315361976624, -1.4264631271362305, 0.03382259979844093, 0.0, 0.0, 0.0, 0, 0, 0, 0, 0, 0, 0.7019315361976624, -1.4264631271362305, 0.03382259979844093
13564, 0.018839184194803238, -0.11843695491552353, 0.11238240450620651, 0.10878220200538635, -0.2930053472518921, -0.13252884149551392, 0.0005553363589569926, -0.002845056587830186, 1.0004189014434814, 0.7036709189414978, -1.429283618927002, 0.03389647230505943, 0.0, 0.0, 0.0, 0, 0, 0, 0, 0, 0, 0.7036709189414978, -1.429283618927002, 0.03389647230505943
13574, 0.019727613776922226, -0.11813229322433472, 0.11247454583644867, 0.13800355792045593, -0.06579466164112091, -0.03175695613026619, -0.001425148919224739, -0.0006214568857103586, 1.0004788637161255, 0.7054126858711243, -1.4321078062057495, 0.03397146239876747, 0.0, 0.0, 0.0, 0, 0, 0, 0, 0, 0, 0.7054126858711243, -1.4321078062057495, 0.03397146239876747
13584, 0.019938025623559952, -0.11694866418838501, 0.11270128935575485, -0.13023370504379272, -0.12464682757854462, 0.01916147582232952, 0.0009432106162421405, -0.0024299633223563433, 0.999276876449585, 0.7071561813354492, -1.434934139251709, 0.034047048538923264, 0.0, 0.0, 0.0, 0, 0, 0, 0, 0, 0, 0.7071561813354492, -1.434934139251709, 0.034047048538923264
13594, 0.02031582221388817, -0.11694087833166122, 0.1128249540925026, -0.06680526584386826, -0.0012632650323212147, -0.06459236145019531, 3.81690297217574e-05, -0.0013267199974507093, 0.9983853101730347, 0.7089014649391174, -1.4377623796463013, 0.03412284702062607, 0.0, 0.0, 0.0, 0, 0, 0, 0, 0, 0, 0.7089014649391174, -1.4377623796463013, 0.03412284702062607
13604, 0.020776823163032532, -0.11836475878953934, 0.11357751488685608, 0.01951247826218605, 0.01827062852680683, -0.08936119079589844, 0.0003644257958512753, -0.0010432492708787322, 1.00138521194458, 0.7106491327285767, -1.440592885017395, 0.03419780358672142, 0.0, 0.0, 0.0, 0, 0, 0, 0, 0, 0, 0.7106491327285767, -1.440592885017395, 0.03419780358672142
13614, 0.021248232573270798, -0.11871752887964249, 0.11450628936290741, 0.06866391003131866, -0.004511010367423296, 0.1538134515285492, 0.0010950827272608876, -0.0011041185352951288, 1.0012441873550415, 0.7123990654945374, -1.443424940109253, 0.034272532910108566, 0.0, 0.0, 0.0, 0, 0, 0, 0, 0, 0, 0.7123990654945374, -1.443424940109253, 0.034272532910108566
13624, 0.020636875182390213, -0.12049050629138947, 0.1153298169374466, -0.0954185351729393, 0.03911841660737991, 0.11858803033828735, 0.0014332245336845517, -0.004634249024093151, 1.0006725788116455, 0.7141516804695129, -1.446258306503296, 0.03434829041361809, 0.0, 0.0, 0.0, 0, 0, 0, 0, 0, 0, 0.7141516804695129, -1.446258306503296, 0.03434829041361809
13634, 0.02048753947019577, -0.11883755773305893, 0.11462656408548355, -0.04678246006369591, -0.36417409777641296, -0.0776747539639473, -0.0002940226695500314, -0.0035931335296481848, 1.0006425380706787, 0.7159074544906616, -1.4490946531295776, 0.034424956887960434, 0.0, 0.0, 0.0, 0, 0, 0, 0, 0, 0, 0.7159074544906616, -1.4490946531295776, 0.034424956887960434
13644, 0.02047603949904442, -0.11744359880685806, 0.11427579820156097, -0.051927778869867325, -0.10061153769493103, -0.029847079887986183, -0.00020204292377457023, -0.0012690958101302385, 0.998847484588623, 0.7176658511161804, -1.4519352912902832, 0.034502193331718445, 0.0, 0.0, 0.0, 0, 0, 0, 0, 0, 0, 0.7176658511161804, -1.4519352912902832, 0.034502193331718445
13654, 0.02047257125377655, -0.11755961924791336, 0.11286397278308868, 0.07018011808395386, 0.13073459267616272, -0.23630334436893463, -0.0014608699129894376, -0.00301200314424932, 1.0003681182861328, 0.7194259762763977, -1.4547789096832275, 0.03457917273044586, 0.0, 0.0, 0.0, 0, 0, 0, 0, 0, 0, 0.7194259762763977, -1.4547789096832275, 0.03457917273044586
13664, 0.019849743694067, -0.11630924046039581, 0.11351580172777176, 0.009910278022289276, -0.1358029842376709, 0.16592459380626678, 0.0005988757475279272, -0.001982748042792082, 0.9996786713600159, 0.721187174320221, -1.4576250314712524, 0.03465570881962776, 0.0, 0.0, 0.0, 0, 0, 0, 0, 0, 0, 0.721187174320221, -1.4576250314712524, 0.03465570881962776
13674, 0.019734468311071396, -0.11459912359714508, 0.11248676478862762, 0.04508500173687935, -0.24853721261024475, -0.38620075583457947, 0.0016082364600151777, -0.001429170835763216, 1.001404047012329, 0.7229499220848083, -1.4604737758636475, 0.03473224863409996, 0.0, 0.0, 0.0, 0, 0, 0, 0, 0, 0, 0.7229499220848083, -1.4604737758636475, 0.03473224863409996
13684, 0.02029762603342533, -0.11324713379144669, 0.11271029710769653, 0.1145390197634697, -0.21577075123786926, 0.05618995800614357, 0.0009051996166817844, -0.001392005942761898, 0.9993743300437927, 0.7247157096862793, -1.463324785232544, 0.03480926528573036, 0.0, 0.0, 0.0, 0, 0, 0, 0, 0, 0, 0.7247157096862793, -1.463324785232544, 0.03480926528573036
13694, 0.020061956718564034, -0.11303667724132538, 0.11164270341396332, 0.017048418521881104, 0.1018015444278717, -0.06609150767326355, -0.0004039510968141258, -0.0027360226958990097, 0.9983320832252502, 0.7264848351478577, -1.4661777019500732, 0.034886423498392105, 0.0, 0.0, 0.0, 0, 0, 0, 0, 0, 0, 0.7264848351478577, -1.4661777019500732, 0.034886423498392105
13704, 0.02027958631515503, -0.1112380176782608, 0.11091388016939163, 0.08775460720062256, -0.2692064046859741, -0.14196300506591797, 0.00059018429601565, -0.00496070459485054, 0.999951958656311, 0.7282564640045166, -1.469033122062683, 0.034962356090545654, 0.0, 0.0, 0.0, 0, 0, 0, 0, 0, 0, 0.7282564640045166, -1.469033122062683, 0.034962356090545654
13714, 0.020264647901058197, -0.1117875948548317, 0.11151202023029327, 0.05045980587601662, 0.061065007001161575, 0.16067640483379364, 0.0001813753042370081, -0.0011120912386104465, 1.0004498958587646, 0.7300302982330322, -1.4718923568725586, 0.03503730893135071, 0.0, 0.0, 0.0, 0, 0, 0, 0, 0, 0, 0.7300302982330322, -1.4718923568725586, 0.03503730893135071
13724, 0.019839327782392502, -0.11192110180854797, 0.11218643933534622, 0.03148125112056732, -0.058729130774736404, 0.0662190392613411, 0.0012857404071837664, -0.0011958371615037322, 0.9999833703041077, 0.7318064570426941, -1.474755048751831, 0.03511239215731621, 0.0, 0.0, 0.0, 0, 0, 0, 0, 0, 0, 0.7318064570426941, -1.474755048751831, 0.03511239215731621
13734, 0.020536689087748528, -0.11323363333940506, 0.11175036430358887, 0.15272030234336853, 0.3441621959209442, -0.008678622543811798, 0.0017231283709406853, -0.003773742588236928, 0.9988970756530762, 0.7335853576660156, -1.4776196479797363, 0.035187844187021255, 0.0, 0.0, 0.0, 0, 0, 0, 0, 0, 0, 0.7335853576660156, -1.4776196479797363, 0.035187844187021255
13744, 0.02131466381251812, -0.11176958680152893, 0.11162818968296051, 0.15060795843601227, -0.14706873893737793, -0.016073284670710564, -0.0010123391402885318, -0.0033280185889452696, 0.9975486397743225, 0.7353676557540894, -1.4804868698120117, 0.035263046622276306, 0.0, 0.0, 0.0, 0, 0, 0, 0, 0, 0, 0.7353676557540894, -1.4804868698120117, 0.035263046622276306
13754, 0.02131469175219536, -0.11071790754795074, 0.11039529740810394, 0.029371274635195732, -0.20681826770305634, -0.2809848189353943, 0.0020548009779304266, -0.0030887380708009005, 0.9990269541740417, 0.7371523976325989, -1.4833577871322632, 0.035336751490831375, 0.0, 0.0, 0.0, 0, 0, 0, 0, 0, 0, 0.7371523976325989, -1.4833577871322632, 0.035336751490831375
13764, 0.021663261577486992, -0.11082377284765244, 0.11285830289125443, 0.05705457925796509, 0.0816269963979721, 0.29449257254600525, 0.004055757541209459, -0.001662830589339137, 0.9986422061920166, 0.738939642906189, -1.4862322807312012, 0.03540869802236557, 0.0, 0.0, 0.0, 0, 0, 0, 0, 0, 0, 0.738939642906189, -1.4862322807312012, 0.03540869802236557
13774, 0.02108348160982132, -0.10979147255420685, 0.11164998263120651, -0.09206728637218475, -0.2632431387901306, -0.289670467376709, 0.00021900577121414244, -0.002666030079126358, 0.9987691044807434, 0.7407314777374268, -1.4891095161437988, 0.03547938913106918, 0.0, 0.0, 0.0, 0, 0, 0, 0, 0, 0, 0.7407314777374268, -1.4891095161437988, 0.03547938913106918
13784, 0.020621463656425476, -0.11039923876523972, 0.11152666807174683, -0.007010266184806824, 0.2613610029220581, 0.12037625908851624, -0.0008305248920805752, -0.0021381897386163473, 1.0003737211227417, 0.7425273656845093, -1.491989254951477, 0.035548996180295944, 0.0, 0.0, 0.0, 0, 0, 0, 0, 0, 0, 0.7425273656845093, -1.491989254951477, 0.035548996180295944
13794, 0.01930133067071438, -0.11051106452941895, 0.11075779795646667, -0.13885259628295898, 0.16114935278892517, 0.0002702478086575866, -0.0009486267226748168, -0.0018194172298535705, 0.9983153939247131, 0.7443251013755798, -1.4948716163635254, 0.035618171095848083, 0.0, 0.0, 0.0, 0, 0, 0, 0, 0, 0, 0.7443251013755798, -1.4948716163635254, 0.035618171095848083
13804, 0.02072455734014511, -0.10950526595115662, 0.11075322329998016, 0.2802708148956299, -0.19602595269680023, 0.15557871758937836, 0.00011765550152631477, -0.0008769586565904319, 0.998760461807251, 0.7461239099502563, -1.4977562427520752, 0.03568660095334053, 0.0, 0.0, 0.0, 0, 0, 0, 0, 0, 0, 0.7461239099502563, -1.4977562427520752, 0.03568660095334053
13814, 0.021292133256793022, -0.10816484689712524, 0.11042815446853638, 0.061309512704610825, -0.11724919080734253, -0.008691003546118736, -0.00070033228257671, -0.0019137145718559623, 1.0001906156539917, 0.7479240894317627, -1.5006425380706787, 0.035753633826971054, 0.0, 0.0, 0.0, 0, 0, 0, 0, 0, 0, 0.7479240894317627, -1.5006425380706787, 0.035753633826971054
13824, 0.02182825468480587, -0.10731668770313263, 0.11028745770454407, 0.061402201652526855, -0.02658991515636444, 0.1757618933916092, -0.0002443270932417363, -0.0002846053394023329, 1.000807523727417, 0.749725878238678, -1.5035306215286255, 0.03582002967596054, 0.0, 0.0, 0.0, 0, 0, 0, 0, 0, 0, 0.749725878238678, -1.5035306215286255, 0.03582002967596054
13834, 0.0211676936596632, -0.10643094033002853, 0.109357550740242, -0.04822264239192009, -0.1305442452430725, -0.10408636927604675, 0.0007692779181525111, -0.0004601329274009913, 0.9987249970436096, 0.7515291571617126, -1.5064201354980469, 0.03588665649294853, 0.0, 0.0, 0.0, 0, 0, 0, 0, 0, 0, 0.7515291571617126, -1.5064201354980469, 0.03588665649294853
13844, 0.0209323950111866, -0.10588350892066956, 0.10832542181015015, -0.012771019712090492, -0.03672497346997261, -0.23821036517620087, -0.0009760026587173343, -0.0024743371177464724, 0.9998257160186768, 0.7533345818519592, -1.5093106031417847, 0.035952985286712646, 0.0, 0.0, 0.0, 0, 0, 0, 0, 0, 0, 0.7533345818519592, -1.5093106031417847, 0.035952985286712646
13854, 0.021314553916454315, -0.10637875646352768, 0.10743647813796997, 0.0598449669778347, 0.06107311695814133, -0.24625928699970245, -0.0002343840169487521, -0.0011949884938076138, 1.0010874271392822, 0.7551419734954834, -1.5122028589248657, 0.03601863980293274, 0.0, 0.0, 0.0, 0, 0, 0, 0, 0, 0, 0.7551419734954834, -1.5122028589248657, 0.03601863980293274
13864, 0.02059926651418209, -0.10556101053953171, 0.10688096284866333, -0.03205842524766922, -0.200271874666214, 0.11756215244531631, -0.0018194613512605429, 3.6367284337757155e-05, 1.0003248453140259, 0.756950855255127, -1.5150971412658691, 0.0360846146941185, 0.0, 0.0, 0.0, 0, 0, 0, 0, 0, 0, 0.756950855255127, -1.5150971412658691, 0.0360846146941185
13874, 0.020692354068160057, -0.10522685945034027, 0.10628397762775421, 0.0932064801454544, -0.08498574793338776, 0.024309072643518448, -0.0007597634685225785, -0.0012921645538881421, 1.0014399290084839, 0.7587606310844421, -1.517992377281189, 0.03615126386284828, 0.0, 0.0, 0.0, 0, 0, 0, 0, 0, 0, 0.7587606310844421, -1.517992377281189, 0.03615126386284828
13884, 0.020738882943987846, -0.10512574017047882, 0.10639288276433945, -0.015116216614842415, 0.10361798852682114, -0.05032426863908768, 0.00019845606584567577, -0.0018212896538898349, 0.9997963309288025, 0.7605708837509155, -1.5208888053894043, 0.036218833178281784, 0.0, 0.0, 0.0, 0, 0, 0, 0, 0, 0, 0.7605708837509155, -1.5208888053894043, 0.036218833178281784
13894, 0.020911797881126404, -0.1038709506392479, 0.10655421018600464, -0.021805619820952415, -0.11561114341020584, 0.0065935528837144375, -0.0005977899418212473, -0.0016033080173656344, 0.9996824264526367, 0.7623825073242188, -1.5237871408462524, 0.036287080496549606, 0.0, 0.0, 0.0, 0, 0, 0, 0, 0, 0, 0.7623825073242188, -1.5237871408462524, 0.036287080496549606
13904, 0.021244019269943237, -0.1027296781539917, 0.10723061859607697, -0.02094326913356781, -0.16070044040679932, 0.0010264450684189796, -0.0008568945340812206, -0.000656735384836793, 1.0002639293670654, 0.7641957998275757, -1.5266873836517334, 0.0363551564514637, 0.0, 0.0, 0.0, 0, 0, 0, 0, 0, 0, 0.7641957998275757, -1.5266873836517334, 0.0363551564514637
13914, 0.02170133963227272, -0.10407621413469315, 0.10888189822435379, 0.025766190141439438, 0.1573120802640915, 0.24750088155269623, 0.0022019369062036276, -0.001999189844354987, 1.0004931688308716, 0.7660102844238281, -1.529589295387268, 0.03642313927412033, 0.0, 0.0, 0.0, 0, 0, 0, 0, 0, 0, 0.7660102844238281, -1.529589295387268, 0.03642313927412033
13924, 0.02209574170410633, -0.10196976363658905, 0.10853977501392365, -0.1197848916053772, -0.24775563180446625, -0.1555822193622589, 0.0009629944688640535, -0.00453779473900795, 0.9993537068367004, 0.7678270936012268, -1.5324931144714355, 0.03649130463600159, 0.0, 0.0, 0.0, 0, 0, 0, 0, 0, 0, 0.7678270936012268, -1.5324931144714355, 0.03649130463600159
13934, 0.02183728665113449, -0.1012854054570198, 0.10890379548072815, -0.12398386746644974, -0.007374536711722612, 0.03082997351884842, -0.001353525323793292, -0.004001596011221409, 0.9999027848243713, 0.7696471214294434, -1.535400390625, 0.03655937314033508, 0.0, 0.0, 0.0, 0, 0, 0, 0, 0, 0, 0.7696471214294434, -1.535400390625, 0.03655937314033508
13944, 0.022306818515062332, -0.10005149245262146, 0.10967356711626053, 0.02403201162815094, -0.14717301726341248, -0.007974185049533844, 0.00043058855226263404, -0.004068503621965647, 0.9995739459991455, 0.7714689373970032, -1.5383121967315674, 0.03662712499499321, 0.0, 0.0, 0.0, 0, 0, 0, 0, 0, 0, 0.7714689373970032, -1.5383121967315674, 0.03662712499499321
13954, 0.022058997303247452, -0.09961201995611191, 0.10939808934926987, -0.09935504198074341, -0.017055150121450424, -0.06341072171926498, 0.0025744002778083086, -0.003331214189529419, 1.00055992603302, 0.7732921242713928, -1.5412284135818481, 0.036694590002298355, 0.0, 0.0, 0.0, 0, 0, 0, 0, 0, 0, 0.7732921242713928, -1.5412284135818481, 0.036694590002298355
13964, 0.023128090426325798, -0.10027194768190384, 0.10927886515855789, 0.0870383083820343, 0.10437966138124466, 0.018676146864891052, 0.00025726648163981736, -0.0002873933408409357, 0.999900221824646, 0.775118350982666, -1.544148564338684, 0.0367620512843132, 0.0, 0.0, 0.0, 0, 0, 0, 0, 0, 0, 0.775118350982666, -1.544148564338684, 0.0367620512843132
13974, 0.02215294912457466, -0.10198922455310822, 0.1087367981672287, -0.12626531720161438, 0.3223474621772766, 0.047739677131175995, -0.00038721217424608767, -0.0018336230423301458, 1.001540184020996, 0.776947557926178, -1.5470709800720215, 0.0368296280503273, 0.0, 0.0, 0.0, 0, 0, 0, 0, 0, 0, 0.776947557926178, -1.5470709800720215, 0.0368296280503273
13984, 0.022596489638090134, -0.1018129512667656, 0.10853812098503113, 0.07462178170681, -0.07003608345985413, -0.0033248874824494123, 0.0009215836762450635, -0.003014700021594763, 1.0006753206253052, 0.7787784337997437, -1.5499950647354126, 0.03689781203866005, 0.0, 0.0, 0.0, 0, 0, 0, 0, 0, 0, 0.7787784337997437, -1.5499950647354126, 0.03689781203866005
13994, 0.0217796228826046, -0.1016039028763771, 0.10822871327400208, -0.2314373254776001, 0.030766727402806282, -0.19386282563209534, 0.0010962275555357337, -0.001874767360277474, 1.0005700588226318, 0.7806112170219421, -1.5529218912124634, 0.03696701303124428, 0.0, 0.0, 0.0, 0, 0, 0, 0, 0, 0, 0.7806112170219421, -1.5529218912124634, 0.03696701303124428
14004, 0.021750951185822487, -0.10305766761302948, 0.10769261419773102, 0.009962033480405807, 0.28047066926956177, -0.19487214088439941, 0.000493867788463831, -0.0019420238677412271, 1.0010665655136108, 0.7824469208717346, -1.5558514595031738, 0.03703685104846954, 0.0, 0.0, 0.0, 0, 0, 0, 0, 0, 0, 0.7824469208717346, -1.5558514595031738, 0.03703685104846954
14014, 0.02141721174120903, -0.10353946685791016, 0.10717874020338058, 0.02551850862801075, 0.11929219961166382, -0.10253940522670746, 0.0019681008998304605, -0.0014377626357600093, 0.9999281167984009, 0.7842854857444763, -1.5587834119796753, 0.03710739314556122, 0.0, 0.0, 0.0, 0, 0, 0, 0, 0, 0, 0.7842854857444763, -1.5587834119796753, 0.03710739314556122
14024, 0.021368948742747307, -0.10447274893522263, 0.10758981108665466, 0.07152071595191956, 0.07203669846057892, 0.059022206813097, -0.00019854912534356117, -0.0018058072309941053, 1.0005161762237549, 0.786126971244812, -1.5617176294326782, 0.0371784009039402, 0.0, 0.0, 0.0, 0, 0, 0, 0, 0, 0, 0.786126971244812, -1.5617176294326782, 0.0371784009039402
14034, 0.021294621750712395, -0.10410137474536896, 0.10703962296247482, 0.02338632009923458, -0.08485127240419388, 0.004972388967871666, 0.00046442411257885396, -0.003170263720676303, 1.001082420349121, 0.7879709005355835, -1.564653992652893, 0.03724966198205948, 0.0, 0.0, 0.0, 0, 0, 0, 0, 0, 0, 0.7879709005355835, -1.564653992652893, 0.03724966198205948
14044, 0.020530030131340027, -0.10548467934131622, 0.10780325531959534, -0.08195143193006516, 0.12780208885669708, 0.17071019113063812, 0.001955710118636489, -0.005706738214939833, 1.001607060432434, 0.7898167967796326, -1.5675930976867676, 0.037321604788303375, 0.0, 0.0, 0.0, 0, 0, 0, 0, 0, 0, 0.7898167967796326, -1.5675930976867676, 0.037321604788303375
14054, 0.02066046930849552, -0.10594654083251953, 0.10947210341691971, -0.05403974652290344, -0.03208645433187485, 0.15761630237102509, 0.0002531026257202029, -0.002896041376516223, 1.0031132698059082, 0.7916653156280518, -1.5705366134643555, 0.037394702434539795, 0.0, 0.0, 0.0, 0, 0, 0, 0, 0, 0, 0.7916653156280518, -1.5705366134643555, 0.037394702434539795
14064, 0.020822033286094666, -0.1072731539607048, 0.10841121524572372, 0.00686636520549655, 0.2526702880859375, -0.06447485834360123, -0.0016978771891444921, -0.0034015807323157787, 0.9999935626983643, 0.7935166358947754, -1.5734848976135254, 0.03746989741921425, 0.0, 0.0, 0.0, 0, 0, 0, 0, 0, 0, 0.7935166358947754, -1.5734848976135254, 0.03746989741921425
14074, 0.021137015894055367, -0.10810109227895737, 0.10902934521436691, 0.02820650115609169, 0.2961519658565521, -0.017363976687192917, -0.0022529801353812218, -0.0039828065782785416, 0.9997206330299377, 0.7953695058822632, -1.5764368772506714, 0.037546757608652115, 0.0, 0.0, 0.0, 0, 0, 0, 0, 0, 0, 0.7953695058822632, -1.5764368772506714, 0.037546757608652115
14084, 0.02145116589963436, -0.10734062641859055, 0.10779622197151184, -0.012227996252477169, -0.04201127216219902, -0.35037946701049805, 0.0008084421278908849, -0.004330059979110956, 0.9997946619987488, 0.7972224950790405, -1.5793927907943726, 0.03762377053499222, 0.0, 0.0, 0.0, 0, 0, 0, 0, 0, 0, 0.7972224950790405, -1.5793927907943726, 0.03762377053499222
14094, 0.021941857412457466, -0.10899150371551514, 0.1091647744178772, 0.03642824664711952, 0.10198593884706497, 0.14792589843273163, 0.000950617017224431, -0.004036820959299803, 1.001607060432434, 0.7990763187408447, -1.582353115081787, 0.03770061582326889, 0.0, 0.0, 0.0, 0, 0, 0, 0, 0, 0, 0.7990763187408447, -1.582353115081787, 0.03770061582326889
14104, 0.022724376991391182, -0.11016104370355606, 0.11001646518707275, 0.02668740041553974, 0.08813361078500748, 0.2232038974761963, -0.0004523370589595288, -0.0038744311314076185, 1.000763177871704, 0.8009325265884399, -1.585317850112915, 0.037777964025735855, 0.0, 0.0, 0.0, 0, 0, 0, 0, 0, 0, 0.8009325265884399, -1.585317850112915, 0.037777964025735855
14114, 0.0225108340382576, -0.11066466569900513, 0.10939056426286697, -0.098431795835495, 0.17535234987735748, 0.05793055146932602, -0.0005753979785367846, -0.004046755842864513, 1.0020755529403687, 0.8027907609939575, -1.5882868766784668, 0.0378563329577446, 0.0, 0.0, 0.0, 0, 0, 0, 0, 0, 0, 0.8027907609939575, -1.5882868766784668, 0.0378563329577446
14124, 0.021417710930109024, -0.11034375429153442, 0.10797397792339325, -0.1707877367734909, -0.01361625175923109, -0.16634537279605865, 0.00029680487932637334, -0.0009645301615819335, 1.0013219118118286, 0.8046502470970154, -1.5912599563598633, 0.03793603181838989, 0.0, 0.0, 0.0, 0, 0, 0, 0, 0, 0, 0.8046502470970154, -1.5912599563598633, 0.03793603181838989
14134, 0.02211151085793972, -0.11185303330421448, 0.10720577836036682, 0.11150426417589188, 0.16227230429649353, -0.05921711400151253, 0.0009259747457690537, -0.0016857122536748648, 1.0016534328460693, 0.806511402130127, -1.594235897064209, 0.03801748529076576, 0.0, 0.0, 0.0, 0, 0, 0, 0, 0, 0, 0.806511402130127, -1.594235897064209, 0.03801748529076576
14144, 0.021483151242136955, -0.11285138130187988, 0.1062423437833786, -0.08054782450199127, -0.0006811376078985631, -0.13552002608776093, 0.00046928596566431224, -0.003154497127979994, 0.9997107982635498, 0.8083750605583191, -1.597213864326477, 0.03810065984725952, 0.0, 0.0, 0.0, 0, 0, 0, 0, 0, 0, 0.8083750605583191, -1.597213864326477, 0.03810065984725952
14154, 0.02095099352300167, -0.11446678638458252, 0.10656754672527313, 0.05384235084056854, -0.0005891018663533032, -0.005260059610009193, 0.002500139409676194, -0.0035798910539597273, 0.9974933862686157, 0.8104280233383179, -1.6004925966262817, 0.03819316253066063, 0.0, 0.0, 0.0, 0, 0, 0, 0, 0, 0, 0.8104280233383179, -1.6004925966262817, 0.03819316253066063
14164, 0.02074432000517845, -0.11437646299600601, 0.10772150009870529, 0.04924922436475754, -0.14561378955841064, 0.18247458338737488, 0.001592000713571906, -0.0028259677346795797, 0.9994924664497375, 0.812484860420227, -1.6037755012512207, 0.038284461945295334, 0.0, 0.0, 0.0, 0, 0, 0, 0, 0, 0, 0.812484860420227, -1.6037755012512207, 0.038284461945295334
14174, 0.020783543586730957, -0.11522740870714188, 0.10628218203783035, 0.14858059585094452, 0.13545510172843933, -0.018485596403479576, 0.0010111763840541244, -0.0009696542983874679, 0.999846339225769, 0.8143587708473206, -1.606763482093811, 0.038365986198186874, 0.0, 0.0, 0.0, 0, 0, 0, 0, 0, 0, 0.8143587708473206, -1.606763482093811, 0.038365986198186874
14184, 0.021141739562153816, -0.11340626329183578, 0.10650371760129929, 0.06999596953392029, -0.15515339374542236, -0.00037493795389309525, -0.002205775585025549, -0.003416283754631877, 1.0011836290359497, 0.8162357807159424, -1.6097537279129028, 0.03844715654850006, 0.0, 0.0, 0.0, 0, 0, 0, 0, 0, 0, 0.8162357807159424, -1.6097537279129028, 0.03844715654850006
14194, 0.021141739562153816, -0.11340626329183578, 0.10650371760129929, -0.1599646806716919, 0.23278039693832397, -0.2276313304901123, 0.0002605723566375673, -0.0029941496904939413, 0.9991366863250732, 0.8181143403053284, -1.6127465963363647, 0.03852876275777817, 0.0, 0.0, 0.0, 0, 0, 0, 0, 0, 0, 0.8181143403053284, -1.6127465963363647, 0.03852876275777817
14204, 0.020668035373091698, -0.11509887129068375, 0.1051376610994339, 0.09593047946691513, 0.16505436599254608, 0.13241863250732422, -0.0012227734550833702, -0.001650561927817762, 0.9992773532867432, 0.8199939727783203, -1.615742802619934, 0.03861049562692642, 0.0, 0.0, 0.0, 0, 0, 0, 0, 0, 0, 0.8199939727783203, -1.615742802619934, 0.03861049562692642
14214, 0.020858850330114365, -0.11606281995773315, 0.1058691143989563, -0.10376231372356415, 0.12026642262935638, -0.011280863545835018, -0.0011320521589368582, -0.0018004400189965963, 1.0005192756652832, 0.8218748569488525, -1.618741512298584, 0.03869166225194931, 0.0, 0.0, 0.0, 0, 0, 0, 0, 0, 0, 0.8218748569488525, -1.618741512298584, 0.03869166225194931
14224, 0.020899858325719833, -0.11619272828102112, 0.10655660182237625, 0.0610136054456234, -0.04670322313904762, -0.34485843777656555, -0.0018084922339767218, -0.0039020320400595665, 0.9999564290046692, 0.8237565159797668, -1.6217423677444458, 0.03877289220690727, 0.0, 0.0, 0.0, 0, 0, 0, 0, 0, 0, 0.8237565159797668, -1.6217423677444458, 0.03877289220690727
14234, 0.021947333589196205, -0.11557126045227051, 0.10551583766937256, 0.04020583629608154, -0.04482169821858406, 0.21237559616565704, -2.9006676413700916e-05, -0.002273404272273183, 0.9988710880279541, 0.8256385326385498, -1.624746322631836, 0.038854364305734634, 0.0, 0.0, 0.0, 0.014497097581624985, 0.011556806042790413, 0.049893010407686234, 0.6966949263208883, -0.6952568924288274, -2.3563354673921424, 0.8256385326385498, -1.624746322631836, 0.038854364305734634
