timeTick, roll, pitch, yaw, gyroX, gyroY, gyroZ, accX, accY, accZ, stateX, stateY, stateZ, target_x, target_y, target_z, otX, otY, otZ, otRoll, otPitch, otYaw, kalX, kalY, kalZ
103406, 0.3255501687526703, -0.06351887434720993, -0.021473944187164307, 0, 0, 0, 0, 0, 0, 0, 0, 0, 0, 0, 0, 0, 0, 0, 0, 0, 0, 0, 0, 0
103416, 0.3258061707019806, -0.06314259767532349, -0.021721089258790016, 0.10203974694013596, -0.02446998655796051, -0.1672915667295456, -0.0023516048677265644, -0.00343672139570117, 0.9990832209587097, -2.028688669204712, -99.40873718261719, -0.2715943157672882, 0.0, 0.0, 0.0, 0, 0, 0, 0, 0, 0, -2.028688669204712, -99.40873718261719, -0.2715943157672882
103426, 0.3249257802963257, -0.0642818734049797, -0.02077459916472435, -0.10853847116231918, 0.2223278284072876, 0.14508548378944397, -0.0027616824954748154, -0.004594580270349979, 1.0018061399459839, -2.0290141105651855, -99.45222473144531, -0.27164149284362793, 0.0, 0.0, 0.0, 0, 0, 0, 0, 0, 0, -2.0290141105651855, -99.45222473144531, -0.27164149284362793
103436, 0.3247523009777069, -0.06375448405742645, -0.020376931875944138, -0.014608464203774929, -0.11210876703262329, -0.09284649044275284, -0.0016787695931270719, -0.0051465402357280254, 0.9985772967338562, -2.029340982437134, -99.49571990966797, -0.27168795466423035, 0.0, 0.0, 0.0, 0, 0, 0, 0, 0, 0, -2.029340982437134, -99.49571990966797, -0.27168795466423035
103446, 0.3251914083957672, -0.06142425537109375, -0.020512647926807404, 0.1605527251958847, -0.34957659244537354, -0.007157713640481234, -0.0031302766874432564, -0.0056424569338560104, 0.9996867775917053, -2.0296688079833984, -99.53922271728516, -0.27173370122909546, 0.0, 0.0, 0.0, 0, 0, 0, 0, 0, 0, -2.0296688079833984, -99.53922271728516, -0.27173370122909546
103456, 0.32471010088920593, -0.060786858201026917, -0.02077389508485794, -0.017840445041656494, -0.06220339983701706, -0.15630429983139038, -0.0022765598259866238, -0.004617554135620594, 1.001296043395996, -2.0299978256225586, -99.5827407836914, -0.27177995443344116, 0.0, 0.0, 0.0, 0, 0, 0, 0, 0, 0, -2.0299978256225586, -99.5827407836914, -0.27177995443344116
103466, 0.3250310719013214, -0.06141943112015724, -0.019937507808208466, 0.032289210706949234, 0.2522575259208679, 0.17069685459136963, -0.001933477120473981, -0.0034348061308264732, 1.0009872913360596, -2.0303280353546143, -99.62626647949219, -0.27182579040527344, 0.0, 0.0, 0.0, 0, 0, 0, 0, 0, 0, -2.0303280353546143, -99.62626647949219, -0.27182579040527344
103476, 0.3260613679885864, -0.06126273050904274, -0.018559467047452927, 0.11112534254789352, -0.019747145473957062, 0.07790752500295639, -0.0033898320980370045, -0.004280870780348778, 0.9997242093086243, -2.0306589603424072, -99.6697998046875, -0.2718701958656311, 0.0, 0.0, 0.0, 0, 0, 0, 0, 0, 0, -2.0306589603424072, -99.6697998046875, -0.2718701958656311
103486, 0.32592934370040894, -0.06298570334911346, -0.01868017390370369, -0.14769630134105682, 0.2025025188922882, -0.02068566158413887, -0.002699177712202072, -0.005176710430532694, 1.001007318496704, -2.030991315841675, -99.71334838867188, -0.2719137966632843, 0.0, 0.0, 0.0, 0, 0, 0, 0, 0, 0, -2.030991315841675, -99.71334838867188, -0.2719137966632843
103496, 0.32724714279174805, -0.06500087678432465, -0.01911025494337082, 0.2184430956840515, 0.30229198932647705, -0.007644288707524538, -0.003314345609396696, -0.006272654514759779, 0.9989659190177917, -2.031325578689575, -99.75690460205078, -0.2719569206237793, 0.0, 0.0, 0.0, 0, 0, 0, 0, 0, 0, -2.031325578689575, -99.75690460205078, -0.2719569206237793
103506, 0.32736635208129883, -0.0657777264714241, -0.01990261860191822, 0.06353776156902313, 0.11351478844881058, -0.11232319474220276, -0.0029625319875776768, -0.0031275292858481407, 1.00007164478302, -2.0316617488861084, -99.80046844482422, -0.27199989557266235, 0.0, 0.0, 0.0, 0, 0, 0, 0, 0, 0, -2.0316617488861084, -99.80046844482422, -0.27199989557266235
103516, 0.3274820148944855, -0.06473775207996368, -0.0200192891061306, 0.04401401802897453, -0.01625431329011917, -0.026062196120619774, -0.0003156152961309999, -0.005710977595299482, 0.9988227486610413, -2.0320000648498535, -99.84404754638672, -0.2720430791378021, 0.0, 0.0, 0.0, 0, 0, 0, 0, 0, 0, -2.0320000648498535, -99.84404754638672, -0.2720430791378021
103526, 0.32852643728256226, -0.0652158260345459, -0.021409235894680023, 0.09381713718175888, 0.04833085462450981, -0.2882888615131378, -0.0019174338085576892, -0.004732282366603613, 1.0006649494171143, -2.032338857650757, -99.88763427734375, -0.2720866799354553, 0.0, 0.0, 0.0, 0, 0, 0, 0, 0, 0, -2.032338857650757, -99.88763427734375, -0.2720866799354553
103536, 0.3304063081741333, -0.06613364070653915, -0.019556868821382523, 0.29071956872940063, 0.05811583995819092, 0.3044358789920807, -0.0017970462795346975, -0.0039795259945094585, 0.9999071359634399, -2.03267765045166, -99.93122863769531, -0.2721306085586548, 0.0, 0.0, 0.0, 0, 0, 0, 0, 0, 0, -2.03267765045166, -99.93122863769531, -0.2721306085586548
103546, 0.0, 0.0, 0.0, 0.1250968724489212, 0.18825793266296387, 0.01584366336464882, 0.0006793438806198537, -0.004289161879569292, 0.9994537830352783, -2.0330169200897217, -99.97483825683594, -0.27217426896095276, 0.0, 0.0, 0.0, 0, 0, 0, 0, 0, 0, -2.0330169200897217, -99.97483825683594, -0.27217426896095276
103556, -0.0009526673820801079, 0.002634306438267231, -0.001242450438439846, -0.22926267981529236, -0.41861870884895325, -0.3028511106967926, -0.0008828039863146842, -0.0036939859855920076, 1.000145435333252, 0.0, 0.0, 0.0, 0.0, 0.0, 0.0, 0, 0, 0, 0, 0, 0, 0.0, 0.0, 0.0
103566, -0.0006198385381139815, 0.0024241250939667225, -0.00016696061356924474, -0.01889491081237793, 0.06413234770298004, 0.07751281559467316, -0.0010142503306269646, -0.0055914223194122314, 1.0004709959030151, -3.193453608218988e-07, -1.443879455109709e-06, -3.812601789832115e-09, 0.0, 0.0, 0.0, 0, 0, 0, 0, 0, 0, -3.193453608218988e-07, -1.443879455109709e-06, -3.812601789832115e-09
103576, -0.0006008988129906356, 0.001206633634865284, 2.8689208193100058e-05, -0.019587956368923187, 0.017057839781045914, 0.06014710292220116, -0.0012882963055744767, -0.006609111092984676, 0.9990059733390808, -1.719767169561237e-06, -7.282530532393139e-06, 7.220660336315632e-08, 0.0, 0.0, 0.0, 0, 0, 0, 0, 0, 0, -1.719767169561237e-06, -7.282530532393139e-06, 7.220660336315632e-08
103586, -0.0005210090894252062, 0.0017087861197069287, 0.0007311445660889149, -0.11152089387178421, -0.16423368453979492, 0.05460663512349129, -0.0026067530270665884, -0.005121262744069099, 0.9987128973007202, -4.666459062718786e-06, -1.8871185602620244e-05, -2.234883140772581e-07, 0.0, 0.0, 0.0, 0, 0, 0, 0, 0, 0, -4.666459062718786e-06, -1.8871185602620244e-05, -2.234883140772581e-07
103596, 0.0003765644505620003, 0.004097003024071455, 0.0006765826838091016, 0.08765017986297607, -0.19863002002239227, -0.0003764199500437826, -0.0008473781635984778, -0.004038539249449968, 0.9982641339302063, -9.574965588399209e-06, -3.639345959527418e-05, -1.5201803762465715e-06, 0.0, 0.0, 0.0, 0, 0, 0, 0, 0, 0, -9.574965588399209e-06, -3.639345959527418e-05, -1.5201803762465715e-06
103606, -0.0001275097019970417, 0.0026725935749709606, 0.00056108133867383, -0.14341458678245544, 0.35207879543304443, -0.08324562758207321, -7.830718823242933e-05, -0.0021137373987585306, 0.9992521405220032, -1.61686803039629e-05, -5.864992999704555e-05, -4.107278073206544e-06, 0.0, 0.0, 0.0, 0, 0, 0, 0, 0, 0, -1.61686803039629e-05, -5.864992999704555e-05, -4.107278073206544e-06
103616, 0.0005427398718893528, 0.0007336347480304539, 0.0008428006549365819, 0.09979788959026337, 0.2747800052165985, 0.04930904880166054, -0.0038590189069509506, -0.001881268573924899, 1.000786304473877, -2.3422948288498446e-05, -8.396184421144426e-05, -7.774302503094077e-06, 0.0, 0.0, 0.0, 0, 0, 0, 0, 0, 0, -2.3422948288498446e-05, -8.396184421144426e-05, -7.774302503094077e-06
103626, 9.096205030800775e-05, 0.0011470565805211663, -0.00011851843737531453, -0.09230617433786392, -0.04431973397731781, -0.14426766335964203, -0.005091308616101742, -0.003638991853222251, 0.9995474219322205, -3.2250743970507756e-05, -0.00011135001841466874, -1.1508614988997579e-05, 0.0, 0.0, 0.0, 0, 0, 0, 0, 0, 0, -3.2250743970507756e-05, -0.00011135001841466874, -1.1508614988997579e-05
103636, -0.00045398971997201443, 0.0014972821809351444, 3.562405981938355e-05, -0.08201846480369568, -0.2115919440984726, -0.042397066950798035, -0.0022357748821377754, -0.004314540885388851, 0.9992693066596985, -4.508853453444317e-05, -0.00014125897723715752, -1.4943070709705353e-05, 0.0, 0.0, 0.0, 0, 0, 0, 0, 0, 0, -4.508853453444317e-05, -0.00014125897723715752, -1.4943070709705353e-05
103646, -5.456772214529337e-06, 0.0012976482976227999, 0.0002555838436819613, 0.07610512524843216, -0.20421725511550903, 0.17844222486019135, -0.002556456718593836, -0.0047151921316981316, 1.0005029439926147, -6.176854367367923e-05, -0.00017480278620496392, -1.8819875549525023e-05, 0.0, 0.0, 0.0, 0, 0, 0, 0, 0, 0, -6.176854367367923e-05, -0.00017480278620496392, -1.8819875549525023e-05
103656, 0.00026675016852095723, 0.00044127475121058524, 2.202082941948902e-05, -0.04179934412240982, 0.06273577362298965, -0.10072895884513855, -0.00017764620133675635, -0.004151975270360708, 0.9999474883079529, -8.097537647699937e-05, -0.00021286268020048738, -2.303314977325499e-05, 0.0, 0.0, 0.0, 0, 0, 0, 0, 0, 0, -8.097537647699937e-05, -0.00021286268020048738, -2.303314977325499e-05
103666, 0.0005674207350239158, -0.0012886550975963473, 0.0006049815565347672, -0.0032275316771119833, 0.25802621245384216, -0.010643561370670795, -0.0017969998298212886, -0.0036957322154194117, 0.9995174407958984, -0.00010183380800299346, -0.00025553046725690365, -2.7208589017391205e-05, 0.0, 0.0, 0.0, 0, 0, 0, 0, 0, 0, -0.00010183380800299346, -0.00025553046725690365, -2.7208589017391205e-05
103676, 0.0014527265448123217, 0.00016467683599330485, -0.00019978541240561754, 0.14842191338539124, -0.28921622037887573, -0.1564805805683136, -0.0016700876876711845, -0.0050542354583740234, 0.9993879199028015, -0.00012392690405249596, -0.0003021140000782907, -3.1632487662136555e-05, 0.0, 0.0, 0.0, 0, 0, 0, 0, 0, 0, -0.00012392690405249596, -0.0003021140000782907, -3.1632487662136555e-05
103686, 0.0006472829263657331, 0.0007908023544587195, 5.4124950111145154e-05, -0.10530845820903778, -0.10678865015506744, 0.12103551626205444, -0.00040926889050751925, -0.004379772115498781, 1.0001662969589233, -0.0001475967583246529, -0.0003528632514644414, -3.6659621400758624e-05, 0.0, 0.0, 0.0, 0, 0, 0, 0, 0, 0, -0.0001475967583246529, -0.0003528632514644414, -3.6659621400758624e-05
103696, 0.002483601216226816, 0.0006681916420347989, 0.001275189919397235, 0.25349584221839905, -0.04998932406306267, 0.1656663864850998, 0.0008898485684767365, -0.005131363403052092, 0.9999642372131348, -0.00017238824511878192, -0.00040818023262545466, -4.20582655351609e-05, 0.0, 0.0, 0.0, 0, 0, 0, 0, 0, 0, -0.00017238824511878192, -0.00040818023262545466, -4.20582655351609e-05
103706, 0.0030614379793405533, -0.0005622543394565582, 0.0005745377275161445, 0.07606836408376694, 0.17974261939525604, -0.09445571899414062, -0.0014399017672985792, -0.005010845605283976, 1.0019973516464233, -0.00019712559878826141, -0.00046812384971417487, -4.720399738289416e-05, 0.0, 0.0, 0.0, 0, 0, 0, 0, 0, 0, -0.00019712559878826141, -0.00046812384971417487, -4.720399738289416e-05
103716, 0.0031642320100218058, -0.0005274275317788124, 0.000786792894359678, 0.10064836591482162, -0.046640414744615555, -0.008999274112284184, -0.00018191160052083433, -0.00606531510129571, 1.00033438205719, -0.00022203903063200414, -0.0005330753629095852, -5.1320064812898636e-05, 0.0, 0.0, 0.0, 0, 0, 0, 0, 0, 0, -0.00022203903063200414, -0.0005330753629095852, -5.1320064812898636e-05
103726, 0.0034578118938952684, -0.003235751995816827, 0.0009229951538145542, 0.08021532744169235, 0.2881866693496704, 0.013151366263628006, 0.00022199067461770028, -0.0029591983184218407, 0.9993296265602112, -0.0002476470544934273, -0.0006034650723449886, -5.428004078567028e-05, 0.0, 0.0, 0.0, 0, 0, 0, 0, 0, 0, -0.0002476470544934273, -0.0006034650723449886, -5.428004078567028e-05
103736, 0.0038045630790293217, -0.0014584981836378574, 0.0012865314492955804, 0.13824477791786194, -0.33730313181877136, 0.13204360008239746, -0.001842515543103218, -0.0020810544956475496, 0.9999305009841919, -0.00027302431408315897, -0.0006784657598473132, -5.718524334952235e-05, 0.0, 0.0, 0.0, 0, 0, 0, 0, 0, 0, -0.00027302431408315897, -0.0006784657598473132, -5.718524334952235e-05
103746, 0.003943868912756443, -0.0024311707820743322, 0.0018535425188019872, 0.07355382293462753, 0.1150713860988617, 0.069186270236969, -0.0036936106625944376, -0.0039263213984668255, 0.9993738532066345, -0.00029883094248361886, -0.0007563327089883387, -6.062322063371539e-05, 0.0, 0.0, 0.0, 0, 0, 0, 0, 0, 0, -0.00029883094248361886, -0.0007563327089883387, -6.062322063371539e-05
103756, 0.002729264786466956, -0.0036923878360539675, 0.0014363568043336272, -0.1515568047761917, 0.06765399128198624, -0.11927688866853714, -0.0002907326852437109, -0.003988000098615885, 1.0022072792053223, -0.0003269833396188915, -0.0008368887938559055, -6.46454282104969e-05, 0.0, 0.0, 0.0, 0, 0, 0, 0, 0, 0, -0.0003269833396188915, -0.0008368887938559055, -6.46454282104969e-05
103766, 0.003951072692871094, -0.0050499639473855495, 0.0012262105010449886, 0.09664839506149292, 0.20904871821403503, -0.1401987224817276, 0.000733585620764643, -0.0025229468010365963, 1.0010360479354858, -0.0003571724228095263, -0.0009210575954057276, -6.806498277001083e-05, 0.0, 0.0, 0.0, 0, 0, 0, 0, 0, 0, -0.0003571724228095263, -0.0009210575954057276, -6.806498277001083e-05
103776, 0.004859326407313347, -0.005147687625139952, 0.0012891188962385058, 0.11279116570949554, -0.07257362455129623, 0.1177588701248169, 0.00013043922081124038, -0.005281703546643257, 0.998163640499115, -0.00038742576725780964, -0.0010087190894410014, -6.988001405261457e-05, 0.0, 0.0, 0.0, 0, 0, 0, 0, 0, 0, -0.00038742576725780964, -0.0010087190894410014, -6.988001405261457e-05
103786, 0.005537720397114754, -0.0056112962774932384, 0.002098261611536145, 0.14902065694332123, 0.0038086071144789457, 0.19339342415332794, -0.0008814757457002997, -0.004190011881291866, 1.000636100769043, -0.0004171703476458788, -0.001100333291105926, -7.178916712291539e-05, 0.0, 0.0, 0.0, 0, 0, 0, 0, 0, 0, -0.0004171703476458788, -0.001100333291105926, -7.178916712291539e-05
103796, 0.0055335997603833675, -0.005469868890941143, 0.0016760448925197124, 0.12331818789243698, 0.015342452563345432, -0.03563249111175537, -0.0007793157128617167, -0.0041578165255486965, 1.0011268854141235, -0.00044715768308378756, -0.0011966549791395664, -7.445397204719484e-05, 0.0, 0.0, 0.0, 0, 0, 0, 0, 0, 0, -0.00044715768308378756, -0.0011966549791395664, -7.445397204719484e-05
103806, 0.005128571763634682, -0.004124655853956938, 0.0022731798235327005, 0.0033831328619271517, 0.009628183208405972, 0.24396425485610962, -0.00033594376873224974, -0.004375585820525885, 1.0010123252868652, -0.00047779723536223173, -0.001297299051657319, -7.648600148968399e-05, 0.0, 0.0, 0.0, 0, 0, 0, 0, 0, 0, -0.00047779723536223173, -0.001297299051657319, -7.648600148968399e-05
103816, 0.0058599854819476604, -0.0007070790161378682, 0.0012952277902513742, 0.2029212862253189, -0.11862371116876602, -0.014984129928052425, -0.0014266717480495572, -0.005274623166769743, 0.9995496273040771, -0.0005088662728667259, -0.0014022189425304532, -7.731738151051104e-05, 0.0, 0.0, 0.0, 0, 0, 0, 0, 0, 0, -0.0005088662728667259, -0.0014022189425304532, -7.731738151051104e-05
103826, 0.004540983587503433, 0.0005813995958305895, -0.0003205609682481736, -6.426370237022638e-05, -0.08158407360315323, -0.16945533454418182, -0.002216427819803357, -0.005957038141787052, 0.9996218681335449, -0.0005406243144534528, -0.0015116073191165924, -7.759590516798198e-05, 0.0, 0.0, 0.0, 0, 0, 0, 0, 0, 0, -0.0005406243144534528, -0.0015116073191165924, -7.759590516798198e-05
103836, 0.004347164183855057, 0.0005364665994420648, -0.0008731263224035501, 0.12460934370756149, -0.0631939172744751, -0.048344213515520096, -0.0011983935255557299, -0.005112634971737862, 0.9998834133148193, -0.000573937373701483, -0.0016262118006125093, -7.821721374057233e-05, 0.0, 0.0, 0.0, 0, 0, 0, 0, 0, 0, -0.000573937373701483, -0.0016262118006125093, -7.821721374057233e-05
103846, 0.004453486297279596, -0.0002710752305574715, -0.0002938831166829914, 0.022104574367403984, 0.13596443831920624, 0.019053414463996887, -0.0008409966831095517, -0.005127141252160072, 0.9997192621231079, -0.0006089320522733033, -0.0017462364630773664, -7.912531145848334e-05, 0.0, 0.0, 0.0, 0, 0, 0, 0, 0, 0, -0.0006089320522733033, -0.0017462364630773664, -7.912531145848334e-05
103856, 0.00485373055562377, -0.0019786471966654062, 0.0001666122698225081, 0.031014565378427505, 0.17088906466960907, 0.1091991737484932, -0.0019356540869921446, -0.004854777827858925, 1.0012413263320923, -0.0006450646324083209, -0.001871201442554593, -8.009091834537685e-05, 0.0, 0.0, 0.0, 0, 0, 0, 0, 0, 0, -0.0006450646324083209, -0.001871201442554593, -8.009091834537685e-05
103866, 0.005477384198457003, -0.0012744945706799626, -0.0005805731634609401, 0.0887417271733284, -0.17086705565452576, 0.027447251603007317, -0.0018267774721607566, -0.005333876237273216, 0.9995213150978088, -0.0006825504824519157, -0.002001008717343211, -8.066921145655215e-05, 0.0, 0.0, 0.0, 0, 0, 0, 0, 0, 0, -0.0006825504824519157, -0.002001008717343211, -8.066921145655215e-05
103876, 0.006227979902178049, -0.0016895942389965057, -0.0011961209820583463, 0.10068060457706451, 0.08677257597446442, -0.13054193556308746, -0.0023733540438115597, -0.006036063190549612, 0.9995560646057129, -0.0007219129474833608, -0.002135824179276824, -8.078446262516081e-05, 0.0, 0.0, 0.0, 0, 0, 0, 0, 0, 0, -0.0007219129474833608, -0.002135824179276824, -8.078446262516081e-05
103886, 0.007187293842434883, -0.0029223423916846514, -0.0009518949082121253, -0.007753204088658094, 0.1792658120393753, -0.0005721838679164648, -0.002067048102617264, -0.004855235107243061, 0.9974989891052246, -0.0007633519708178937, -0.0022761686705052853, -8.10640340205282e-05, 0.0, 0.0, 0.0, 0, 0, 0, 0, 0, 0, -0.0007633519708178937, -0.0022761686705052853, -8.10640340205282e-05
103896, 0.007841345854103565, -0.003463197033852339, -0.00046416278928518295, 0.05863616615533829, 0.10245202481746674, 0.036967840045690536, -0.00019853842968586832, -0.004029275383800268, 0.9986192584037781, -0.0008069738978520036, -0.0024219402112066746, -8.250193786807358e-05, 0.0, 0.0, 0.0, 0, 0, 0, 0, 0, 0, -0.0008069738978520036, -0.0024219402112066746, -8.250193786807358e-05
103906, 0.007773928809911013, -0.003279472701251507, -0.00045671508996747434, -0.14501447975635529, 0.10417716950178146, -0.08403884619474411, -0.000684689381159842, -0.005810900591313839, 1.0000029802322388, -0.0008518435643054545, -0.0025721678975969553, -8.575280662626028e-05, 0.0, 0.0, 0.0, 0, 0, 0, 0, 0, 0, -0.0008518435643054545, -0.0025721678975969553, -8.575280662626028e-05
103916, 0.00790410302579403, -0.0026686610653996468, -0.0010148872388526797, -0.032176680862903595, 0.07253018021583557, -0.1842033416032791, -0.0030422841664403677, -0.004211991559714079, 0.99912428855896, -0.0008971963543444872, -0.0027272410225123167, -8.988400804810226e-05, 0.0, 0.0, 0.0, 0, 0, 0, 0, 0, 0, -0.0008971963543444872, -0.0027272410225123167, -8.988400804810226e-05
103926, 0.00803257618099451, -0.0035889032296836376, -0.0009398720576427877, -0.017379598692059517, 0.18074601888656616, -0.009334434755146503, -0.001528280321508646, -0.0030761423986405134, 0.9993605613708496, -0.0009441597503609955, -0.0028874280396848917, -9.439580026082695e-05, 0.0, 0.0, 0.0, 0, 0, 0, 0, 0, 0, -0.0009441597503609955, -0.0028874280396848917, -9.439580026082695e-05
103936, 0.010152625851333141, -0.0008458294323645532, -0.0009248286951333284, 0.37150081992149353, -0.34582850337028503, 0.04022557660937309, -0.0011123127769678831, -0.002387695014476776, 0.9999837875366211, -0.0009932898683473468, -0.0030516169499605894, -9.960512397810817e-05, 0.0, 0.0, 0.0, 0, 0, 0, 0, 0, 0, -0.0009932898683473468, -0.0030516169499605894, -9.960512397810817e-05
103946, 0.010125963017344475, -0.0030579357407987118, -0.0024879651609808207, 0.003661218099296093, 0.17994102835655212, -0.07320915162563324, -0.0033052207436412573, -0.0022295929957181215, 0.9986304640769958, -0.001043632859364152, -0.0032187332399189472, -0.00010520085925236344, 0.0, 0.0, 0.0, 0, 0, 0, 0, 0, 0, -0.001043632859364152, -0.0032187332399189472, -0.00010520085925236344
103956, 0.01017273310571909, -0.005705386865884066, -0.0019965888932347298, -0.0161229707300663, 0.36165010929107666, 0.19644711911678314, -6.302768269961234e-06, -0.0033914451487362385, 0.9995157122612, -0.0010957003105431795, -0.0033882565330713987, -0.00011128594633191824, 0.0, 0.0, 0.0, 0, 0, 0, 0, 0, 0, -0.0010957003105431795, -0.0033882565330713987, -0.00011128594633191824
103966, 0.010848475620150566, -0.005399452522397041, -0.0014813750749453902, -0.012222439050674438, 0.06211770325899124, 0.021494388580322266, 6.160745397210121e-05, -0.005053479224443436, 0.99970543384552, -0.0011494888458400965, -0.003560728393495083, -0.00011821388034150004, 0.0, 0.0, 0.0, 0, 0, 0, 0, 0, 0, -0.0011494888458400965, -0.003560728393495083, -0.00011821388034150004
103976, 0.01179798599332571, -0.005240417085587978, -0.0012553554261103272, 0.049683209508657455, 0.06272129714488983, 0.03203615918755531, -0.0023691903334110975, -0.0072814179584383965, 0.9989422559738159, -0.00120343710295856, -0.0037371458020061255, -0.00012580497423186898, 0.0, 0.0, 0.0, 0, 0, 0, 0, 0, 0, -0.0012580865295603871, -0.00391931040212512, -0.00013392651453614235
103986, 0.012281945906579494, -0.006482819560915232, -0.0014933187048882246, 0.05579820275306702, 0.23878884315490723, -0.018045535311102867, -0.002640302525833249, -0.005339845083653927, 0.9992815852165222, -0.0012580865295603871, -0.00391931040212512, -0.00013392651453614235, 0.0, 0.0, 0.0, 0, 0, 0, 0, 0, 0, -0.0013148728758096695, -0.0041079833172261715, -0.00014283915515989065
103996, 0.012694689445197582, -0.00472594378516078, -0.001961402129381895, 0.07430624961853027, -0.2297823131084442, -0.05401264503598213, -0.0019043456995859742, -0.005657192785292864, 1.0019181966781616, -0.0013148728758096695, -0.0041079833172261715, -0.00014283915515989065, 0.0, 0.0, 0.0, 0, 0, 0, 0, 0, 0, -0.0013737175613641739, -0.004302222281694412, -0.00015164364594966173
104006, 0.013900035060942173, -0.005467679351568222, -0.0029720908496528864, 0.2263108342885971, -0.1167413592338562, -0.02706228196620941, -0.002132793888449669, -0.005648108199238777, 1.0015360116958618, -0.0013737175613641739, -0.004302222281694412, -0.00015164364594966173, 0.0, 0.0, 0.0, 0, 0, 0, 0, 0, 0, -0.0014344599330797791, -0.004502076655626297, -0.00015884428285062313
104016, 0.013974053785204887, -0.0047002388164401054, -0.003946579061448574, 0.1348554790019989, -0.08477175980806351, -0.03322248533368111, -0.0017671664245426655, -0.004017369356006384, 0.9991301894187927, -0.0014344599330797791, -0.004502076655626297, -0.00015884428285062313, 0.0, 0.0, 0.0, 0, 0, 0, 0, 0, 0, -0.0014970643678680062, -0.00470733642578125, -0.00016524517559446394
104026, 0.01406175922602415, -0.0057004839181900024, -0.0006351068732328713, 0.013655317015945911, 0.2797313630580902, 0.3931117355823517, -0.002561342203989625, -0.004153380636125803, 0.9995372891426086, -0.0014970643678680062, -0.00470733642578125, -0.00016524517559446394, 0.0, 0.0, 0.0, 0, 0, 0, 0, 0, 0, -0.0015617732424288988, -0.004916981793940067, -0.00017205323092639446
104036, 0.014337345026433468, -0.005824010819196701, -0.0008164704777300358, -0.08633820712566376, -0.005914567969739437, 0.03559962287545204, -0.001773577998392284, -0.0035531828179955482, 0.999594509601593, -0.0015617732424288988, -0.004916981793940067, -0.00017205323092639446, 0.0, 0.0, 0.0, 0, 0, 0, 0, 0, 0, -0.0016287281177937984, -0.005130419973284006, -0.0001792099792510271
104046, 0.01488401647657156, -0.006602725945413113, -0.0022316803224384785, 0.16240808367729187, 0.14387354254722595, -0.29680147767066956, -0.0001489325804868713, -0.002006310038268566, 1.001124382019043, -0.0016287281177937984, -0.005130419973284006, -0.0001792099792510271, 0.0, 0.0, 0.0, 0, 0, 0, 0, 0, 0, -0.001696692663244903, -0.0053470018319785595, -0.00018615194130688906
104056, 0.015676772221922874, -0.0065535143949091434, -0.0014212079113349319, 0.12752526998519897, 0.008953954093158245, 0.18642853200435638, -0.002463729353621602, -0.0030824467539787292, 1.0022341012954712, -0.001696692663244903, -0.0053470018319785595, -0.00018615194130688906, 0.0, 0.0, 0.0, 0, 0, 0, 0, 0, 0, -0.001765357330441475, -0.005566626787185669, -0.00019165771664120257
104066, 0.01736588589847088, -0.00889628566801548, -0.0011444113915786147, 0.09575296938419342, 0.3825857937335968, -0.10478153824806213, -0.003421007888391614, -0.00701349601149559, 1.0010545253753662, -0.001765357330441475, -0.005566626787185669, -0.00019165771664120257, 0.0, 0.0, 0.0, 0, 0, 0, 0, 0, 0, -0.001836455543525517, -0.005791043397039175, -0.0001954169711098075
104076, 0.017563100904226303, -0.009320303797721863, -0.001476277015171945, -0.14490953087806702, -0.011583161540329456, -0.11700963973999023, 0.0002819937071762979, -0.007459046319127083, 0.9986628293991089, -0.001836455543525517, -0.005791043397039175, -0.0001954169711098075, 0.0, 0.0, 0.0, 0, 0, 0, 0, 0, 0, -0.001836455543525517, -0.005791043397039175, -0.0001954169711098075
104086, 0.01740935631096363, -0.010975935496389866, -0.0018441957654431462, 0.04592007398605347, 0.2713238298892975, 0.08747667074203491, 0.0012057940475642681, -0.0046938033774495125, 0.99928218126297, -0.0019096045289188623, -0.006022293120622635, -0.00019883617642335594, 0.0, 0.0, 0.0, 0, 0, 0, 0, 0, 0, -0.0019096045289188623, -0.006022293120622635, -0.00019883617642335594
104096, 0.01824687048792839, -0.011099804192781448, -0.0019624345004558563, 0.04546632245182991, -0.02264578640460968, 0.0008546660537831485, -0.00024398128152824938, -0.0037788606714457273, 1.0015767812728882, -0.0019824157934635878, -0.006260032765567303, -0.00020303778001107275, 0.0, 0.0, 0.0, 0, 0, 0, 0, 0, 0, -0.0019824157934635878, -0.006260032765567303, -0.00020303778001107275
104106, 0.018315445631742477, -0.01193227805197239, -0.0021824478171765804, -0.0750788152217865, 0.13188306987285614, -0.09853542596101761, 0.000783110735937953, -0.0028484815265983343, 1.001285195350647, -0.0020546752493828535, -0.0065026977099478245, -0.00020704069174826145, 0.0, 0.0, 0.0, 0, 0, 0, 0, 0, 0, -0.0020546752493828535, -0.0065026977099478245, -0.00020704069174826145
104116, 0.01842576265335083, -0.014452357776463032, -0.00247032823972404, -0.10514026135206223, 0.38912004232406616, -0.0064393579959869385, -0.0006795272929593921, -0.004284162539988756, 1.0020835399627686, -0.0021264345850795507, -0.006749141030013561, -0.0002097344840876758, 0.0, 0.0, 0.0, 0, 0, 0, 0, 0, 0, -0.0021264345850795507, -0.006749141030013561, -0.0002097344840876758
104126, 0.019189534708857536, -0.013285023160278797, -0.0037241741083562374, 0.14639540016651154, -0.40268826484680176, -0.1216040626168251, -0.0027035698294639587, -0.005055448971688747, 1.0001477003097534, -0.0021978700533509254, -0.006999407894909382, -0.00021075550466775894, 0.0, 0.0, 0.0, 0, 0, 0, 0, 0, 0, -0.0021978700533509254, -0.006999407894909382, -0.00021075550466775894
104136, 0.019520489498972893, -0.014025824144482613, -0.004270981531590223, 0.002963881939649582, 0.1629338264465332, -0.05160887539386749, -0.00016511845751665533, -0.0047359406016767025, 0.9998392462730408, -0.002270493423566222, -0.007254537660628557, -0.0002105211024172604, 0.0, 0.0, 0.0, 0, 0, 0, 0, 0, 0, -0.002270493423566222, -0.007254537660628557, -0.0002105211024172604
104146, 0.02015397697687149, -0.013765893876552582, -0.0025334847159683704, 0.13327281177043915, -0.030562909319996834, 0.23588527739048004, -0.0004712252994067967, -0.006376723758876324, 0.9992630481719971, -0.0023442483507096767, -0.007514853496104479, -0.00021029490744695067, 0.0, 0.0, 0.0, 0, 0, 0, 0, 0, 0, -0.0023442483507096767, -0.007514853496104479, -0.00021029490744695067
104156, 0.020356444641947746, -0.014482301659882069, -0.0025204040575772524, 0.12178228795528412, -0.1456114947795868, -0.02555103972554207, -0.002668951638042927, -0.005119651090353727, 1.0003670454025269, -0.0024180756881833076, -0.007780871819704771, -0.00021039432613179088, 0.0, 0.0, 0.0, 0, 0, 0, 0, 0, 0, -0.0024180756881833076, -0.007780871819704771, -0.00021039432613179088
104166, 0.020082199946045876, -0.0150655722245574, -0.0027857585810124874, -0.010066762566566467, -0.11823204159736633, -0.02640034817159176, -0.0018819523975253105, -0.00447262916713953, 1.0020033121109009, -0.0024929011706262827, -0.008052905090153217, -0.00021055730758234859, 0.0, 0.0, 0.0, 0, 0, 0, 0, 0, 0, -0.0024929011706262827, -0.008052905090153217, -0.00021055730758234859
104176, 0.020777011290192604, -0.015880297869443893, -0.0011518464889377356, 0.20221559703350067, -0.059835173189640045, 0.22989396750926971, 0.00019077905744779855, -0.0034913301933556795, 0.9986660480499268, -0.002569755306467414, -0.008330111391842365, -0.00021006324095651507, 0.0, 0.0, 0.0, 0, 0, 0, 0, 0, 0, -0.002569755306467414, -0.008330111391842365, -0.00021006324095651507
104186, 0.021074391901493073, -0.016492130234837532, -0.0009847490582615137, 0.08984197676181793, -0.044083498418331146, -0.003130428260192275, 0.0023909846786409616, -0.005499360151588917, 0.9986368417739868, -0.002647695131599903, -0.008611736819148064, -0.00020923453848809004, 0.0, 0.0, 0.0, 0, 0, 0, 0, 0, 0, -0.002647695131599903, -0.008611736819148064, -0.00020923453848809004
104196, 0.020464899018406868, -0.017885638400912285, -0.0029547058511525393, -0.06864756345748901, 0.2262924760580063, -0.19709840416908264, 0.001354645355604589, -0.0031320478301495314, 1.0015196800231934, -0.0027245960664004087, -0.00889812596142292, -0.00020937580848112702, 0.0, 0.0, 0.0, 0, 0, 0, 0, 0, 0, -0.0027245960664004087, -0.00889812596142292, -0.00020937580848112702
104206, 0.02018379606306553, -0.018438056111335754, -0.004625380039215088, -0.05098234862089157, 0.24704404175281525, -0.10733722150325775, -0.0008482960402034223, -0.005357831716537476, 0.9985021352767944, -0.0027995030395686626, -0.009189004078507423, -0.0002097521210089326, 0.0, 0.0, 0.0, 0, 0, 0, 0, 0, 0, -0.0027995030395686626, -0.009189004078507423, -0.0002097521210089326
104216, 0.019846299663186073, -0.018298503011465073, -0.004584478214383125, -0.09749095141887665, -0.0017496998189017177, -0.0006097443983890116, -0.000996418995782733, -0.004742125514894724, 0.9983721375465393, -0.0028736661188304424, -0.009484265930950642, -0.00021019962150603533, 0.0, 0.0, 0.0, 0, 0, 0, 0, 0, 0, -0.0028736661188304424, -0.009484265930950642, -0.00021019962150603533
104226, 0.02127031423151493, -0.017223013564944267, -0.0054395245388150215, 0.22637999057769775, -0.1740187257528305, -0.1627899706363678, -0.0010452150600031018, -0.005293537396937609, 0.9988250732421875, -0.0029482925310730934, -0.009784691035747528, -0.00021212012507021427, 0.0, 0.0, 0.0, 0, 0, 0, 0, 0, 0, -0.0029482925310730934, -0.009784691035747528, -0.00021212012507021427
104236, 0.02081531099975109, -0.01740240678191185, -0.006955306511372328, -0.1779758334159851, 0.024811720475554466, -0.2257046103477478, -0.0011131188366562128, -0.003499803366139531, 0.9994332194328308, -0.0030235883314162493, -0.010090348310768604, -0.0002155461988877505, 0.0, 0.0, 0.0, 0, 0, 0, 0, 0, 0, -0.0030235883314162493, -0.010090348310768604, -0.0002155461988877505
104246, 0.021239975467324257, -0.017036383971571922, -0.006301060784608126, 0.011902120895683765, -0.08882394433021545, 0.11749722808599472, -0.00190654955804348, -0.0015275772893801332, 1.0014915466308594, -0.0030995786655694246, -0.010400723665952682, -0.00021991925314068794, 0.0, 0.0, 0.0, 0, 0, 0, 0, 0, 0, -0.0030995786655694246, -0.010400723665952682, -0.00021991925314068794
104256, 0.02225002646446228, -0.0161031074821949, -0.0077429478988051414, 0.13619069755077362, -0.23416925966739655, -0.19631998240947723, -0.002016795566305518, -0.004713546950370073, 1.0016521215438843, -0.003176579950377345, -0.010714331641793251, -0.00022420127061195672, 0.0, 0.0, 0.0, 0, 0, 0, 0, 0, 0, -0.003176579950377345, -0.010714331641793251, -0.00022420127061195672
104266, 0.02260993979871273, -0.01696093939244747, -0.008537105284631252, -0.0063008880242705345, 0.2642563581466675, -0.14350835978984833, -0.0012728868750855327, -0.005034544505178928, 1.0002602338790894, -0.00325508089736104, -0.011031235568225384, -0.0002271018165629357, 0.0, 0.0, 0.0, 0, 0, 0, 0, 0, 0, -0.00325508089736104, -0.011031235568225384, -0.0002271018165629357
104276, 0.022490965202450752, -0.015578736551105976, -0.00941062904894352, 0.03709401190280914, -0.23819854855537415, -0.1410093456506729, -0.0016382205067202449, -0.003980665467679501, 0.9984561800956726, -0.0033349378500133753, -0.011352923698723316, -0.00022874775459058583, 0.0, 0.0, 0.0, 0, 0, 0, 0, 0, 0, -0.0033349378500133753, -0.011352923698723316, -0.00022874775459058583
104286, 0.022490791976451874, -0.01611342281103134, -0.00845832284539938, 0.04556950181722641, -0.11070284992456436, 0.228903666138649, -0.0032464885152876377, -0.004224441014230251, 0.9997990727424622, -0.003416089341044426, -0.011679393239319324, -0.0002307837421540171, 0.0, 0.0, 0.0, 0, 0, 0, 0, 0, 0, -0.003416089341044426, -0.011679393239319324, -0.0002307837421540171
104296, 0.022907694801688194, -0.01811523735523224, -0.008330012671649456, -0.05771392211318016, 0.3489854633808136, 0.1048281341791153, -0.002024278976023197, -0.004778371658176184, 0.9996247291564941, -0.003499662270769477, -0.012010394595563412, -0.00023383190273307264, 0.0, 0.0, 0.0, 0, 0, 0, 0, 0, 0, -0.003499662270769477, -0.012010394595563412, -0.00023383190273307264
104306, 0.0238354355096817, -0.0184969212859869, -0.008861820213496685, 0.11806116998195648, 0.014245242811739445, -0.029031958431005478, -0.0018084462499246001, -0.0033859270624816418, 0.9993607997894287, -0.0035859046038240194, -0.012346421368420124, -0.00023728972882963717, 0.0, 0.0, 0.0, 0, 0, 0, 0, 0, 0, -0.0035859046038240194, -0.012346421368420124, -0.00023728972882963717
104316, 0.023257194086909294, -0.019242988899350166, -0.009078064933419228, -0.10456953197717667, 0.02697952650487423, -0.027072517201304436, -0.0026515405625104904, -0.004720229655504227, 1.000190258026123, -0.0036739585921168327, -0.012687030248343945, -0.0002410414454061538, 0.0, 0.0, 0.0, 0, 0, 0, 0, 0, 0, -0.0036739585921168327, -0.012687030248343945, -0.0002410414454061538
104326, 0.02323276363313198, -0.01871226355433464, -0.008329013362526894, -0.015538718551397324, -0.05271099507808685, 0.019898435100913048, -0.0035473303869366646, -0.004416319075971842, 1.0011491775512695, -0.003763598157092929, -0.013031909242272377, -0.00024510128423571587, 0.0, 0.0, 0.0, 0, 0, 0, 0, 0, 0, -0.003763598157092929, -0.013031909242272377, -0.00024510128423571587
104336, 0.02493622899055481, -0.018718881532549858, -0.0087160998955369, 0.17879325151443481, -0.041562050580978394, -0.28432929515838623, -0.00396795803681016, -0.005277889780700207, 1.0018386840820312, -0.003855681512504816, -0.013381541706621647, -0.00024872462381608784, 0.0, 0.0, 0.0, 0, 0, 0, 0, 0, 0, -0.003855681512504816, -0.013381541706621647, -0.00024872462381608784
104346, 0.024525947868824005, -0.01674165576696396, -0.009410764090716839, -0.0985364094376564, -0.24373532831668854, -0.09960935264825821, -0.0029022793751209974, -0.004349162336438894, 1.0013196468353271, -0.003951117862015963, -0.013736399821937084, -0.0002508531615603715, 0.0, 0.0, 0.0, 0, 0, 0, 0, 0, 0, -0.003951117862015963, -0.013736399821937084, -0.0002508531615603715
104356, 0.0251289252191782, -0.0143559779971838, -0.010208132676780224, 0.2409040629863739, -0.24265190958976746, -0.021028032526373863, -0.0014520848635584116, -0.004079118836671114, 0.9993423223495483, -0.004049581475555897, -0.014096527360379696, -0.0002514542720746249, 0.0, 0.0, 0.0, 0, 0, 0, 0, 0, 0, -0.004049581475555897, -0.014096527360379696, -0.0002514542720746249
104366, 0.025471976026892662, -0.014760605059564114, -0.009155670180916786, 0.01503825280815363, 0.19002099335193634, 0.16399966180324554, -0.0013259152183309197, -0.0029017722699791193, 0.9984390139579773, -0.00415016571059823, -0.01446149218827486, -0.0002515870437491685, 0.0, 0.0, 0.0, 0, 0, 0, 0, 0, 0, -0.00415016571059823, -0.01446149218827486, -0.0002515870437491685
104376, 0.026596887037158012, -0.015346875414252281, -0.010570314712822437, 0.16566622257232666, 0.04347870498895645, -0.24127335846424103, -0.002775866072624922, -0.0038735177367925644, 0.9976618885993958, -0.004252179060131311, -0.014830459840595722, -0.00025252634077332914, 0.0, 0.0, 0.0, 0, 0, 0, 0, 0, 0, -0.004252179060131311, -0.014830459840595722, -0.00025252634077332914
104386, 0.02627280168235302, -0.014983062632381916, -0.010920282453298569, -0.13571840524673462, -0.16498057544231415, -0.12281437963247299, -0.003107252763584256, -0.005915660411119461, 0.9986510872840881, -0.004355933982878923, -0.015202922746539116, -0.0002552844525780529, 0.0, 0.0, 0.0, 0, 0, 0, 0, 0, 0, -0.004355933982878923, -0.015202922746539116, -0.0002552844525780529
104396, 0.026263346895575523, -0.014270113781094551, -0.009861916303634644, -0.023655954748392105, -0.05936824902892113, 0.1254740059375763, -0.0019348025089129806, -0.004961883649230003, 1.000178575515747, -0.00446241395547986, -0.015580193139612675, -0.0002599190338514745, 0.0, 0.0, 0.0, 0, 0, 0, 0, 0, 0, -0.00446241395547986, -0.015580193139612675, -0.0002599190338514745
104406, 0.026888905093073845, -0.013017241843044758, -0.009562811814248562, 0.0689070075750351, -0.21466854214668274, 0.008602140471339226, -0.0011225210037082434, -0.003506107721477747, 0.9998106360435486, -0.00457135122269392, -0.01596330851316452, -0.00026552873896434903, 0.0, 0.0, 0.0, 0, 0, 0, 0, 0, 0, -0.00457135122269392, -0.01596330851316452, -0.00026552873896434903
104416, 0.02893095836043358, -0.011700807139277458, -0.008244906552135944, 0.2715304493904114, -0.28030696511268616, 0.20842505991458893, -0.002799996407702565, -0.0015983954071998596, 0.9985707402229309, -0.004681803751736879, -0.016351480036973953, -0.000271431083092466, 0.0, 0.0, 0.0, 0, 0, 0, 0, 0, 0, -0.004681803751736879, -0.016351480036973953, -0.000271431083092466
104426, 0.030147479847073555, -0.011906102299690247, -0.008255084045231342, 0.09824851900339127, 0.033600930124521255, 0.026196610182523727, -0.0034114981535822153, -0.0031706318259239197, 0.9997899532318115, -0.004793890286237001, -0.01674310863018036, -0.00027772289467975497, 0.0, 0.0, 0.0, 0, 0, 0, 0, 0, 0, -0.004793890286237001, -0.01674310863018036, -0.00027772289467975497
104436, 0.030208908021450043, -0.013447042554616928, -0.008828436955809593, -0.0744362473487854, 0.30799588561058044, 0.008929971605539322, -0.003932338207960129, -0.004265117458999157, 0.9995133280754089, -0.004908636212348938, -0.017137698829174042, -0.0002846833667717874, 0.0, 0.0, 0.0, 0, 0, 0, 0, 0, 0, -0.004908636212348938, -0.017137698829174042, -0.0002846833667717874
104446, 0.03076764941215515, -0.014239627867937088, -0.00837640929967165, 0.11463642865419388, 0.19790704548358917, 0.08723526448011398, -0.0015523788752034307, -0.0038378399331122637, 1.000593900680542, -0.005026635713875294, -0.017536383122205734, -0.0002920614497270435, 0.0, 0.0, 0.0, 0, 0, 0, 0, 0, 0, -0.005026635713875294, -0.017536383122205734, -0.0002920614497270435
104456, 0.03095393255352974, -0.0132878003641963, -0.01085774227976799, 0.05831056460738182, -0.041236549615859985, -0.38389089703559875, -0.0014695768477395177, -0.0009877755073830485, 0.9985449910163879, -0.005147060379385948, -0.017939817160367966, -0.00029951430042274296, 0.0, 0.0, 0.0, 0, 0, 0, 0, 0, 0, -0.005147060379385948, -0.017939817160367966, -0.00029951430042274296
104466, 0.031414516270160675, -0.014059176668524742, -0.009851844049990177, -0.0015823765425011516, 0.1870395690202713, 1.9749471903196536e-05, -0.0005159268621355295, -0.0025273377541452646, 0.9982918500900269, -0.005268880166113377, -0.018346648663282394, -0.0003075545246247202, 0.0, 0.0, 0.0, 0, 0, 0, 0, 0, 0, -0.005268880166113377, -0.018346648663282394, -0.0003075545246247202
104476, 0.031302399933338165, -0.015892382711172104, -0.008871565572917461, 0.007308316417038441, 0.29400041699409485, 0.0176077913492918, -0.002425349783152342, -0.005599961616098881, 0.9984995126724243, -0.005391443148255348, -0.01875578612089157, -0.00031709313043393195, 0.0, 0.0, 0.0, 0, 0, 0, 0, 0, 0, -0.005391443148255348, -0.01875578612089157, -0.00031709313043393195
104486, 0.032159700989723206, -0.016151370480656624, -0.009084935300052166, 0.1858842670917511, 0.07320841401815414, -0.06442227214574814, -0.0030681255739182234, -0.006546120159327984, 0.9990003705024719, -0.005515065509825945, -0.01916876621544361, -0.0003282656252849847, 0.0, 0.0, 0.0, 0, 0, 0, 0, 0, 0, -0.005515065509825945, -0.01916876621544361, -0.0003282656252849847
104496, 0.03240897133946419, -0.014912491664290428, -0.010290572419762611, 0.056266214698553085, -0.03093401901423931, -0.03681694343686104, -0.0006037391722202301, -0.005868777632713318, 0.9990222454071045, -0.005640885327011347, -0.01958778128027916, -0.00034072124981321394, 0.0, 0.0, 0.0, 0, 0, 0, 0, 0, 0, -0.005640885327011347, -0.01958778128027916, -0.00034072124981321394
104506, 0.03406191244721413, -0.014218682423233986, -0.011491818353533745, 0.2557677924633026, -0.05560029670596123, -0.026799658313393593, -0.002455909736454487, -0.00490453140810132, 0.9987969398498535, -0.0057683358900249004, -0.02001340314745903, -0.000354133197106421, 0.0, 0.0, 0.0, 0, 0, 0, 0, 0, 0, -0.0057683358900249004, -0.02001340314745903, -0.000354133197106421
104516, 0.033513735979795456, -0.011801695451140404, -0.011494584381580353, -0.11088569462299347, -0.18986627459526062, 0.04624690115451813, -0.0003887768543791026, -0.0037465107161551714, 1.0005711317062378, -0.00589711731299758, -0.020445002242922783, -0.0003685909032355994, 0.0, 0.0, 0.0, 0, 0, 0, 0, 0, 0, -0.00589711731299758, -0.020445002242922783, -0.0003685909032355994
104526, 0.03455687686800957, -0.012415009550750256, -0.013022112660109997, 0.18030615150928497, 0.07225862145423889, -0.16912536323070526, -0.001781780505552888, -0.0037551098503172398, 1.0003892183303833, -0.006027230992913246, -0.020881744101643562, -0.00038367335218936205, 0.0, 0.0, 0.0, 0, 0, 0, 0, 0, 0, -0.006027230992913246, -0.020881744101643562, -0.00038367335218936205
104536, 0.035606734454631805, -0.012950235977768898, -0.013973681256175041, 0.08914391696453094, 0.03681925684213638, -0.0603303462266922, -0.00042734970338642597, -0.003551625646650791, 1.000720500946045, -0.006158385891467333, -0.021322911605238914, -0.00039848327287472785, 0.0, 0.0, 0.0, 0, 0, 0, 0, 0, 0, -0.006158385891467333, -0.021322911605238914, -0.00039848327287472785
104546, 0.03683650121092796, -0.012538756243884563, -0.012957390397787094, 0.17003925144672394, -0.056954141706228256, 0.3135772943496704, 0.00017972190107684582, -0.004399619530886412, 1.0003677606582642, -0.006290476303547621, -0.02176824025809765, -0.0004125962732359767, 0.0, 0.0, 0.0, 0, 0, 0, 0, 0, 0, -0.006290476303547621, -0.02176824025809765, -0.0004125962732359767
104556, 0.03722896799445152, -0.01174502819776535, -0.012631948105990887, -0.008156144060194492, 0.008118325844407082, -0.01676907390356064, -0.0018069067737087607, -0.0035708053037524223, 1.0003637075424194, -0.00642265472561121, -0.02221790701150894, -0.0004259598790667951, 0.0, 0.0, 0.0, 0, 0, 0, 0, 0, 0, -0.00642265472561121, -0.02221790701150894, -0.0004259598790667951
104566, 0.03756260126829147, -0.013903811573982239, -0.01274127047508955, -0.07197768241167068, 0.29074984788894653, 0.004380618687719107, -0.0018780018435791135, -0.004930050112307072, 1.0004448890686035, -0.006555346306413412, -0.022671889513731003, -0.0004388484812807292, 0.0, 0.0, 0.0, 0, 0, 0, 0, 0, 0, -0.006555346306413412, -0.022671889513731003, -0.0004388484812807292
104576, 0.03853916376829147, -0.01464340090751648, -0.012677943333983421, 0.04613248631358147, 0.2560003697872162, -0.026604602113366127, -0.0004466439422685653, -0.005110987927764654, 1.0018689632415771, -0.006689342204481363, -0.023130549117922783, -0.0004514032043516636, 0.0, 0.0, 0.0, 0, 0, 0, 0, 0, 0, -0.006689342204481363, -0.023130549117922783, -0.0004514032043516636
104586, 0.039754997938871384, -0.012870573438704014, -0.011730602011084557, 0.031193790957331657, 0.035938557237386703, 0.0917772650718689, -0.002587803639471531, -0.003450817195698619, 0.9993536472320557, -0.006824200041592121, -0.023594699800014496, -0.00046294074854813516, 0.0, 0.0, 0.0, 0, 0, 0, 0, 0, 0, -0.006824200041592121, -0.023594699800014496, -0.00046294074854813516
104596, 0.039214733988046646, -0.012066775932908058, -0.01204882562160492, -0.14309076964855194, 0.0011139590060338378, -0.013250824064016342, -0.0036633701529353857, -0.004475212190300226, 0.9978662133216858, -0.006960216443985701, -0.02406390942633152, -0.0004739489813800901, 0.0, 0.0, 0.0, 0, 0, 0, 0, 0, 0, -0.006960216443985701, -0.02406390942633152, -0.0004739489813800901
104606, 0.039975713938474655, -0.012853551656007767, -0.013045105151832104, 0.0405319519340992, 0.1600322425365448, -0.09031848609447479, -0.000912749907001853, -0.004617379512637854, 1.0003401041030884, -0.00709878746420145, -0.024537619203329086, -0.00048636883730068803, 0.0, 0.0, 0.0, 0, 0, 0, 0, 0, 0, -0.00709878746420145, -0.024537619203329086, -0.00048636883730068803
104616, 0.04079003259539604, -0.010825332254171371, -0.014832723885774612, 0.025838037952780724, -0.13165414333343506, -0.21670298278331757, -0.0006709330482408404, -0.0041902638040483, 0.9993408918380737, -0.007239433005452156, -0.02501632645726204, -0.0004998984513804317, 0.0, 0.0, 0.0, 0, 0, 0, 0, 0, 0, -0.007239433005452156, -0.02501632645726204, -0.0004998984513804317
104626, 0.04011452943086624, -0.01234037522226572, -0.01427531335502863, -0.17562335729599, 0.2391708642244339, -0.0070829493924975395, -0.0004488425038289279, -0.0031922347843647003, 0.9988294839859009, -0.0073806545697152615, -0.025500131770968437, -0.0005135242827236652, 0.0, 0.0, 0.0, 0, 0, 0, 0, 0, 0, -0.0073806545697152615, -0.025500131770968437, -0.0005135242827236652
104636, 0.040772777050733566, -0.012301670387387276, -0.013241906650364399, 0.06672471761703491, -0.020895006135106087, -0.0340777225792408, -0.0007433418068103492, -0.0032842133659869432, 0.998448371887207, -0.007522185333073139, -0.025988375768065453, -0.0005279533215798438, 0.0, 0.0, 0.0, 0, 0, 0, 0, 0, 0, -0.007522185333073139, -0.025988375768065453, -0.0005279533215798438
104646, 0.04115244001150131, -0.011953647248446941, -0.012810924090445042, 0.008797847665846348, 0.11200566589832306, -0.10073357075452805, 2.2667021767119877e-05, -0.004250719677656889, 0.9994533061981201, -0.007664134260267019, -0.02648058906197548, -0.0005437646759673953, 0.0, 0.0, 0.0, 0, 0, 0, 0, 0, 0, -0.007664134260267019, -0.02648058906197548, -0.0005437646759673953
104656, 0.041853152215480804, -0.010379648767411709, -0.012841957621276379, -0.01194646954536438, -0.11076188832521439, -0.14925196766853333, 0.0004981361562386155, -0.0032168799079954624, 0.9991273283958435, -0.007806289941072464, -0.02697722800076008, -0.0005606509512290359, 0.0, 0.0, 0.0, 0, 0, 0, 0, 0, 0, -0.007806289941072464, -0.02697722800076008, -0.0005606509512290359
104666, 0.042506538331508636, -0.011242460459470749, -0.012635272927582264, 0.05908076837658882, 0.10728897154331207, -0.041562870144844055, -0.0023781077470630407, -0.00513699883595109, 1.0003418922424316, -0.007948335260152817, -0.027478456497192383, -0.000578351435251534, 0.0, 0.0, 0.0, 0, 0, 0, 0, 0, 0, -0.007948335260152817, -0.027478456497192383, -0.000578351435251534
104676, 0.041858378797769547, -0.011937122792005539, -0.012147040106356144, -0.03983798623085022, 0.013549028895795345, 0.033928029239177704, -0.0010590865276753902, -0.00565149262547493, 0.9986938834190369, -0.008091120980679989, -0.027984322980046272, -0.0005963746225461364, 0.0, 0.0, 0.0, 0, 0, 0, 0, 0, 0, -0.008091120980679989, -0.027984322980046272, -0.0005963746225461364
104686, 0.041372574865818024, -0.011810044758021832, -0.011075819842517376, 0.04425818845629692, -0.2144058793783188, 0.08092711120843887, -0.0031964166555553675, -0.003831942565739155, 0.9991828203201294, -0.008235537447035313, -0.028495896607637405, -0.0006147053209133446, 0.0, 0.0, 0.0, 0, 0, 0, 0, 0, 0, -0.008235537447035313, -0.028495896607637405, -0.0006147053209133446
104696, 0.040868546813726425, -0.01276993378996849, -0.011478511616587639, -0.03442533686757088, 0.16911038756370544, -0.09587346017360687, -0.0010464972583577037, -0.003722683060914278, 0.9996730089187622, -0.008381995372474194, -0.029013102874159813, -0.0006339541869238019, 0.0, 0.0, 0.0, 0, 0, 0, 0, 0, 0, -0.008381995372474194, -0.029013102874159813, -0.0006339541869238019
104706, 0.04191889241337776, -0.014262659475207329, -0.010657897219061852, 0.1593778133392334, 0.08120674639940262, 0.09866972267627716, -0.0025252329651266336, -0.005062139127403498, 0.9990891218185425, -0.008530459366738796, -0.029535092413425446, -0.0006537811132147908, 0.0, 0.0, 0.0, 0, 0, 0, 0, 0, 0, -0.008530459366738796, -0.029535092413425446, -0.0006537811132147908
104716, 0.041877277195453644, -0.01632990501821041, -0.010761978104710579, -0.027226297184824944, 0.17858996987342834, 0.06309020519256592, -0.0011643827892839909, -0.005829765927046537, 0.9994516372680664, -0.008680535480380058, -0.03006197325885296, -0.0006740866811014712, 0.0, 0.0, 0.0, 0, 0, 0, 0, 0, 0, -0.008680535480380058, -0.03006197325885296, -0.0006740866811014712
104726, 0.04170181602239609, -0.01561536081135273, -0.010310824029147625, 0.03909708186984062, -0.21271124482154846, 0.15319345891475677, -0.002385856816545129, -0.005886530969291925, 1.000372290611267, -0.008831948973238468, -0.03059445321559906, -0.0006950641982257366, 0.0, 0.0, 0.0, 0, 0, 0, 0, 0, 0, -0.008831948973238468, -0.03059445321559906, -0.0006950641982257366
104736, 0.04178339242935181, -0.015560244210064411, -0.008963322266936302, -0.01643550954759121, 0.043077968060970306, 0.22063638269901276, -0.0019720925483852625, -0.0040220823138952255, 1.000119924545288, -0.00898471288383007, -0.031133292242884636, -0.0007160785607993603, 0.0, 0.0, 0.0, 0, 0, 0, 0, 0, 0, -0.00898471288383007, -0.031133292242884636, -0.0007160785607993603
104746, 0.04281340911984444, -0.0142014529556036, -0.00955891702324152, 0.22226767241954803, -0.1746026575565338, -0.0008133064256981015, -0.0004925701068714261, -0.004782875068485737, 0.9982304573059082, -0.009139272384345531, -0.03167807310819626, -0.000736612593755126, 0.0, 0.0, 0.0, 0, 0, 0, 0, 0, 0, -0.009139272384345531, -0.03167807310819626, -0.000736612593755126
104756, 0.042839415371418, -0.014027410186827183, -0.009674576111137867, 0.03339199721813202, 0.07494888454675674, -0.012565073557198048, -0.0014833734603598714, -0.0035964851267635822, 0.9997297525405884, -0.009294948540627956, -0.03222815319895744, -0.0007575893541797996, 0.0, 0.0, 0.0, 0, 0, 0, 0, 0, 0, -0.009294948540627956, -0.03222815319895744, -0.0007575893541797996
104766, 0.04394463822245598, -0.012207120656967163, -0.008871251717209816, 0.1802968829870224, -0.3382945954799652, 0.05810723826289177, -0.0006653873715549707, -0.004804420750588179, 1.0013883113861084, -0.009451311081647873, -0.03278312087059021, -0.0007795430137775838, 0.0, 0.0, 0.0, 0, 0, 0, 0, 0, 0, -0.009451311081647873, -0.03278312087059021, -0.0007795430137775838
104776, 0.04470864310860634, -0.012199587188661098, -0.007477927953004837, 0.15150313079357147, 0.027810221537947655, 0.16864220798015594, -0.0025385760236531496, -0.00606193533167243, 1.0018833875656128, -0.009608456864953041, -0.03334308788180351, -0.0008011797908693552, 0.0, 0.0, 0.0, 0, 0, 0, 0, 0, 0, -0.009766844101250172, -0.03390928730368614, -0.0008212996763177216
104786, 0.045273564755916595, -0.011787104420363903, -0.007530201226472855, 0.04218354821205139, -0.04594950005412102, -0.09809935092926025, -0.0014133361401036382, -0.005113381892442703, 1.000847578048706, -0.009766844101250172, -0.03390928730368614, -0.0008212996763177216, 0.0, 0.0, 0.0, 0, 0, 0, 0, 0, 0, -0.009927096776664257, -0.03448205441236496, -0.0008397604105994105
104796, 0.04507814720273018, -0.013144971802830696, -0.007954603992402554, 0.05466209352016449, 0.13008132576942444, -0.02287747524678707, -0.0019457296002656221, -0.004030880052596331, 1.0003509521484375, -0.009927096776664257, -0.03448205441236496, -0.0008397604105994105, 0.0, 0.0, 0.0, 0, 0, 0, 0, 0, 0, -0.010088787414133549, -0.035060375928878784, -0.0008574551902711391
104806, 0.04497857019305229, -0.01452056784182787, -0.008096450939774513, -0.0038757300935685635, 0.19433221220970154, -0.016601145267486572, -0.0013528907438740134, -0.004262938629835844, 1.001456379890442, -0.010088787414133549, -0.035060375928878784, -0.0008574551902711391, 0.0, 0.0, 0.0, 0, 0, 0, 0, 0, 0, -0.010251662693917751, -0.03564345836639404, -0.0008743828511796892
104816, 0.04544687271118164, -0.014745845459401608, -0.007617514114826918, 0.11620909720659256, 0.01524373795837164, 0.20049242675304413, -0.001658066757954657, -0.003424285212531686, 0.9990708231925964, -0.010251662693917751, -0.03564345836639404, -0.0008743828511796892, 0.0, 0.0, 0.0, 0, 0, 0, 0, 0, 0, -0.010415677912533283, -0.03623117879033089, -0.0008907482260838151
104826, 0.046758245676755905, -0.017257090657949448, -0.006625583861023188, 0.18726548552513123, 0.3072913587093353, 0.31137874722480774, -0.0014170986833050847, -0.0012483729515224695, 0.9983745813369751, -0.010415677912533283, -0.03623117879033089, -0.0008907482260838151, 0.0, 0.0, 0.0, 0, 0, 0, 0, 0, 0, -0.010580765083432198, -0.03682253137230873, -0.0009078365401364863
104836, 0.04678383842110634, -0.01799645647406578, -0.006385469809174538, 0.01402941532433033, -0.06964337080717087, 0.021773114800453186, -0.0022498336620628834, -0.0033214082941412926, 0.9991340041160583, -0.010580765083432198, -0.03682253137230873, -0.0009078365401364863, 0.0, 0.0, 0.0, 0, 0, 0, 0, 0, 0, -0.010747388936579227, -0.03741683065891266, -0.000925959087908268
104846, 0.047020819038152695, -0.01801794208586216, -0.006791231222450733, -0.01867636665701866, -0.028324412181973457, 0.06334786862134933, -0.0003366865566931665, -0.0035101273097097874, 1.000234842300415, -0.010747388936579227, -0.03741683065891266, -0.000925959087908268, 0.0, 0.0, 0.0, 0, 0, 0, 0, 0, 0, -0.010915258899331093, -0.038015130907297134, -0.0009446304757148027
104856, 0.046896252781152725, -0.0176018625497818, -0.0063973478972911835, -0.04949048161506653, -0.15130314230918884, -0.09089211374521255, -0.0015111544635146856, -0.0030094285029917955, 1.0008673667907715, -0.010915258899331093, -0.038015130907297134, -0.0009446304757148027, 0.0, 0.0, 0.0, 0, 0, 0, 0, 0, 0, -0.011083846911787987, -0.03861774131655693, -0.0009630239801481366
104866, 0.04644516855478287, -0.0174576323479414, -0.005447904579341412, -0.1343100666999817, 0.1673227846622467, 0.34569603204727173, -0.00012526418140623719, -0.005633873399347067, 0.9987536668777466, -0.011083846911787987, -0.03861774131655693, -0.0009630239801481366, 0.0, 0.0, 0.0, 0, 0, 0, 0, 0, 0, -0.011252790689468384, -0.03922500088810921, -0.000981341116130352
104876, 0.04617293179035187, -0.01904222182929516, -0.005278405267745256, -0.05961958318948746, 0.26880109310150146, 0.007304470986127853, -0.0014096465893089771, -0.004722838290035725, 0.9990906715393066, -0.011252790689468384, -0.03922500088810921, -0.000981341116130352, 0.0, 0.0, 0.0, 0, 0, 0, 0, 0, 0, -0.011421818286180496, -0.03983765095472336, -0.0010006338125094771
104886, 0.04546315595507622, -0.01883305422961712, -0.0075058164075016975, 0.0004147109866607934, -0.07123755663633347, -0.07119974493980408, -0.0022596551571041346, -0.0069811986759305, 1.000540018081665, -0.011421818286180496, -0.03983765095472336, -0.0010006338125094771, 0.0, 0.0, 0.0, 0, 0, 0, 0, 0, 0, -0.011421818286180496, -0.03983765095472336, -0.0010006338125094771
104896, 0.04588910937309265, -0.016707995906472206, -0.008515231311321259, 0.0733904168009758, -0.2732943892478943, -0.1511923223733902, -0.0008085747831501067, -0.004362260922789574, 1.0000940561294556, -0.01160916592925787, -0.04051899537444115, -0.0010224629659205675, 0.0, 0.0, 0.0, 0, 0, 0, 0, 0, 0, -0.01160916592925787, -0.04051899537444115, -0.0010224629659205675
104906, 0.04635583609342575, -0.017793375998735428, -0.008738058619201183, -0.015486812219023705, 0.22276555001735687, -0.11372896283864975, -0.0005663864430971444, -0.0036349748261272907, 1.000220537185669, -0.011780990287661552, -0.04114532098174095, -0.0010420510079711676, 0.0, 0.0, 0.0, 0, 0, 0, 0, 0, 0, -0.011780990287661552, -0.04114532098174095, -0.0010420510079711676
104916, 0.0465482659637928, -0.01895858347415924, -0.00836693961173296, -0.019236847758293152, 0.12000669538974762, 0.028403103351593018, -0.0015113952104002237, -0.0056884982623159885, 0.9996866583824158, -0.01195328589528799, -0.04177670180797577, -0.0010615349747240543, 0.0, 0.0, 0.0, 0, 0, 0, 0, 0, 0, -0.01195328589528799, -0.04177670180797577, -0.0010615349747240543
104926, 0.0458378829061985, -0.02018548548221588, -0.00838023517280817, -0.09669917821884155, 0.19647745788097382, 0.0338229238986969, -0.0024371210020035505, -0.003951424267143011, 0.9988514184951782, -0.012126361951231956, -0.04241345450282097, -0.001081199967302382, 0.0, 0.0, 0.0, 0, 0, 0, 0, 0, 0, -0.012126361951231956, -0.04241345450282097, -0.001081199967302382
104936, 0.04754917323589325, -0.018636586144566536, -0.007957186549901962, 0.32355615496635437, -0.26921623945236206, 0.06143638864159584, -0.0017985048471018672, -0.0041588167659938335, 1.0002431869506836, -0.012301130220293999, -0.04305580258369446, -0.0011015177005901933, 0.0, 0.0, 0.0, 0, 0, 0, 0, 0, 0, -0.012301130220293999, -0.04305580258369446, -0.0011015177005901933
104946, 0.04768972098827362, -0.02066713199019432, -0.007662573829293251, 0.14251331984996796, 0.35849976539611816, 0.1418219953775406, -0.00064768799347803, -0.0045937602408230305, 1.0008604526519775, -0.012477673590183258, -0.043702974915504456, -0.0011222270550206304, 0.0, 0.0, 0.0, 0, 0, 0, 0, 0, 0, -0.012477673590183258, -0.043702974915504456, -0.0011222270550206304
104956, 0.047521673142910004, -0.01967376470565796, -0.00773432245478034, -0.019125526770949364, -0.273826539516449, -0.01290087215602398, -0.0001941125956363976, -0.004734199494123459, 1.0002111196517944, -0.012655139900743961, -0.0443551130592823, -0.0011423429241403937, 0.0, 0.0, 0.0, 0, 0, 0, 0, 0, 0, -0.012655139900743961, -0.0443551130592823, -0.0011423429241403937
104966, 0.047981299459934235, -0.01778489723801613, -0.008226056583225727, 0.04132821038365364, -0.3083885908126831, -0.07511695474386215, -0.000657407334074378, -0.0035763834603130817, 0.9984806776046753, -0.012832704000175, -0.045012544840574265, -0.00116180838085711, 0.0, 0.0, 0.0, 0, 0, 0, 0, 0, 0, -0.012832704000175, -0.045012544840574265, -0.00116180838085711
104976, 0.04799573868513107, -0.01888808235526085, -0.008719815872609615, 0.06759073585271835, 0.2318969964981079, -0.005493764765560627, -0.0007207601447589695, -0.0036506815813481808, 1.0001566410064697, -0.0130103575065732, -0.04567500203847885, -0.0011817964259535074, 0.0, 0.0, 0.0, 0, 0, 0, 0, 0, 0, -0.0130103575065732, -0.04567500203847885, -0.0011817964259535074
104986, 0.04942987114191055, -0.017488470301032066, -0.008998091332614422, 0.23034754395484924, -0.25344714522361755, -0.10230854153633118, -0.0012805566657334566, -0.0031114225275814533, 1.0010623931884766, -0.013188323006033897, -0.04634180665016174, -0.0012023604940623045, 0.0, 0.0, 0.0, 0, 0, 0, 0, 0, 0, -0.013188323006033897, -0.04634180665016174, -0.0012023604940623045
104996, 0.04977593198418617, -0.017795128747820854, -0.00939430482685566, 0.016617245972156525, 0.06733045727014542, -0.060233280062675476, -0.001831420580856502, -0.005311936605721712, 0.9979466795921326, -0.013366877101361752, -0.047012705355882645, -0.0012223063968122005, 0.0, 0.0, 0.0, 0, 0, 0, 0, 0, 0, -0.013366877101361752, -0.047012705355882645, -0.0012223063968122005
105006, 0.04993318393826485, -0.01825823448598385, -0.010419297963380814, -0.05333787575364113, 0.023971928283572197, -0.12604601681232452, -0.0019989334978163242, -0.0035580825060606003, 1.0002026557922363, -0.013546653091907501, -0.047688644379377365, -0.0012424355372786522, 0.0, 0.0, 0.0, 0, 0, 0, 0, 0, 0, -0.013546653091907501, -0.047688644379377365, -0.0012424355372786522
105016, 0.05203316733241081, -0.016756920143961906, -0.009737811982631683, 0.33632519841194153, -0.21289411187171936, 0.12892135977745056, -0.002334749326109886, -0.003039877861738205, 1.0009249448776245, -0.013728021644055843, -0.048369795083999634, -0.001263254787772894, 0.0, 0.0, 0.0, 0, 0, 0, 0, 0, 0, -0.013728021644055843, -0.048369795083999634, -0.001263254787772894
105026, 0.052556321024894714, -0.016599472612142563, -0.011731731705367565, 0.09201265126466751, 0.043914809823036194, -0.20845656096935272, -0.0020428234711289406, -0.0036954223178327084, 0.9999622106552124, -0.013911078684031963, -0.049055084586143494, -0.0012836139649152756, 0.0, 0.0, 0.0, 0, 0, 0, 0, 0, 0, -0.013911078684031963, -0.049055084586143494, -0.0012836139649152756
105036, 0.05268070474267006, -0.017017841339111328, -0.011825360357761383, 0.19127121567726135, -0.036566346883773804, 0.14593040943145752, -0.0006195540190674365, -0.005204096902161837, 0.999424159526825, -0.01409591268748045, -0.04974453151226044, -0.001303643686696887, 0.0, 0.0, 0.0, 0, 0, 0, 0, 0, 0, -0.01409591268748045, -0.04974453151226044, -0.001303643686696887
105046, 0.053437866270542145, -0.017786750569939613, -0.01223042793571949, 0.07497820258140564, 0.23128871619701385, 0.010448554530739784, -0.0015925144543871284, -0.005295238457620144, 1.000531554222107, -0.01428197044879198, -0.050439219921827316, -0.0013241271954029799, 0.0, 0.0, 0.0, 0, 0, 0, 0, 0, 0, -0.01428197044879198, -0.050439219921827316, -0.0013241271954029799
105056, 0.05289185419678688, -0.015801774337887764, -0.013389240950345993, -0.1339140683412552, -0.12322046607732773, -0.2511919140815735, -0.0029701911844313145, -0.004026348236948252, 0.9985278248786926, -0.014468892477452755, -0.051139991730451584, -0.0013449128018692136, 0.0, 0.0, 0.0, 0, 0, 0, 0, 0, 0, -0.014468892477452755, -0.051139991730451584, -0.0013449128018692136
105066, 0.05319582670927048, -0.01575428992509842, -0.013270804658532143, 0.1567358672618866, -0.11273004114627838, 0.025600362569093704, -0.0011049369350075722, -0.005954714026302099, 1.0003914833068848, -0.014657510444521904, -0.051846470683813095, -0.0013662551064044237, 0.0, 0.0, 0.0, 0, 0, 0, 0, 0, 0, -0.014657510444521904, -0.051846470683813095, -0.0013662551064044237
105076, 0.05379302054643631, -0.016784247010946274, -0.012383055873215199, 0.0202644020318985, 0.1760198473930359, 0.1669536679983139, 0.001554709393531084, -0.007129067555069923, 1.0002548694610596, -0.01484772004187107, -0.052558913826942444, -0.001388128031976521, 0.0, 0.0, 0.0, 0, 0, 0, 0, 0, 0, -0.01484772004187107, -0.052558913826942444, -0.001388128031976521
105086, 0.05359096825122833, -0.01709744706749916, -0.01256219670176506, -0.07130099087953568, 0.017049241811037064, 0.07219898700714111, -0.0010974049801006913, -0.004775418434292078, 1.0018709897994995, -0.01503773033618927, -0.053278546780347824, -0.0014096773229539394, 0.0, 0.0, 0.0, 0, 0, 0, 0, 0, 0, -0.01503773033618927, -0.053278546780347824, -0.0014096773229539394
105096, 0.05428342893719673, -0.01639387011528015, -0.012379642575979233, 0.07433640211820602, -0.24288895726203918, -0.016211191192269325, -0.002603767439723015, -0.0026229238137602806, 0.9998742341995239, -0.015227454714477062, -0.054004766047000885, -0.0014301982009783387, 0.0, 0.0, 0.0, 0, 0, 0, 0, 0, 0, -0.015227454714477062, -0.054004766047000885, -0.0014301982009783387
105106, 0.0543704479932785, -0.01744215376675129, -0.012733557261526585, 0.06205624341964722, -9.228387352777645e-05, -0.008044065907597542, -0.002267263364046812, -0.0028417836874723434, 0.9990459680557251, -0.01541870553046465, -0.054735563695430756, -0.0014499425888061523, 0.0, 0.0, 0.0, 0, 0, 0, 0, 0, 0, -0.01541870553046465, -0.054735563695430756, -0.0014499425888061523
105116, 0.05422493815422058, -0.01820504665374756, -0.01222733873873949, -0.003955346066504717, 0.11364080756902695, 0.06377476453781128, -0.002457733964547515, -0.0032989399041980505, 1.000218391418457, -0.015612084418535233, -0.05547008663415909, -0.0014701581094413996, 0.0, 0.0, 0.0, 0, 0, 0, 0, 0, 0, -0.015612084418535233, -0.05547008663415909, -0.0014701581094413996
105126, 0.0539739653468132, -0.01950034685432911, -0.012252850458025932, 0.10272271931171417, 0.3714173436164856, 0.07127589732408524, -0.0036943729501217604, -0.006070513278245926, 1.0026549100875854, -0.015807529911398888, -0.056208666414022446, -0.001490740804001689, 0.0, 0.0, 0.0, 0, 0, 0, 0, 0, 0, -0.015807529911398888, -0.056208666414022446, -0.001490740804001689
105136, 0.05428153648972511, -0.019020510837435722, -0.012730153277516365, 0.06409575045108795, 0.13027073442935944, -0.16617712378501892, -0.000973904796410352, -0.007055319380015135, 1.0009560585021973, -0.016005858778953552, -0.056952863931655884, -0.0015101444441825151, 0.0, 0.0, 0.0, 0, 0, 0, 0, 0, 0, -0.016005858778953552, -0.056952863931655884, -0.0015101444441825151
105146, 0.05429676175117493, -0.0205700621008873, -0.012102196924388409, -0.018272045999765396, 0.1563406139612198, 0.14747564494609833, -0.0023126741871237755, -0.005205037537962198, 0.9994864463806152, -0.01620650477707386, -0.057704437524080276, -0.0015280526131391525, 0.0, 0.0, 0.0, 0, 0, 0, 0, 0, 0, -0.01620650477707386, -0.057704437524080276, -0.0015280526131391525
105156, 0.0555189773440361, -0.020971113815903664, -0.010740338824689388, 0.1139245480298996, 0.13795718550682068, 0.15940727293491364, -0.002012155018746853, -0.00496221287176013, 0.9992690086364746, -0.01640857197344303, -0.058462951332330704, -0.0015457902336493134, 0.0, 0.0, 0.0, 0, 0, 0, 0, 0, 0, -0.01640857197344303, -0.058462951332330704, -0.0015457902336493134
105166, 0.05558488517999649, -0.022075455635786057, -0.011015359312295914, 0.03160475939512253, 0.3512658476829529, 0.01080628577619791, -0.0033015224616974592, -0.005550522822886705, 0.9983197450637817, -0.016612328588962555, -0.05922744795680046, -0.0015641114441677928, 0.0, 0.0, 0.0, 0, 0, 0, 0, 0, 0, -0.016612328588962555, -0.05922744795680046, -0.0015641114441677928
105176, 0.0549815371632576, -0.021510865539312363, -0.011755852960050106, -0.14029382169246674, 0.01492645125836134, 0.020759452134370804, -0.0026737519074231386, -0.0051522329449653625, 0.9998977184295654, -0.016818314790725708, -0.0599980391561985, -0.0015834474470466375, 0.0, 0.0, 0.0, 0, 0, 0, 0, 0, 0, -0.016818314790725708, -0.0599980391561985, -0.0015834474470466375
105186, 0.05568050593137741, -0.02053726464509964, -0.012200897559523582, -0.07403981685638428, 0.024076402187347412, -0.07141252607107162, -0.001692460966296494, -0.004451461136341095, 0.9996490478515625, -0.017026929184794426, -0.060774777084589005, -0.0016034644795581698, 0.0, 0.0, 0.0, 0, 0, 0, 0, 0, 0, -0.017026929184794426, -0.060774777084589005, -0.0016034644795581698
105196, 0.05542024224996567, -0.020360488444566727, -0.014152453280985355, 0.0018339030211791396, 0.0024786482099443674, -0.23360571265220642, 0.0007275461684912443, -0.003425265895202756, 1.0020246505737305, -0.01723734848201275, -0.06155727803707123, -0.0016234375070780516, 0.0, 0.0, 0.0, 0, 0, 0, 0, 0, 0, -0.01723734848201275, -0.06155727803707123, -0.0016234375070780516
105206, 0.05667368322610855, -0.017960311844944954, -0.01497180201113224, 0.1731451004743576, -0.3871338367462158, -0.07458950579166412, 0.0004760653537232429, -0.005290189292281866, 1.0001378059387207, -0.017447933554649353, -0.06234465166926384, -0.0016425192588940263, 0.0, 0.0, 0.0, 0, 0, 0, 0, 0, 0, -0.017447933554649353, -0.06234465166926384, -0.0016425192588940263
105216, 0.05537078157067299, -0.018855571746826172, -0.016606781631708145, -0.3063875734806061, 0.0016146787675097585, -0.2509484589099884, -0.0014540798729285598, -0.004073210060596466, 0.9977683424949646, -0.01765771582722664, -0.06313695013523102, -0.0016605907585471869, 0.0, 0.0, 0.0, 0, 0, 0, 0, 0, 0, -0.01765771582722664, -0.06313695013523102, -0.0016605907585471869
105226, 0.05684869363903999, -0.017978161573410034, -0.016134103760123253, 0.28738635778427124, -0.24049797654151917, 0.15653984248638153, -0.001319793052971363, -0.0053657605312764645, 0.9987847805023193, -0.017867611721158028, -0.06393468379974365, -0.0016794254770502448, 0.0, 0.0, 0.0, 0, 0, 0, 0, 0, 0, -0.017867611721158028, -0.06393468379974365, -0.0016794254770502448
105236, 0.05758235231041908, -0.018084313720464706, -0.016293294727802277, 0.23991256952285767, -0.011851802468299866, 0.1518964171409607, -0.00194472074508667, -0.004823760595172644, 0.9987956881523132, -0.01807851344347, -0.06473810970783234, -0.0016999638173729181, 0.0, 0.0, 0.0, 0, 0, 0, 0, 0, 0, -0.01807851344347, -0.06473810970783234, -0.0016999638173729181
105246, 0.056623347103595734, -0.017711075022816658, -0.016464849933981895, -0.13379254937171936, -0.05590701848268509, 0.12156141549348831, -0.0016133213648572564, -0.003956653643399477, 0.9986734390258789, -0.018290752544999123, -0.06554737687110901, -0.0017218455905094743, 0.0, 0.0, 0.0, 0, 0, 0, 0, 0, 0, -0.018290752544999123, -0.06554737687110901, -0.0017218455905094743
105256, 0.056907545775175095, -0.016790688037872314, -0.015925079584121704, -0.029510149732232094, -0.10530522465705872, 0.1157439723610878, -0.0025709972251206636, -0.0023870347067713737, 0.9987672567367554, -0.018504556268453598, -0.06636187434196472, -0.0017448877915740013, 0.0, 0.0, 0.0, 0, 0, 0, 0, 0, 0, -0.018504556268453598, -0.06636187434196472, -0.0017448877915740013
105266, 0.057768650352954865, -0.01872972771525383, -0.016266630962491035, 0.1025712862610817, 0.27079328894615173, -0.12361960858106613, -0.0022649597376585007, -0.00585985416546464, 0.9990792274475098, -0.018720053136348724, -0.06718078255653381, -0.0017690866952762008, 0.0, 0.0, 0.0, 0, 0, 0, 0, 0, 0, -0.018720053136348724, -0.06718078255653381, -0.0017690866952762008
105276, 0.05913776159286499, -0.0181186031550169, -0.016981681808829308, 0.23787350952625275, -0.11656972765922546, 0.01120577659457922, -0.0009237151243723929, -0.006067546550184488, 0.9996324777603149, -0.018937353044748306, -0.06800476461648941, -0.001794210053049028, 0.0, 0.0, 0.0, 0, 0, 0, 0, 0, 0, -0.018937353044748306, -0.06800476461648941, -0.001794210053049028
105286, 0.059500694274902344, -0.017225518822669983, -0.015518887899816036, 0.01923343911767006, 0.018405767157673836, 0.23565424978733063, -0.0029053608886897564, -0.002167018363252282, 1.0002402067184448, -0.01915579102933407, -0.0688352957367897, -0.0018197617027908564, 0.0, 0.0, 0.0, 0, 0, 0, 0, 0, 0, -0.01915579102933407, -0.0688352957367897, -0.0018197617027908564
105296, 0.06083090230822563, -0.0165528766810894, -0.01729918271303177, 0.2958623170852661, -0.056990280747413635, -0.11623647809028625, -0.0007892611902207136, -0.0033170764800161123, 0.9980935454368591, -0.01937558315694332, -0.06967109441757202, -0.0018452408257871866, 0.0, 0.0, 0.0, 0, 0, 0, 0, 0, 0, -0.01937558315694332, -0.06967109441757202, -0.0018452408257871866
105306, 0.060937028378248215, -0.017689822241663933, -0.017888225615024567, -0.055295802652835846, 0.20456835627555847, -0.03419112041592598, -0.0012815148802474141, -0.005610714200884104, 0.9967321753501892, -0.019596826285123825, -0.0705108493566513, -0.0018714460311457515, 0.0, 0.0, 0.0, 0, 0, 0, 0, 0, 0, -0.019596826285123825, -0.0705108493566513, -0.0018714460311457515
105316, 0.06134835630655289, -0.01778350956737995, -0.017796121537685394, -0.10603328049182892, 0.09139895439147949, 0.060847342014312744, -0.0022322465665638447, -0.0026932391338050365, 1.0014559030532837, -0.01981888897716999, -0.07135571539402008, -0.0019000385655090213, 0.0, 0.0, 0.0, 0, 0, 0, 0, 0, 0, -0.01981888897716999, -0.07135571539402008, -0.0019000385655090213
105326, 0.06218127906322479, -0.017549172043800354, -0.017831698060035706, 0.11496800929307938, 0.047098513692617416, -0.030131615698337555, -0.001525154453702271, -0.0029673147946596146, 1.0009562969207764, -0.020042207092046738, -0.0722055658698082, -0.001929791527800262, 0.0, 0.0, 0.0, 0, 0, 0, 0, 0, 0, -0.020042207092046738, -0.0722055658698082, -0.001929791527800262
105336, 0.06252549588680267, -0.017530707642436028, -0.017777439206838608, 0.03943568840622902, 0.0815637856721878, 0.002731557469815016, -0.001074323896318674, -0.003046727040782571, 0.9981047511100769, -0.02026692032814026, -0.07305942475795746, -0.0019586507696658373, 0.0, 0.0, 0.0, 0, 0, 0, 0, 0, 0, -0.02026692032814026, -0.07305942475795746, -0.0019586507696658373
105346, 0.06296057999134064, -0.019288938492536545, -0.017528686672449112, 0.006453419104218483, 0.300077885389328, 0.025209352374076843, -0.0010331077501177788, -0.005134207662194967, 0.9988683462142944, -0.020492516458034515, -0.073917455971241, -0.0019878060556948185, 0.0, 0.0, 0.0, 0, 0, 0, 0, 0, 0, -0.020492516458034515, -0.073917455971241, -0.0019878060556948185
105356, 0.0616668201982975, -0.020735614001750946, -0.01727188378572464, -0.32134971022605896, 0.3464784026145935, 0.13548314571380615, -0.0005755789461545646, -0.0066284178756177425, 0.9985840320587158, -0.020718758925795555, -0.07478078454732895, -0.0020184393506497145, 0.0, 0.0, 0.0, 0, 0, 0, 0, 0, 0, -0.020718758925795555, -0.07478078454732895, -0.0020184393506497145
105366, 0.061902761459350586, -0.019966205582022667, -0.018636494874954224, -0.09001222252845764, -0.005161813925951719, -0.17461340129375458, 5.977208638796583e-05, -0.004882441833615303, 0.9974139928817749, -0.02094535529613495, -0.07565095275640488, -0.002050414215773344, 0.0, 0.0, 0.0, 0, 0, 0, 0, 0, 0, -0.02094535529613495, -0.07565095275640488, -0.002050414215773344
105376, 0.06287847459316254, -0.021803541108965874, -0.01626751571893692, 0.17299173772335052, 0.24572061002254486, 0.2822422385215759, -0.0012275159824639559, -0.003808061359450221, 1.000512719154358, -0.021171810105443, -0.07652764022350311, -0.0020842598751187325, 0.0, 0.0, 0.0, 0, 0, 0, 0, 0, 0, -0.021171810105443, -0.07652764022350311, -0.0020842598751187325
105386, 0.0634937509894371, -0.024866387248039246, -0.015752149745821953, 0.09365781396627426, 0.24642157554626465, 0.06026072800159454, -0.0005219601443968713, -0.005319963209331036, 1.0009007453918457, -0.021398469805717468, -0.07740966230630875, -0.002119176322594285, 0.0, 0.0, 0.0, 0, 0, 0, 0, 0, 0, -0.021398469805717468, -0.07740966230630875, -0.002119176322594285
105396, 0.0636354312300682, -0.02622498758137226, -0.015059302560985088, -0.003885891754180193, 0.08527393639087677, 0.18832649290561676, -0.0003467901551630348, -0.0033692261204123497, 1.0000076293945312, -0.0216255821287632, -0.07829727232456207, -0.0021535453852266073, 0.0, 0.0, 0.0, 0, 0, 0, 0, 0, 0, -0.0216255821287632, -0.07829727232456207, -0.0021535453852266073
105406, 0.06400497257709503, -0.02673914283514023, -0.015989670529961586, 0.061636924743652344, -0.07275144755840302, -0.11851000040769577, -0.0037426671478897333, -0.005881285294890404, 1.0009474754333496, -0.021852893754839897, -0.07919027656316757, -0.002187400357797742, 0.0, 0.0, 0.0, 0, 0, 0, 0, 0, 0, -0.021852893754839897, -0.07919027656316757, -0.002187400357797742
105416, 0.0642334446310997, -0.026317207142710686, -0.016493739560246468, 0.04120148345828056, -0.15231913328170776, 0.03037869557738304, -0.002353331306949258, -0.0043324013240635395, 1.0013084411621094, -0.02208171971142292, -0.08008870482444763, -0.0022207102738320827, 0.0, 0.0, 0.0, 0, 0, 0, 0, 0, 0, -0.02208171971142292, -0.08008870482444763, -0.0022207102738320827
105426, 0.06369869410991669, -0.02730732411146164, -0.017025822773575783, 0.006441064178943634, 0.15799106657505035, 0.05646815150976181, -0.0024430204648524523, -0.0053472439758479595, 1.0003868341445923, -0.022312870249152184, -0.0809929221868515, -0.0022528721019625664, 0.0, 0.0, 0.0, 0, 0, 0, 0, 0, 0, -0.022312870249152184, -0.0809929221868515, -0.0022528721019625664
105436, 0.06400075554847717, -0.029068993404507637, -0.016919037327170372, 0.14976027607917786, 0.21805408596992493, 0.007531068287789822, -0.0023140856064856052, -0.004002370405942202, 1.000454068183899, -0.022545915096998215, -0.08190300315618515, -0.0022841738536953926, 0.0, 0.0, 0.0, 0, 0, 0, 0, 0, 0, -0.022545915096998215, -0.08190300315618515, -0.0022841738536953926
105446, 0.06413768231868744, -0.03057359904050827, -0.01625138521194458, 0.03995578736066818, 0.14556831121444702, -0.05508814752101898, -0.00083267962327227, -0.0037522376514971256, 0.9999196529388428, -0.02278084307909012, -0.08281885087490082, -0.002315180841833353, 0.0, 0.0, 0.0, 0, 0, 0, 0, 0, 0, -0.02278084307909012, -0.08281885087490082, -0.002315180841833353
105456, 0.06444696336984634, -0.030246179550886154, -0.015393516048789024, -0.007346753496676683, -0.005161074455827475, -0.021402040496468544, -0.0017106476007029414, -0.005932541098445654, 0.9986826777458191, -0.02301693893969059, -0.08373960107564926, -0.002346142427995801, 0.0, 0.0, 0.0, 0, 0, 0, 0, 0, 0, -0.02301693893969059, -0.08373960107564926, -0.002346142427995801
105466, 0.06443770974874496, -0.03092365339398384, -0.013848111033439636, 0.07638691365718842, -0.07735266536474228, 0.14492996037006378, -0.0012014477979391813, -0.006177638657391071, 0.9984731674194336, -0.023253722116351128, -0.08466597646474838, -0.0023777105379849672, 0.0, 0.0, 0.0, 0, 0, 0, 0, 0, 0, -0.023253722116351128, -0.08466597646474838, -0.0023777105379849672
105476, 0.06462366878986359, -0.032318539917469025, -0.013508258387446404, 0.15695872902870178, -0.0212379302829504, 0.004216908942908049, -0.0019580216612666845, -0.007065981160849333, 1.0004158020019531, -0.023491254076361656, -0.08559921383857727, -0.002410516608506441, 0.0, 0.0, 0.0, 0, 0, 0, 0, 0, 0, -0.023491254076361656, -0.08559921383857727, -0.002410516608506441
105486, 0.06470640003681183, -0.033333104103803635, -0.013750609941780567, 0.10370182245969772, -0.0028809329960495234, -0.0845990926027298, -0.0018986257491633296, -0.004958880599588156, 1.0018867254257202, -0.023729879409074783, -0.08653974533081055, -0.0024438081309199333, 0.0, 0.0, 0.0, 0, 0, 0, 0, 0, 0, -0.023729879409074783, -0.08653974533081055, -0.0024438081309199333
105496, 0.06585829704999924, -0.03320510685443878, -0.012403185479342937, 0.0825827419757843, 0.050758011639118195, 0.14869974553585052, -0.003634639084339142, -0.005700492765754461, 0.997508704662323, -0.02397000603377819, -0.08748709410429001, -0.0024761573877185583, 0.0, 0.0, 0.0, 0, 0, 0, 0, 0, 0, -0.02397000603377819, -0.08748709410429001, -0.0024761573877185583
105506, 0.06575802713632584, -0.03584973141551018, -0.012752690352499485, -0.021998722106218338, 0.46172958612442017, -0.10709580779075623, -0.002074996940791607, -0.006437963806092739, 0.9987900257110596, -0.024212075397372246, -0.08844087272882462, -0.002508746925741434, 0.0, 0.0, 0.0, 0, 0, 0, 0, 0, 0, -0.024212075397372246, -0.08844087272882462, -0.002508746925741434
105516, 0.0654117688536644, -0.03545541688799858, -0.011974950321018696, -0.150858536362648, -0.013823410496115685, 0.06534764915704727, -0.0009105097851715982, -0.003988534212112427, 1.0007140636444092, -0.024456078186631203, -0.08940158784389496, -0.0025429611559957266, 0.0, 0.0, 0.0, 0, 0, 0, 0, 0, 0, -0.024456078186631203, -0.08940158784389496, -0.0025429611559957266
105526, 0.06673580408096313, -0.03349721431732178, -0.011177365668118, 0.13917656242847443, -0.2994152009487152, 0.04600619897246361, -0.0026735272258520126, -0.0028012231923639774, 1.000361680984497, -0.02470116689801216, -0.09036853164434433, -0.00257757562212646, 0.0, 0.0, 0.0, 0, 0, 0, 0, 0, 0, -0.02470116689801216, -0.09036853164434433, -0.00257757562212646
105536, 0.0679798424243927, -0.03390897437930107, -0.012059222906827927, 0.15405382215976715, 0.08641959726810455, -0.060961730778217316, -0.002807972487062216, -0.002196643268689513, 0.9998942017555237, -0.024947604164481163, -0.09134002774953842, -0.0026118250098079443, 0.0, 0.0, 0.0, 0, 0, 0, 0, 0, 0, -0.024947604164481163, -0.09134002774953842, -0.0026118250098079443
105546, 0.06912753731012344, -0.036282386630773544, -0.012317908927798271, 0.27240994572639465, 0.24527466297149658, -0.06270161271095276, -0.0030101460870355368, -0.005447420757263899, 0.9985143542289734, -0.025196218863129616, -0.09231506288051605, -0.002646168926730752, 0.0, 0.0, 0.0, 0, 0, 0, 0, 0, 0, -0.025196218863129616, -0.09231506288051605, -0.002646168926730752
105556, 0.06887907534837723, -0.03787768632173538, -0.012229464948177338, 0.006079983897507191, 0.11790338903665543, -0.0601932518184185, -0.002607358153909445, -0.00278833438642323, 0.9960695505142212, -0.025447286665439606, -0.09329476952552795, -0.002681426703929901, 0.0, 0.0, 0.0, 0, 0, 0, 0, 0, 0, -0.025447286665439606, -0.09329476952552795, -0.002681426703929901
105566, 0.06963083893060684, -0.0372205525636673, -0.013244446367025375, 0.019273066893219948, -0.16716213524341583, -0.07145476341247559, -0.0013267133617773652, -0.002786388387903571, 0.9980752468109131, -0.025700565427541733, -0.09427952766418457, -0.0027191885747015476, 0.0, 0.0, 0.0, 0, 0, 0, 0, 0, 0, -0.025700565427541733, -0.09427952766418457, -0.0027191885747015476
105576, 0.07112568616867065, -0.03610154613852501, -0.013977658934891224, 0.16865842044353485, -0.2020392119884491, -0.009339429438114166, -0.002371779642999172, -0.004559196997433901, 1.0000743865966797, -0.025955146178603172, -0.09526834636926651, -0.0027598023880273104, 0.0, 0.0, 0.0, 0, 0, 0, 0, 0, 0, -0.025955146178603172, -0.09526834636926651, -0.0027598023880273104
105586, 0.07053253054618835, -0.037004467099905014, -0.014000210911035538, -0.0607132650911808, 0.21210186183452606, 0.01236630603671074, -0.0021904369350522757, -0.005267063621431589, 1.0002174377441406, -0.02621074765920639, -0.09626206010580063, -0.0028014611452817917, 0.0, 0.0, 0.0, 0, 0, 0, 0, 0, 0, -0.02621074765920639, -0.09626206010580063, -0.0028014611452817917
105596, 0.07006820291280746, -0.03777702897787094, -0.01351547334343195, -0.09229286015033722, 0.04890136048197746, 0.1815652698278427, -0.0016208563465625048, -0.003877131035551429, 0.9987543225288391, -0.026467667892575264, -0.09726180136203766, -0.002843064721673727, 0.0, 0.0, 0.0, 0, 0, 0, 0, 0, 0, -0.026467667892575264, -0.09726180136203766, -0.002843064721673727
105606, 0.07026132196187973, -0.039750002324581146, -0.013262121006846428, 0.16469423472881317, 0.17921718955039978, 0.031396590173244476, -0.0011136694811284542, -0.0037449325900524855, 0.9998782873153687, -0.026725707575678825, -0.09826727956533432, -0.0028851795941591263, 0.0, 0.0, 0.0, 0, 0, 0, 0, 0, 0, -0.026725707575678825, -0.09826727956533432, -0.0028851795941591263
105616, 0.0701977089047432, -0.037534065544605255, -0.01315147802233696, 0.13259436190128326, -0.36098432540893555, -0.00471238000318408, -0.002032555639743805, -0.004276372026652098, 0.9989482164382935, -0.026984402909874916, -0.09927784651517868, -0.002927935216575861, 0.0, 0.0, 0.0, 0, 0, 0, 0, 0, 0, -0.026984402909874916, -0.09927784651517868, -0.002927935216575861
105626, 0.07026027888059616, -0.03685734421014786, -0.013773901388049126, 0.12304557859897614, -0.11917243897914886, -0.236051544547081, 0.0001230410998687148, -0.004915117751806974, 0.9992402195930481, -0.02724379301071167, -0.10029353946447372, -0.0029712580144405365, 0.0, 0.0, 0.0, 0, 0, 0, 0, 0, 0, -0.02724379301071167, -0.10029353946447372, -0.0029712580144405365
105636, 0.07085537910461426, -0.03699183464050293, -0.012993612326681614, 0.08072599023580551, -0.05584244430065155, -0.030345018953084946, 1.3715181921725161e-05, -0.004797802772372961, 0.9993818402290344, -0.027503445744514465, -0.10131479799747467, -0.0030155465938150883, 0.0, 0.0, 0.0, 0, 0, 0, 0, 0, 0, -0.027503445744514465, -0.10131479799747467, -0.0030155465938150883
105646, 0.07245776802301407, -0.036179319024086, -0.01432797871530056, 0.19766776263713837, -0.0025136531330645084, -0.23437893390655518, 0.00023461271484848112, -0.005223117768764496, 0.9981165528297424, -0.02776244655251503, -0.10234194248914719, -0.0030605471692979336, 0.0, 0.0, 0.0, 0, 0, 0, 0, 0, 0, -0.02776244655251503, -0.10234194248914719, -0.0030605471692979336
105656, 0.07219669967889786, -0.03548721224069595, -0.011970484629273415, -0.020169787108898163, 0.04415177181363106, 0.3190425634384155, -0.0007043894147500396, -0.0029603384900838137, 0.9978094696998596, -0.0280208270996809, -0.10337507724761963, -0.0031066027004271746, 0.0, 0.0, 0.0, 0, 0, 0, 0, 0, 0, -0.0280208270996809, -0.10337507724761963, -0.0031066027004271746
105666, 0.07367492467164993, -0.03528226912021637, -0.010560248047113419, 0.2203509509563446, 0.03390113636851311, 0.0647621899843216, -0.00038858450716361403, -0.0033094577956944704, 0.9989450573921204, -0.028278911486268044, -0.10441355407238007, -0.003154684789478779, 0.0, 0.0, 0.0, 0, 0, 0, 0, 0, 0, -0.028278911486268044, -0.10441355407238007, -0.003154684789478779
105676, 0.0735958069562912, -0.03350811079144478, -0.011355872265994549, -0.008228752762079239, -0.315351665019989, -0.0616510808467865, -0.00109349365811795, -0.004259475972503424, 1.00057053565979, -0.028536852449178696, -0.10545653849840164, -0.003204524051398039, 0.0, 0.0, 0.0, 0, 0, 0, 0, 0, 0, -0.028536852449178696, -0.10545653849840164, -0.003204524051398039
105686, 0.073008231818676, -0.03327307105064392, -0.010350692085921764, -0.05349709838628769, 0.06687715649604797, 0.007206762675195932, -0.00042469656909815967, -0.005344555247575045, 1.0000240802764893, -0.028794998303055763, -0.10650432109832764, -0.00325494515709579, 0.0, 0.0, 0.0, 0, 0, 0, 0, 0, 0, -0.028794998303055763, -0.10650432109832764, -0.00325494515709579
105696, 0.07317254692316055, -0.03082970716059208, -0.009859601967036724, 0.0936596468091011, -0.22045373916625977, 0.07318610697984695, -0.0021650621201843023, -0.004619468003511429, 0.999046266078949, -0.02905333787202835, -0.10755795985460281, -0.0033052610233426094, 0.0, 0.0, 0.0, 0, 0, 0, 0, 0, 0, -0.02905333787202835, -0.10755795985460281, -0.0033052610233426094
105706, 0.07310556620359421, -0.03290475904941559, -0.010113084688782692, 0.005825056228786707, 0.5005496740341187, -0.03933105990290642, -0.0008298138855025172, -0.004062695428729057, 1.0001890659332275, -0.029312167316675186, -0.1086178794503212, -0.003355902386829257, 0.0, 0.0, 0.0, 0, 0, 0, 0, 0, 0, -0.029312167316675186, -0.1086178794503212, -0.003355902386829257
105716, 0.0741349458694458, -0.03385506942868233, -0.008170586079359055, 0.08970049768686295, 0.13155631721019745, 0.17226670682430267, -0.0013138578506186604, -0.0038705188781023026, 1.0004266500473022, -0.029571902006864548, -0.10968346893787384, -0.003406883217394352, 0.0, 0.0, 0.0, 0, 0, 0, 0, 0, 0, -0.029571902006864548, -0.10968346893787384, -0.003406883217394352
105726, 0.07341977208852768, -0.032409559935331345, -0.007652193307876587, -0.07896099984645844, -0.15644383430480957, 0.03848443925380707, -0.00040492156404070556, -0.0055348677560687065, 1.0013694763183594, -0.029858345165848732, -0.11086136102676392, -0.003462711349129677, 0.0, 0.0, 0.0, 0, 0, 0, 0, 0, 0, -0.029858345165848732, -0.11086136102676392, -0.003462711349129677
105736, 0.07375473529100418, -0.032886359840631485, -0.008361432701349258, 0.08448775857686996, 0.06923910230398178, -0.08750132471323013, -0.0009208869887515903, -0.0037089937832206488, 1.0002697706222534, -0.030118992552161217, -0.11193784326314926, -0.003512739669531584, 0.0, 0.0, 0.0, 0, 0, 0, 0, 0, 0, -0.030118992552161217, -0.11193784326314926, -0.003512739669531584
105746, 0.07399427145719528, -0.03371158614754677, -0.0071401335299015045, 0.11053437739610672, 0.003731575794517994, 0.1348666399717331, -0.0020734192803502083, -0.004867102485150099, 0.9998683929443359, -0.030379734933376312, -0.11301995813846588, -0.0035619335249066353, 0.0, 0.0, 0.0, 0, 0, 0, 0, 0, 0, -0.030379734933376312, -0.11301995813846588, -0.0035619335249066353
105756, 0.07464220374822617, -0.03178439661860466, -0.007025593891739845, 0.09503161162137985, -0.23276713490486145, 0.030641034245491028, -0.00153677340131253, -0.004475324880331755, 0.9981952905654907, -0.030641311779618263, -0.11410755664110184, -0.003611002815887332, 0.0, 0.0, 0.0, 0, 0, 0, 0, 0, 0, -0.030641311779618263, -0.11410755664110184, -0.003611002815887332
105766, 0.074789859354496, -0.03126585856080055, -0.0058081867173314095, -0.046705152839422226, 0.015208009630441666, 0.11131849139928818, -0.002112730173394084, -0.00787508673965931, 0.9993507266044617, -0.030904030427336693, -0.11520116031169891, -0.003661055350676179, 0.0, 0.0, 0.0, 0, 0, 0, 0, 0, 0, -0.030904030427336693, -0.11520116031169891, -0.003661055350676179
105776, 0.0742955356836319, -0.0321970209479332, -0.005873019807040691, -0.036114100366830826, 0.08285335451364517, -0.12828809022903442, -0.0017408666899427772, -0.005576256662607193, 1.0004123449325562, -0.0311678908765316, -0.1163022443652153, -0.0037121407222002745, 0.0, 0.0, 0.0, 0, 0, 0, 0, 0, 0, -0.0311678908765316, -0.1163022443652153, -0.0037121407222002745
105786, 0.07406249642372131, -0.03242892771959305, -0.006107548717409372, 0.06851062923669815, -0.11141805350780487, -0.10090524703264236, -0.0004723357269540429, -0.000466832221718505, 1.0006006956100464, -0.03143293783068657, -0.11741097271442413, -0.0037631357554346323, 0.0, 0.0, 0.0, 0, 0, 0, 0, 0, 0, -0.03143293783068657, -0.11741097271442413, -0.0037631357554346323
105796, 0.07439210265874863, -0.03322409838438034, -0.0059343851171433926, 0.07971619069576263, -0.042532920837402344, 0.04395449161529541, -0.0007464861846528947, -0.00335181993432343, 0.997935950756073, -0.03169846907258034, -0.11852414160966873, -0.0038137829396873713, 0.0, 0.0, 0.0, 0, 0, 0, 0, 0, 0, -0.03169846907258034, -0.11852414160966873, -0.0038137829396873713
105806, 0.07445568591356277, -0.03500272333621979, -0.004725252278149128, 0.07413145899772644, 0.3084695339202881, 0.2477646768093109, -0.00251042190939188, -0.004357662983238697, 1.0014433860778809, -0.031964100897312164, -0.11964081227779388, -0.0038650245405733585, 0.0, 0.0, 0.0, 0, 0, 0, 0, 0, 0, -0.031964100897312164, -0.11964081227779388, -0.0038650245405733585
105816, 0.07357734441757202, -0.03471958264708519, -0.004980830941349268, -0.045095063745975494, -0.012985102832317352, -0.010932398959994316, -0.002179148141294718, -0.00579166179522872, 1.0013954639434814, -0.03223080560564995, -0.12076246738433838, -0.003916288260370493, 0.0, 0.0, 0.0, 0, 0, 0, 0, 0, 0, -0.03223080560564995, -0.12076246738433838, -0.003916288260370493
105826, 0.07463383674621582, -0.035680193454027176, -0.0032236080151051283, 0.049145765602588654, -0.043357059359550476, 0.2152302861213684, -0.00013339091674424708, -0.006610879208892584, 0.9993675947189331, -0.032499007880687714, -0.12189029902219772, -0.003966338932514191, 0.0, 0.0, 0.0, 0, 0, 0, 0, 0, 0, -0.032499007880687714, -0.12189029902219772, -0.003966338932514191
105836, 0.07611489295959473, -0.03510039299726486, -0.0027273029554635286, 0.0986577570438385, -0.06715909391641617, 0.12990233302116394, -0.0022632922045886517, -0.006667673587799072, 0.9998334050178528, -0.032767534255981445, -0.12302540987730026, -0.004016115330159664, 0.0, 0.0, 0.0, 0, 0, 0, 0, 0, 0, -0.032767534255981445, -0.12302540987730026, -0.004016115330159664
105846, 0.07474430650472641, -0.037248220294713974, -0.00425811717286706, -0.22885386645793915, 0.41823527216911316, -0.236192986369133, -0.0015000023413449526, -0.005310795735567808, 0.9989959597587585, -0.03303644433617592, -0.12416815757751465, -0.004066286142915487, 0.0, 0.0, 0.0, 0, 0, 0, 0, 0, 0, -0.03303644433617592, -0.12416815757751465, -0.004066286142915487
105856, 0.0746401697397232, -0.03932409733533859, -0.004869460128247738, -0.0266253761947155, 0.35461097955703735, -0.048147570341825485, -0.0021115990821272135, -0.003871480468660593, 0.9989496469497681, -0.03330639377236366, -0.12531794607639313, -0.0041170925833284855, 0.0, 0.0, 0.0, 0, 0, 0, 0, 0, 0, -0.03330639377236366, -0.12531794607639313, -0.0041170925833284855
105866, 0.07476335763931274, -0.038593847304582596, -0.005647065583616495, 0.04722299054265022, -0.04187176376581192, -0.015668969601392746, -0.002082810504361987, -0.003962572198361158, 0.9981997609138489, -0.033577460795640945, -0.126473531126976, -0.004168909974396229, 0.0, 0.0, 0.0, 0, 0, 0, 0, 0, 0, -0.033577460795640945, -0.126473531126976, -0.004168909974396229
105876, 0.0744205117225647, -0.03769392520189285, -0.00673922523856163, 0.1052645593881607, -0.032355520874261856, -0.0559941902756691, -0.000263899564743042, -0.0013280311832204461, 0.9980843663215637, -0.03384983167052269, -0.1276339888572693, -0.0042220293544232845, 0.0, 0.0, 0.0, 0, 0, 0, 0, 0, 0, -0.03384983167052269, -0.1276339888572693, -0.0042220293544232845
105886, 0.07422623783349991, -0.03517090156674385, -0.008006506599485874, -0.07029052823781967, -0.3860979676246643, -0.16734494268894196, -0.0014615271938964725, -0.004485388286411762, 0.9995989799499512, -0.034122712910175323, -0.1287982016801834, -0.004276798106729984, 0.0, 0.0, 0.0, 0, 0, 0, 0, 0, 0, -0.034122712910175323, -0.1287982016801834, -0.004276798106729984
105896, 0.07486029714345932, -0.03594383969902992, -0.009118250571191311, 4.4429914851207286e-05, 0.04083644598722458, -0.19644390046596527, -0.002930737566202879, -0.002769770100712776, 0.9992160201072693, -0.03439594805240631, -0.12996648252010345, -0.0043327296152710915, 0.0, 0.0, 0.0, 0, 0, 0, 0, 0, 0, -0.03439594805240631, -0.12996648252010345, -0.0043327296152710915
105906, 0.07563604414463043, -0.0333980917930603, -0.009594208560883999, 0.11106378585100174, -0.37244945764541626, 0.010931065306067467, -0.0020408532582223415, -0.003014292800799012, 1.0006680488586426, -0.03467068076133728, -0.13113954663276672, -0.0043891980312764645, 0.0, 0.0, 0.0, 0, 0, 0, 0, 0, 0, -0.03467068076133728, -0.13113954663276672, -0.0043891980312764645
105916, 0.07524406909942627, -0.03129686042666435, -0.00919506698846817, -0.045440252870321274, -0.1912860870361328, -0.006449741777032614, -0.0003269603766966611, -0.004861827474087477, 0.9999712705612183, -0.034947022795677185, -0.13231703639030457, -0.004445706028491259, 0.0, 0.0, 0.0, 0, 0, 0, 0, 0, 0, -0.034947022795677185, -0.13231703639030457, -0.004445706028491259
105926, 0.07532865554094315, -0.031096938997507095, -0.01068685669451952, 0.048775024712085724, 0.10311482846736908, -0.18027211725711823, 0.00011997448746114969, -0.005066053010523319, 0.9998090267181396, -0.03522368520498276, -0.13349980115890503, -0.004502155818045139, 0.0, 0.0, 0.0, 0, 0, 0, 0, 0, 0, -0.03522368520498276, -0.13349980115890503, -0.004502155818045139
105936, 0.07505987584590912, -0.02911207638680935, -0.011784323491156101, 0.055777836591005325, -0.44803598523139954, -0.06702496111392975, -0.0016850507818162441, -0.0038528230506926775, 0.9998262524604797, -0.03549991548061371, -0.13468849658966064, -0.004558705724775791, 0.0, 0.0, 0.0, 0, 0, 0, 0, 0, 0, -0.03549991548061371, -0.13468849658966064, -0.004558705724775791
105946, 0.07389271259307861, -0.028499417006969452, -0.0118228355422616, -0.13561677932739258, -0.008236967958509922, 0.15063758194446564, -0.002664472907781601, -0.005355974193662405, 0.9985933303833008, -0.03577651083469391, -0.13588282465934753, -0.004615264944732189, 0.0, 0.0, 0.0, 0, 0, 0, 0, 0, 0, -0.03577651083469391, -0.13588282465934753, -0.004615264944732189
105956, 0.07430171966552734, -0.02744436264038086, -0.011576216667890549, 0.1417234241962433, -0.029442884027957916, 0.09160730242729187, -0.00372917577624321, -0.004424047656357288, 0.9990882277488708, -0.036054715514183044, -0.13708315789699554, -0.004672640934586525, 0.0, 0.0, 0.0, 0, 0, 0, 0, 0, 0, -0.036054715514183044, -0.13708315789699554, -0.004672640934586525
105966, 0.07456879317760468, -0.029193691909313202, -0.01205017976462841, 0.1262367218732834, 0.258425235748291, 0.15411926805973053, -0.0030972978565841913, -0.005446888040751219, 1.0004103183746338, -0.036335479468107224, -0.1382898986339569, -0.004731282126158476, 0.0, 0.0, 0.0, 0, 0, 0, 0, 0, 0, -0.036335479468107224, -0.1382898986339569, -0.004731282126158476
105976, 0.07395653426647186, -0.027474619448184967, -0.012684440240263939, -0.028114648535847664, -0.3242056965827942, -0.27293094992637634, -0.0011951886117458344, -0.003442961722612381, 0.9985865950584412, -0.03661900386214256, -0.13950291275978088, -0.004790331702679396, 0.0, 0.0, 0.0, 0, 0, 0, 0, 0, 0, -0.03661900386214256, -0.13950291275978088, -0.004790331702679396
105986, 0.07515066862106323, -0.02700180374085903, -0.013673177920281887, 0.2506067752838135, -0.03180726617574692, -0.16210804879665375, 0.0012907830532640219, -0.0054778424091637135, 0.9981340765953064, -0.03690414875745773, -0.14072154462337494, -0.004849937278777361, 0.0, 0.0, 0.0, 0, 0, 0, 0, 0, 0, -0.03690414875745773, -0.14072154462337494, -0.004849937278777361
105996, 0.07587731629610062, -0.02448176220059395, -0.012855150736868382, 0.0641402080655098, -0.4717722237110138, 0.0891960859298706, -0.00098780682310462, -0.0038038112688809633, 0.9985941052436829, -0.03718901425600052, -0.14194567501544952, -0.0049111079424619675, 0.0, 0.0, 0.0, 0, 0, 0, 0, 0, 0, -0.03718901425600052, -0.14194567501544952, -0.0049111079424619675
106006, 0.07662254571914673, -0.02350657805800438, -0.013410072773694992, 0.14970973134040833, -0.008686698041856289, -0.1557244509458542, -0.001969809178262949, -0.005633819382637739, 1.000307321548462, -0.03747338056564331, -0.14317552745342255, -0.004973732866346836, 0.0, 0.0, 0.0, 0, 0, 0, 0, 0, 0, -0.03747338056564331, -0.14317552745342255, -0.004973732866346836
106016, 0.07695024460554123, -0.02304840460419655, -0.014692209661006927, 0.009109198115766048, -0.04226077347993851, -0.09627953171730042, -0.0011567914625629783, -0.003862126497551799, 0.9983136057853699, -0.0377584807574749, -0.14441144466400146, -0.00503684114664793, 0.0, 0.0, 0.0, 0, 0, 0, 0, 0, 0, -0.0377584807574749, -0.14441144466400146, -0.00503684114664793
106026, 0.07805102318525314, -0.02421635389328003, -0.014620479196310043, 0.13344572484493256, 0.12429556250572205, 0.2534753978252411, -0.0013188095763325691, -0.0034627122804522514, 0.998224139213562, -0.03804462030529976, -0.14565341174602509, -0.005100654438138008, 0.0, 0.0, 0.0, 0, 0, 0, 0, 0, 0, -0.03804462030529976, -0.14565341174602509, -0.005100654438138008
106036, 0.07978423684835434, -0.024204405024647713, -0.01578129082918167, 0.1646748185157776, -0.09210950136184692, 0.012737371027469635, -0.001042951480485499, -0.0032695611007511616, 0.997633695602417, -0.03833172097802162, -0.14690017700195312, -0.00516617251560092, 0.0, 0.0, 0.0, 0, 0, 0, 0, 0, 0, -0.03833172097802162, -0.14690017700195312, -0.00516617251560092
106046, 0.07996121048927307, -0.02408440224826336, -0.016669370234012604, -0.029550591483712196, -0.21000076830387115, -0.12462037056684494, -0.0016559328651055694, -0.006902966182678938, 1.0013335943222046, -0.03861963376402855, -0.1481516808271408, -0.0052336729131639, 0.0, 0.0, 0.0, 0, 0, 0, 0, 0, 0, -0.03861963376402855, -0.1481516808271408, -0.0052336729131639
106056, 0.08112003654241562, -0.024767594411969185, -0.016312360763549805, 0.11859513819217682, 0.17949417233467102, 0.12841664254665375, -0.002545496914535761, -0.00539647601544857, 1.0012909173965454, -0.03890838474035263, -0.14940962195396423, -0.0053016310557723045, 0.0, 0.0, 0.0, 0, 0, 0, 0, 0, 0, -0.03890838474035263, -0.14940962195396423, -0.0053016310557723045
106066, 0.0803055688738823, -0.02549867331981659, -0.01676902547478676, -0.07955965399742126, 0.152030810713768, 0.05084630474448204, -0.0030721775256097317, -0.0044061243534088135, 0.9993413090705872, -0.03919866308569908, -0.1506747007369995, -0.005368625745177269, 0.0, 0.0, 0.0, 0, 0, 0, 0, 0, 0, -0.03919866308569908, -0.1506747007369995, -0.005368625745177269
106076, 0.0818321630358696, -0.024548759683966637, -0.01626235619187355, 0.27738165855407715, 0.0476783812046051, 0.14664128422737122, -0.001109041622839868, -0.004035930149257183, 1.0013881921768188, -0.039491068571805954, -0.15194585919380188, -0.00543542206287384, 0.0, 0.0, 0.0, 0, 0, 0, 0, 0, 0, -0.039491068571805954, -0.15194585919380188, -0.00543542206287384
106086, 0.08232379704713821, -0.023556433618068695, -0.01592014543712139, -0.06278952211141586, -0.042355895042419434, 0.03798187896609306, -0.0021545200143009424, -0.0029120687395334244, 1.0006592273712158, -0.03978487476706505, -0.15322250127792358, -0.005501837003976107, 0.0, 0.0, 0.0, 0, 0, 0, 0, 0, 0, -0.03978487476706505, -0.15322250127792358, -0.005501837003976107
106096, 0.08203639835119247, -0.022812509909272194, -0.016691947355866432, -0.006756569258868694, -0.21645806729793549, -0.1172705814242363, -0.002865489572286606, -0.003371848724782467, 0.9989964962005615, -0.04007978364825249, -0.15450413525104523, -0.005567584186792374, 0.0, 0.0, 0.0, 0, 0, 0, 0, 0, 0, -0.04007978364825249, -0.15450413525104523, -0.005567584186792374
106106, 0.08244585245847702, -0.023289553821086884, -0.01694866269826889, 0.06074979901313782, 0.08176257461309433, 0.02124846540391445, -0.0028258729726076126, -0.002760704606771469, 0.9979795217514038, -0.04037674143910408, -0.15579046308994293, -0.005633684806525707, 0.0, 0.0, 0.0, 0, 0, 0, 0, 0, 0, -0.04037674143910408, -0.15579046308994293, -0.005633684806525707
106116, 0.08347180485725403, -0.02226296067237854, -0.0176061000674963, 0.07807818055152893, -0.22791960835456848, -0.0025203474797308445, -0.0005502339918166399, -0.003440150758251548, 0.9985460042953491, -0.0406760536134243, -0.15708129107952118, -0.005701170302927494, 0.0, 0.0, 0.0, 0, 0, 0, 0, 0, 0, -0.0406760536134243, -0.15708129107952118, -0.005701170302927494
106126, 0.08318232744932175, -0.023491520434617996, -0.017898760735988617, -0.08229240030050278, 0.2513718008995056, -0.10546327382326126, -0.002164687030017376, -0.0035161683335900307, 1.0011910200119019, -0.040976691991090775, -0.15837658941745758, -0.005770205054432154, 0.0, 0.0, 0.0, 0, 0, 0, 0, 0, 0, -0.040976691991090775, -0.15837658941745758, -0.005770205054432154
106136, 0.08302516490221024, -0.022387459874153137, -0.019187375903129578, 0.08624394983053207, -0.08591359853744507, -0.05128779262304306, -0.0019058515317738056, -0.004758614581078291, 0.9990971684455872, -0.041278351098299026, -0.15967676043510437, -0.005839398130774498, 0.0, 0.0, 0.0, 0, 0, 0, 0, 0, 0, -0.041278351098299026, -0.15967676043510437, -0.005839398130774498
106146, 0.0832856222987175, -0.021616922691464424, -0.019292650744318962, 0.02415401302278042, -0.12781015038490295, -0.055742599070072174, 0.0006349080940708518, -0.004527116194367409, 0.9988305568695068, -0.04158148169517517, -0.16098244488239288, -0.005908624269068241, 0.0, 0.0, 0.0, 0, 0, 0, 0, 0, 0, -0.04158148169517517, -0.16098244488239288, -0.005908624269068241
106156, 0.08394650369882584, -0.02216234803199768, -0.0195110272616148, 0.0135624585673213, -0.14021295309066772, -0.0313357450067997, 0.0003936397552024573, -0.001522772596217692, 1.0001344680786133, -0.04188479110598564, -0.16229388117790222, -0.0059788525104522705, 0.0, 0.0, 0.0, 0, 0, 0, 0, 0, 0, -0.04188479110598564, -0.16229388117790222, -0.0059788525104522705
106166, 0.08422239869832993, -0.02154826745390892, -0.0190752986818552, 0.047595199197530746, 0.0014760667691007257, 0.044491078704595566, 0.00033254746813327074, -0.005225525237619877, 1.0012649297714233, -0.042187273502349854, -0.1636098176240921, -0.0060494886711239815, 0.0, 0.0, 0.0, 0, 0, 0, 0, 0, 0, -0.042187273502349854, -0.1636098176240921, -0.0060494886711239815
106176, 0.08525241911411285, -0.021211862564086914, -0.018413277342915535, 0.19045433402061462, -0.10255728662014008, 0.14627213776111603, -0.00016744625463616103, -0.006290570367127657, 0.9992679953575134, -0.04248914122581482, -0.16493067145347595, -0.006119602359831333, 0.0, 0.0, 0.0, 0, 0, 0, 0, 0, 0, -0.04248914122581482, -0.16493067145347595, -0.006119602359831333
106186, 0.08552386611700058, -0.02221648022532463, -0.017744481563568115, -0.020880406722426414, 0.1312595158815384, 0.13728120923042297, -0.00041634601075202227, -0.004193949978798628, 0.9990012049674988, -0.04279061034321785, -0.16625811159610748, -0.0061895838007330894, 0.0, 0.0, 0.0, 0, 0, 0, 0, 0, 0, -0.04279061034321785, -0.16625811159610748, -0.0061895838007330894
106196, 0.08600326627492905, -0.0214773528277874, -0.019929304718971252, -0.009020120836794376, 0.044915154576301575, -0.11431436985731125, -0.004071003291755915, -0.005904346704483032, 1.0007338523864746, -0.04309215396642685, -0.16759192943572998, -0.006260322406888008, 0.0, 0.0, 0.0, 0, 0, 0, 0, 0, 0, -0.04309215396642685, -0.16759192943572998, -0.006260322406888008
106206, 0.08616824448108673, -0.02023502252995968, -0.020304594188928604, -0.040346741676330566, -0.058563750237226486, -0.07498404383659363, -0.0015671576838940382, -0.005798781756311655, 1.00190269947052, -0.04339545592665672, -0.16893209517002106, -0.006331300362944603, 0.0, 0.0, 0.0, 0, 0, 0, 0, 0, 0, -0.04339545592665672, -0.16893209517002106, -0.006331300362944603
106216, 0.08700565248727798, -0.01889730803668499, -0.019016802310943604, 0.07984104007482529, -0.16621026396751404, 0.09481502324342728, 0.0007466960232704878, -0.0035418106708675623, 1.000375747680664, -0.04370086267590523, -0.17027899622917175, -0.006401206366717815, 0.0, 0.0, 0.0, 0, 0, 0, 0, 0, 0, -0.04370086267590523, -0.17027899622917175, -0.006401206366717815
106226, 0.08697603642940521, -0.01977350562810898, -0.018615886569023132, -0.04485080763697624, -0.03496256470680237, 0.041710466146469116, -0.00039202114567160606, -0.004391711670905352, 1.0006028413772583, -0.044006552547216415, -0.1716317981481552, -0.00646996358409524, 0.0, 0.0, 0.0, 0, 0, 0, 0, 0, 0, -0.044006552547216415, -0.1716317981481552, -0.00646996358409524
106236, 0.08712522685527802, -0.020380940288305283, -0.01801418326795101, 0.026028824970126152, 0.1250050812959671, 0.059427034109830856, -0.000705688027665019, -0.0038970501627773046, 0.9992228150367737, -0.04431195184588432, -0.17298999428749084, -0.006538019515573978, 0.0, 0.0, 0.0, 0, 0, 0, 0, 0, 0, -0.04431195184588432, -0.17298999428749084, -0.006538019515573978
106246, 0.08765778690576553, -0.01738498918712139, -0.018393775448203087, 0.23061653971672058, -0.19699302315711975, 0.01711861975491047, -0.0034100194461643696, -0.004172413609921932, 0.9994561672210693, -0.04461774602532387, -0.17435358464717865, -0.006606000475585461, 0.0, 0.0, 0.0, 0, 0, 0, 0, 0, 0, -0.04461774602532387, -0.17435358464717865, -0.006606000475585461
106256, 0.08803601562976837, -0.018826808780431747, -0.01829458586871624, 0.06752864271402359, 0.3292105495929718, -0.03638504818081856, -0.0014569509075954556, -0.006043885834515095, 1.000354528427124, -0.044925376772880554, -0.17572256922721863, -0.006674603093415499, 0.0, 0.0, 0.0, 0, 0, 0, 0, 0, 0, -0.044925376772880554, -0.17572256922721863, -0.006674603093415499
106266, 0.0886826291680336, -0.021200479939579964, -0.016899196431040764, 0.11928820610046387, 0.20427753031253815, 0.01740287058055401, 0.0015157717280089855, -0.0033597908914089203, 1.0026850700378418, -0.04523482173681259, -0.17709799110889435, -0.006743132136762142, 0.0, 0.0, 0.0, 0, 0, 0, 0, 0, 0, -0.04523482173681259, -0.17709799110889435, -0.006743132136762142
106276, 0.08912298083305359, -0.022258883342146873, -0.016043180599808693, 0.039832279086112976, 0.0022675811778753996, 0.09732342511415482, -0.0009334015194326639, -0.0022745137102901936, 1.0012401342391968, -0.045543961226940155, -0.1784794181585312, -0.006810192950069904, 0.0, 0.0, 0.0, 0, 0, 0, 0, 0, 0, -0.045543961226940155, -0.1784794181585312, -0.006810192950069904
106286, 0.08971360325813293, -0.023219438269734383, -0.01657438464462757, 0.17959414422512054, 0.0596197135746479, 0.1254872977733612, -0.0026537778321653605, -0.0045648361556231976, 1.0010401010513306, -0.04585267975926399, -0.179865300655365, -0.006875581108033657, 0.0, 0.0, 0.0, 0, 0, 0, 0, 0, 0, -0.04585267975926399, -0.179865300655365, -0.006875581108033657
106296, 0.09052923321723938, -0.021331174299120903, -0.017617566511034966, 0.13068844377994537, -0.38077911734580994, -0.16736634075641632, -0.0017212238162755966, -0.007240924518555403, 1.0007153749465942, -0.046162623912096024, -0.1812562644481659, -0.006939938757568598, 0.0, 0.0, 0.0, 0, 0, 0, 0, 0, 0, -0.046162623912096024, -0.1812562644481659, -0.006939938757568598
106306, 0.09070409089326859, -0.021293317899107933, -0.017782634124159813, -0.08854600042104721, 0.17278635501861572, -0.047004539519548416, -0.0008529889164492488, -0.006274135783314705, 0.9987789392471313, -0.046474192291498184, -0.1826545149087906, -0.00700366823002696, 0.0, 0.0, 0.0, 0, 0, 0, 0, 0, 0, -0.046474192291498184, -0.1826545149087906, -0.00700366823002696
106316, 0.09177953749895096, -0.01936495676636696, -0.01861393265426159, 0.09319119900465012, -0.001790760550647974, -0.04422345757484436, -0.0006494910921901464, -0.003303778124973178, 0.9998868107795715, -0.04678673669695854, -0.18406088650226593, -0.007067679427564144, 0.0, 0.0, 0.0, 0, 0, 0, 0, 0, 0, -0.04678673669695854, -0.18406088650226593, -0.007067679427564144
106326, 0.09347064793109894, -0.015984058380126953, -0.019116226583719254, 0.25111833214759827, -0.33422526717185974, -0.09504808485507965, -0.002289529424160719, -0.004765438847243786, 1.0015385150909424, -0.04709988459944725, -0.18547382950782776, -0.007132106460630894, 0.0, 0.0, 0.0, 0, 0, 0, 0, 0, 0, -0.04709988459944725, -0.18547382950782776, -0.007132106460630894
106336, 0.09389426559209824, -0.016566867008805275, -0.01952410489320755, -0.0012053817044943571, 0.10094523429870605, -0.12520809471607208, -0.002332608448341489, -0.003730388591066003, 1.001645803451538, -0.04741423949599266, -0.186892569065094, -0.00719575397670269, 0.0, 0.0, 0.0, 0, 0, 0, 0, 0, 0, -0.04741423949599266, -0.186892569065094, -0.00719575397670269
106346, 0.0949774831533432, -0.016172343865036964, -0.019526315852999687, 0.26819902658462524, -0.13859030604362488, 0.055786292999982834, -0.0024692730512470007, -0.004073029384016991, 1.0000958442687988, -0.04773056134581566, -0.18831706047058105, -0.007257870864123106, 0.0, 0.0, 0.0, 0, 0, 0, 0, 0, 0, -0.04773056134581566, -0.18831706047058105, -0.007257870864123106
106356, 0.09446850419044495, -0.01609521172940731, -0.020062370225787163, -0.10327242314815521, -0.18798555433750153, -0.02102043107151985, -0.0028516873717308044, -0.0037794988602399826, 0.998144268989563, -0.048048995435237885, -0.18974696099758148, -0.007319277618080378, 0.0, 0.0, 0.0, 0, 0, 0, 0, 0, 0, -0.048048995435237885, -0.18974696099758148, -0.007319277618080378
106366, 0.0947207361459732, -0.016115056350827217, -0.02008342556655407, 0.020958127453923225, -0.00729502085596323, -0.0022816243581473827, -0.0004191334010101855, -0.002665573265403509, 0.9993534088134766, -0.04836957901716232, -0.19118225574493408, -0.007381664589047432, 0.0, 0.0, 0.0, 0, 0, 0, 0, 0, 0, -0.04836957901716232, -0.19118225574493408, -0.007381664589047432
106376, 0.0953352153301239, -0.01563182845711708, -0.020927904173731804, 0.12382876127958298, -0.294269323348999, -0.08778904378414154, 0.0008276444859802723, -0.0016598018119111657, 1.0009721517562866, -0.04869117587804794, -0.19262227416038513, -0.0074452608823776245, 0.0, 0.0, 0.0, 0, 0, 0, 0, 0, 0, -0.04869117587804794, -0.19262227416038513, -0.0074452608823776245
106386, 0.09587836265563965, -0.01876528561115265, -0.020803838968276978, 0.1676441878080368, 0.5978711247444153, 0.13853560388088226, -0.0011836558114737272, -0.004010695032775402, 1.0011106729507446, -0.04901224747300148, -0.19406607747077942, -0.007508688140660524, 0.0, 0.0, 0.0, 0, 0, 0, 0, 0, 0, -0.04901224747300148, -0.19406607747077942, -0.007508688140660524
106396, 0.09668736904859543, -0.018182117491960526, -0.021281113848090172, 0.2056119740009308, -0.008989373221993446, 0.059304602444171906, -0.0026836299803107977, -0.0057688187807798386, 0.9999996423721313, -0.049333348870277405, -0.19551442563533783, -0.007571234367787838, 0.0, 0.0, 0.0, 0, 0, 0, 0, 0, 0, -0.049333348870277405, -0.19551442563533783, -0.007571234367787838
106406, 0.09540821611881256, -0.018709741532802582, -0.021393362432718277, -0.24898375570774078, 0.2327505201101303, 0.16417841613292694, -0.0005149461794644594, -0.0056656477972865105, 0.9994414448738098, -0.0496559739112854, -0.19696934521198273, -0.007633498404175043, 0.0, 0.0, 0.0, 0, 0, 0, 0, 0, 0, -0.0496559739112854, -0.19696934521198273, -0.007633498404175043
106416, 0.0954054519534111, -0.017277874052524567, -0.022593196481466293, 0.0881628468632698, -0.20618821680545807, -0.21242985129356384, 0.00010910476703429595, -0.004729694686830044, 0.9993624091148376, -0.049979858100414276, -0.19843155145645142, -0.007696120068430901, 0.0, 0.0, 0.0, 0, 0, 0, 0, 0, 0, -0.049979858100414276, -0.19843155145645142, -0.007696120068430901
106426, 0.09542069584131241, -0.016417738050222397, -0.023190367966890335, 0.08104531466960907, -0.18785807490348816, 0.06635262817144394, 0.0005448948941193521, -0.005381410010159016, 1.0006861686706543, -0.05030367523431778, -0.19990061223506927, -0.007759307976812124, 0.0, 0.0, 0.0, 0, 0, 0, 0, 0, 0, -0.05030367523431778, -0.19990061223506927, -0.007759307976812124
106436, 0.09520700573921204, -0.016581758856773376, -0.02371867001056671, -0.0018608634127303958, -0.06435872614383698, 0.03811882436275482, -0.0014732533600181341, -0.0054489863105118275, 1.0019962787628174, -0.05062686279416084, -0.20137645304203033, -0.007822620682418346, 0.0, 0.0, 0.0, 0, 0, 0, 0, 0, 0, -0.05062686279416084, -0.20137645304203033, -0.007822620682418346
106446, 0.0955076590180397, -0.01680554449558258, -0.024330852553248405, 0.07847917824983597, -0.1718842089176178, -0.08887649327516556, -0.000797793734818697, -0.004215806722640991, 1.0019516944885254, -0.05095021054148674, -0.20285920798778534, -0.007884930819272995, 0.0, 0.0, 0.0, 0, 0, 0, 0, 0, 0, -0.05095021054148674, -0.20285920798778534, -0.007884930819272995
106456, 0.0958208218216896, -0.01595289260149002, -0.024656804278492928, -0.015337685123085976, -0.1547730267047882, -0.18880364298820496, -0.0018836510134860873, -0.002369462978094816, 0.9991733431816101, -0.05127442628145218, -0.20434831082820892, -0.007945532910525799, 0.0, 0.0, 0.0, 0, 0, 0, 0, 0, 0, -0.05127442628145218, -0.20434831082820892, -0.007945532910525799
106466, 0.09544447809457779, -0.015949632972478867, -0.024397529661655426, -0.23724457621574402, -0.04636172577738762, -0.02066200226545334, -0.0010399313177913427, -0.004544717259705067, 0.9984443187713623, -0.05159974470734596, -0.20584248006343842, -0.008005509153008461, 0.0, 0.0, 0.0, 0, 0, 0, 0, 0, 0, -0.05159974470734596, -0.20584248006343842, -0.008005509153008461
106476, 0.09559106826782227, -0.014441628940403461, -0.024190165102481842, 0.057310428470373154, -0.21763916313648224, -0.052627336233854294, -0.0001325994817307219, -0.0016712677897885442, 1.0001213550567627, -0.05192618817090988, -0.20734165608882904, -0.008066650480031967, 0.0, 0.0, 0.0, 0, 0, 0, 0, 0, 0, -0.05192618817090988, -0.20734165608882904, -0.008066650480031967
106486, 0.09663420915603638, -0.015812475234270096, -0.02321198768913746, 0.20431125164031982, 0.08359488844871521, 0.1642642319202423, -3.938345253118314e-05, -0.0018111758399754763, 1.0001760721206665, -0.052253104746341705, -0.20884549617767334, -0.00812866073101759, 0.0, 0.0, 0.0, 0, 0, 0, 0, 0, 0, -0.052253104746341705, -0.20884549617767334, -0.00812866073101759
106496, 0.0966312438249588, -0.014819702133536339, -0.02318457141518593, -0.02011052705347538, -0.21008403599262238, 0.022208573296666145, -0.0017178683774545789, -0.0040748026221990585, 0.999699592590332, -0.05257999897003174, -0.2103528529405594, -0.008190479129552841, 0.0, 0.0, 0.0, 0, 0, 0, 0, 0, 0, -0.05257999897003174, -0.2103528529405594, -0.008190479129552841
106506, 0.09780459105968475, -0.014643242582678795, -0.02353839948773384, 0.1639402061700821, -0.005962291732430458, -0.08865915238857269, -0.001223989063873887, -0.005164529196918011, 1.0008811950683594, -0.05290728434920311, -0.21186475455760956, -0.008252226747572422, 0.0, 0.0, 0.0, 0, 0, 0, 0, 0, 0, -0.05290728434920311, -0.21186475455760956, -0.008252226747572422
106516, 0.09824565798044205, -0.011973973363637924, -0.023936139419674873, 0.16556406021118164, -0.39887359738349915, 0.02504332736134529, -0.004426924511790276, -0.004945110529661179, 1.0004079341888428, -0.0532686784863472, -0.21353507041931152, -0.00831982959061861, 0.0, 0.0, 0.0, 0, 0, 0, 0, 0, 0, -0.0532686784863472, -0.21353507041931152, -0.00831982959061861
106526, 0.09855552762746811, -0.015125835314393044, -0.023458484560251236, -0.07561158388853073, 0.4381931722164154, -0.06803722679615021, -0.0018390233162790537, -0.004274583421647549, 1.000064492225647, -0.05359983816742897, -0.2150605469942093, -0.0083806486800313, 0.0, 0.0, 0.0, 0, 0, 0, 0, 0, 0, -0.05359983816742897, -0.2150605469942093, -0.0083806486800313
106536, 0.09891590476036072, -0.015882624313235283, -0.02485387586057186, 0.08048783987760544, 0.026972107589244843, -0.38809651136398315, -0.0013074487214908004, -0.005448304116725922, 1.0001745223999023, -0.05396716296672821, -0.2167457938194275, -0.008447028696537018, 0.0, 0.0, 0.0, 0, 0, 0, 0, 0, 0, -0.05396716296672821, -0.2167457938194275, -0.008447028696537018
106546, 0.09886961430311203, -0.01722683012485504, -0.02532338723540306, 0.017863892018795013, 0.10070722550153732, -0.12302631884813309, 0.0006126363878138363, -0.002675330266356468, 1.0002235174179077, -0.054302509874105453, -0.21828438341617584, -0.00850703101605177, 0.0, 0.0, 0.0, 0, 0, 0, 0, 0, 0, -0.054302509874105453, -0.21828438341617584, -0.00850703101605177
106556, 0.09932031482458115, -0.015646375715732574, -0.025643078610301018, 0.06792580336332321, 0.06077141687273979, 0.040008071810007095, -0.00023369916016235948, -0.0041852788999676704, 0.9997425675392151, -0.0546378530561924, -0.21982847154140472, -0.008566834963858128, 0.0, 0.0, 0.0, 0, 0, 0, 0, 0, 0, -0.0546378530561924, -0.21982847154140472, -0.008566834963858128
106566, 0.09932031482458115, -0.015646375715732574, -0.025643078610301018, -0.2008882761001587, -0.015410996042191982, -0.11349134147167206, -0.0022882719058543444, -0.004806975834071636, 0.9999936819076538, -0.054972853511571884, -0.2213779240846634, -0.00862663984298706, 0.0, 0.0, 0.0, 0, 0, 0, 0, 0, 0, -0.054972853511571884, -0.2213779240846634, -0.00862663984298706
106576, 0.09840675443410873, -0.015517489984631538, -0.027716027572751045, 0.09378104656934738, 0.01111507136374712, -0.0512734055519104, -0.0005046910955570638, -0.0030996259301900864, 0.9986549615859985, -0.05530887469649315, -0.22293350100517273, -0.008686835877597332, 0.0, 0.0, 0.0, 0, 0, 0, 0, 0, 0, -0.05530887469649315, -0.22293350100517273, -0.008686835877597332
106586, 0.09952163696289062, -0.015105778351426125, -0.027158305048942566, -0.09756443649530411, 0.0421740785241127, -0.04083320125937462, -0.0023826954420655966, -0.002474109409376979, 1.0007723569869995, -0.05564587935805321, -0.2244945913553238, -0.008747915737330914, 0.0, 0.0, 0.0, 0, 0, 0, 0, 0, 0, -0.05564587935805321, -0.2244945913553238, -0.008747915737330914
106596, 0.09869104623794556, -0.01611851342022419, -0.02702704630792141, 0.06859872490167618, 0.15412984788417816, -0.12060065567493439, -0.0021988048683851957, -0.002274710452184081, 1.0009490251541138, -0.055984124541282654, -0.2260601818561554, -0.00880881305783987, 0.0, 0.0, 0.0, 0, 0, 0, 0, 0, 0, -0.055984124541282654, -0.2260601818561554, -0.00880881305783987
