timeTick, roll, pitch, yaw, gyroX, gyroY, gyroZ, accX, accY, accZ, stateX, stateY, stateZ, target_x, target_y, target_z, otX, otY, otZ, otRoll, otPitch, otYaw, kalX, kalY, kalZ
11837, -0.003730915253981948, -0.0018371411133557558, -0.19095489382743835, 0, 0, 0, 0, 0, 0, 0, 0, 0, 0, 0, 0, 0, 0, 0, 0, 0, 0, 0, 0, 0
11847, -0.002805011346936226, -0.0015769784804433584, -0.1900256872177124, -0.17333775758743286, -0.1589294970035553, -0.010443315841257572, -0.0034422597382217646, -0.0031496554147452116, 0.9986333250999451, -0.5793347954750061, -1.3345446586608887, -0.12049013376235962, 0.0, 0.0, 0.0, 0, 0, 0, 0, 0, 0, -0.5793347954750061, -1.3345446586608887, -0.12049013376235962
11857, -0.0021713748574256897, -0.0003387772885616869, -0.19040647149085999, -0.05967948958277702, -0.04643100127577782, -0.09703756123781204, -0.002618184080347419, -0.003658424597233534, 1.0007175207138062, -0.5807090997695923, -1.337587833404541, -0.12076407670974731, 0.0, 0.0, 0.0, 0, 0, 0, 0, 0, 0, -0.5807090997695923, -1.337587833404541, -0.12076407670974731
11867, -0.002461605239659548, -0.0003883581957779825, -0.19077402353286743, -0.2205224335193634, 0.1362546980381012, -0.056835200637578964, -0.0015760508831590414, -0.003373592859134078, 1.001046061515808, -0.5820858478546143, -1.3406344652175903, -0.12103766202926636, 0.0, 0.0, 0.0, 0, 0, 0, 0, 0, 0, -0.5820858478546143, -1.3406344652175903, -0.12103766202926636
11877, -0.003476780839264393, -0.001472504693083465, -0.19150550663471222, -0.12489765137434006, -0.03188134729862213, 0.04647287726402283, -0.0013019575271755457, -0.002315413672477007, 0.9989601373672485, -0.5834642052650452, -1.3436843156814575, -0.12131050229072571, 0.0, 0.0, 0.0, 0, 0, 0, 0, 0, 0, -0.5834642052650452, -1.3436843156814575, -0.12131050229072571
11887, -0.0038000354543328285, 0.0008324423106387258, -0.1906549334526062, 0.04808630049228668, -0.2003258317708969, -0.08693312108516693, -0.0004493061569519341, -0.0015734032494947314, 0.9969566464424133, -0.584843635559082, -1.3467365503311157, -0.12158405035734177, 0.0, 0.0, 0.0, 0, 0, 0, 0, 0, 0, -0.584843635559082, -1.3467365503311157, -0.12158405035734177
11897, -0.003368034726008773, -0.0006709978333674371, -0.1910596787929535, 0.09781645238399506, 0.3481784462928772, 0.17035585641860962, -0.004452514462172985, -0.0028390183579176664, 0.9990705847740173, -0.5862241983413696, -1.3497906923294067, -0.12185980379581451, 0.0, 0.0, 0.0, 0, 0, 0, 0, 0, 0, -0.5862241983413696, -1.3497906923294067, -0.12185980379581451
11907, -0.0035030492581427097, -0.0023327781818807125, -0.19126737117767334, -0.13807149231433868, 0.14357347786426544, -0.06607047468423843, -0.005190136842429638, -0.003870893968269229, 0.999029815196991, -0.5876080393791199, -1.3528472185134888, -0.12213699519634247, 0.0, 0.0, 0.0, 0, 0, 0, 0, 0, 0, -0.5876080393791199, -1.3528472185134888, -0.12213699519634247
11917, -0.004910720512270927, -0.00378097384236753, -0.19090747833251953, 0.12423516809940338, 0.1641276329755783, -0.027554787695407867, -0.003604946890845895, -0.0044848923571407795, 1.000239610671997, -0.5889965891838074, -1.3559072017669678, -0.12241493165493011, 0.0, 0.0, 0.0, 0, 0, 0, 0, 0, 0, -0.5889965891838074, -1.3559072017669678, -0.12241493165493011
11927, -0.0036199595779180527, -0.004884836729615927, -0.19129151105880737, 0.01934487745165825, 0.12383422255516052, -0.3142552971839905, -0.002035162877291441, -0.004181880969554186, 1.00194251537323, -0.590388834476471, -1.3589715957641602, -0.12269281595945358, 0.0, 0.0, 0.0, 0, 0, 0, 0, 0, 0, -0.590388834476471, -1.3589715957641602, -0.12269281595945358
11937, -0.004547037649899721, -0.006415367592126131, -0.19209280610084534, 0.22934703528881073, -0.1913793683052063, -0.1434134542942047, -0.0039031922351568937, -0.004261630121618509, 1.0000883340835571, -0.5917837619781494, -1.3620399236679077, -0.12296926975250244, 0.0, 0.0, 0.0, 0, 0, 0, 0, 0, 0, -0.5917837619781494, -1.3620399236679077, -0.12296926975250244
11947, -0.00287614855915308, -0.0052643874660134315, -0.19255295395851135, 0.11434829235076904, 0.08214014768600464, 0.024227825924754143, -0.0029719029553234577, -0.006104722619056702, 0.9978458285331726, -0.5931817889213562, -1.365112543106079, -0.12324528396129608, 0.0, 0.0, 0.0, 0, 0, 0, 0, 0, 0, -0.5931817889213562, -1.365112543106079, -0.12324528396129608
11957, -0.001857455587014556, -0.0042114416137337685, -0.19363506138324738, 0.1014803871512413, -0.18827813863754272, -0.05201452597975731, -0.0020157075487077236, -0.00509602390229702, 0.9995390772819519, -0.5945826172828674, -1.3681907653808594, -0.12352254241704941, 0.0, 0.0, 0.0, 0, 0, 0, 0, 0, 0, -0.5945826172828674, -1.3681907653808594, -0.12352254241704941
11967, -0.0012771072797477245, -0.002627464709803462, -0.19258415699005127, 0.17397774755954742, -0.23082047700881958, 0.034305915236473083, -0.0017853977624326944, -0.004475134890526533, 1.0005747079849243, -0.5959854125976562, -1.3712742328643799, -0.12380047142505646, 0.0, 0.0, 0.0, 0, 0, 0, 0, 0, 0, -0.5959854125976562, -1.3712742328643799, -0.12380047142505646
11977, 0.00047272289521060884, -0.0030011774506419897, -0.19347481429576874, 0.08908548951148987, 0.04677608609199524, -0.11119447648525238, -0.0016961615765467286, -0.0030106506310403347, 0.9984639286994934, -0.5973901748657227, -1.3743618726730347, -0.12407825142145157, 0.0, 0.0, 0.0, 0, 0, 0, 0, 0, 0, -0.5973901748657227, -1.3743618726730347, -0.12407825142145157
11987, -0.00010897713218582794, -0.0027093023527413607, -0.1943865716457367, -0.0337563194334507, -0.07195371389389038, -0.14848177134990692, -0.001995327416807413, -0.0007676620734855533, 1.0002264976501465, -0.5987964272499084, -1.3774523735046387, -0.12435668706893921, 0.0, 0.0, 0.0, 0, 0, 0, 0, 0, 0, -0.5987964272499084, -1.3774523735046387, -0.12435668706893921
11997, 0.0003321067779324949, -0.002469397149980068, -0.19440233707427979, 0.18981727957725525, 0.04669060930609703, -0.22358468174934387, -0.0019325398607179523, -0.000996505143120885, 0.9982337355613708, -0.6002042889595032, -1.3805440664291382, -0.12463589012622833, 0.0, 0.0, 0.0, 0, 0, 0, 0, 0, 0, -0.6002042889595032, -1.3805440664291382, -0.12463589012622833
12007, 0.00013529640273191035, -0.004071167670190334, -0.19501596689224243, 0.043175242841243744, 0.06507694721221924, 0.047256868332624435, -0.004415683913975954, -0.0031183669343590736, 1.0011184215545654, -0.6016143560409546, -1.3836368322372437, -0.12491574883460999, 0.0, 0.0, 0.0, 0, 0, 0, 0, 0, 0, -0.6016143560409546, -1.3836368322372437, -0.12491574883460999
12017, 0.0008797937771305442, -0.0040397425182163715, -0.19542482495307922, -0.022089054808020592, 0.29677173495292664, -0.1950424164533615, -0.00205982755869627, -0.005292980466037989, 1.000806450843811, -0.60302734375, -1.386732578277588, -0.12519532442092896, 0.0, 0.0, 0.0, 0, 0, 0, 0, 0, 0, -0.60302734375, -1.386732578277588, -0.12519532442092896
12027, 0.000778663030359894, -0.005394092760980129, -0.1951838880777359, 0.03134375065565109, -0.24715448915958405, 0.132476806640625, -0.0028484631329774857, -0.002413618378341198, 0.9996554255485535, -0.6044432520866394, -1.389832615852356, -0.12547391653060913, 0.0, 0.0, 0.0, 0, 0, 0, 0, 0, 0, -0.6044432520866394, -1.389832615852356, -0.12547391653060913
12037, 0.001361222704872489, -0.004666847176849842, -0.19518336653709412, -0.10279364138841629, -0.18765635788440704, 0.14263127744197845, -0.002326791640371084, -0.0036043664440512657, 0.998802900314331, -0.6058614253997803, -1.3929359912872314, -0.12575243413448334, 0.0, 0.0, 0.0, 0, 0, 0, 0, 0, 0, -0.6058614253997803, -1.3929359912872314, -0.12575243413448334
12047, 0.001309976214542985, -0.0044104428961873055, -0.1934540569782257, -0.048883967101573944, 0.09069527685642242, 0.14702634513378143, -0.0007326976046897471, -0.0038826775271445513, 0.998834490776062, -0.6072816252708435, -1.3960425853729248, -0.12603186070919037, 0.0, 0.0, 0.0, 0, 0, 0, 0, 0, 0, -0.6072816252708435, -1.3960425853729248, -0.12603186070919037
12057, 0.0009640710195526481, -0.005871329922229052, -0.19342243671417236, 0.016466686502099037, -0.026712343096733093, -0.08789036422967911, -0.0016700034029781818, -0.0034772297367453575, 1.0008138418197632, -0.6087031960487366, -1.3991529941558838, -0.1263120472431183, 0.0, 0.0, 0.0, 0, 0, 0, 0, 0, 0, -0.6087031960487366, -1.3991529941558838, -0.1263120472431183
12067, 0.0012824403820559382, -0.00660730991512537, -0.19417455792427063, 0.22416457533836365, 0.037962425500154495, 0.12711189687252045, -0.0038395989686250687, -0.005659152287989855, 0.9980278611183167, -0.6101264953613281, -1.402267336845398, -0.1265922635793686, 0.0, 0.0, 0.0, 0, 0, 0, 0, 0, 0, -0.6101264953613281, -1.402267336845398, -0.1265922635793686
12077, 0.002502359915524721, -0.005967651028186083, -0.19437630474567413, 0.016304872930049896, 0.07109435647726059, 0.05731881037354469, -0.0013134102337062359, -0.004178172908723354, 0.9986051321029663, -0.6115525960922241, -1.4053864479064941, -0.1268734186887741, 0.0, 0.0, 0.0, 0, 0, 0, 0, 0, 0, -0.6115525960922241, -1.4053864479064941, -0.1268734186887741
12087, 0.0030808441806584597, -0.005351165309548378, -0.19576780498027802, -0.039931055158376694, -0.16209758818149567, 0.008760932832956314, -0.002149963518604636, -0.0037226907443255186, 0.9994335174560547, -0.6129810214042664, -1.4085102081298828, -0.12715613842010498, 0.0, 0.0, 0.0, 0, 0, 0, 0, 0, 0, -0.6129810214042664, -1.4085102081298828, -0.12715613842010498
12097, 0.002436942420899868, -0.004248376004397869, -0.1956125646829605, -0.008102551102638245, -0.16114091873168945, 0.0676509216427803, -0.0021875391248613596, -0.004093680065125227, 0.9993058443069458, -0.6144111752510071, -1.411637783050537, -0.1274397224187851, 0.0, 0.0, 0.0, 0, 0, 0, 0, 0, 0, -0.6144111752510071, -1.411637783050537, -0.1274397224187851
12107, 0.0025240664836019278, -0.0015797154046595097, -0.19446083903312683, -0.011781194247305393, -0.5295546650886536, 0.027187345549464226, -0.0038515697233378887, -0.0013641081750392914, 0.9999016523361206, -0.615843653678894, -1.4147688150405884, -0.12772367894649506, 0.0, 0.0, 0.0, 0, 0, 0, 0, 0, 0, -0.615843653678894, -1.4147688150405884, -0.12772367894649506
12117, 0.003734548343345523, 0.0009526016656309366, -0.1934019923210144, 0.047229766845703125, -0.018143130466341972, 0.019429726526141167, -0.0027179804164916277, -0.005698091816157103, 0.9987450242042542, -0.6172788143157959, -1.4179027080535889, -0.1280081570148468, 0.0, 0.0, 0.0, 0, 0, 0, 0, 0, 0, -0.6172788143157959, -1.4179027080535889, -0.1280081570148468
12127, 0.0029112843330949545, 0.0008985235472209752, -0.19401168823242188, -0.008752002380788326, -0.008036925457417965, -0.04039234295487404, -0.002952738432213664, -0.004036381375044584, 0.9991783499717712, -0.6187169551849365, -1.421040415763855, -0.12829361855983734, 0.0, 0.0, 0.0, 0, 0, 0, 0, 0, 0, -0.6187169551849365, -1.421040415763855, -0.12829361855983734
12137, 0.0030894719529896975, 0.0003925638156943023, -0.1942588984966278, -0.11695202440023422, -0.30948856472969055, 0.06250958144664764, -0.0019848609808832407, -0.0027288354467600584, 1.000333309173584, -0.6201580166816711, -1.424182653427124, -0.12857982516288757, 0.0, 0.0, 0.0, 0, 0, 0, 0, 0, 0, -0.6201580166816711, -1.424182653427124, -0.12857982516288757
12147, 0.0034865872003138065, 0.0013627170119434595, -0.19288820028305054, 0.04558524861931801, 0.04585186392068863, -0.05772995576262474, 7.120997906895354e-05, -0.0027149508241564035, 0.9996429085731506, -0.6216011047363281, -1.4273282289505005, -0.1288660764694214, 0.0, 0.0, 0.0, 0, 0, 0, 0, 0, 0, -0.6216011047363281, -1.4273282289505005, -0.1288660764694214
12157, 0.0033888923935592175, 5.682547634933144e-05, -0.19223915040493011, 0.08898568898439407, -0.005458436440676451, -0.039182983338832855, -0.0016501439968124032, -0.003377692075446248, 0.9992555975914001, -0.6230449676513672, -1.4304766654968262, -0.12915247678756714, 0.0, 0.0, 0.0, 0, 0, 0, 0, 0, 0, -0.6230449676513672, -1.4304766654968262, -0.12915247678756714
12167, 0.003481067018583417, 0.0028851530514657497, -0.1928005963563919, -0.2314971387386322, 0.15074126422405243, -0.004104188177734613, -0.0014911508187651634, -0.0028181211091578007, 0.9986979961395264, -0.6244897842407227, -1.4336283206939697, -0.12943953275680542, 0.0, 0.0, 0.0, 0, 0, 0, 0, 0, 0, -0.6244897842407227, -1.4336283206939697, -0.12943953275680542
12177, 0.003721594111993909, 0.003526089945808053, -0.1938093602657318, -0.0004263205628376454, -0.047712769359350204, -0.04975143074989319, -0.002030289499089122, -0.002128021791577339, 0.9992784261703491, -0.6259363889694214, -1.4367830753326416, -0.12972760200500488, 0.0, 0.0, 0.0, 0, 0, 0, 0, 0, 0, -0.6259363889694214, -1.4367830753326416, -0.12972760200500488
12187, 0.004312078934162855, 0.003653458086773753, -0.19338317215442657, 0.16185806691646576, -0.03505578637123108, 0.08647903800010681, -9.126134682446718e-05, -0.004252039827406406, 0.9990879893302917, -0.627384603023529, -1.439940333366394, -0.13001666963100433, 0.0, 0.0, 0.0, 0, 0, 0, 0, 0, 0, -0.627384603023529, -1.439940333366394, -0.13001666963100433
12197, 0.005660070106387138, 0.0048457421362400055, -0.19382914900779724, 0.028941089287400246, -0.2171018421649933, -0.032941676676273346, -0.001526756677776575, -0.003682038513943553, 1.0010238885879517, -0.6288335919380188, -1.4431008100509644, -0.13030634820461273, 0.0, 0.0, 0.0, 0, 0, 0, 0, 0, 0, -0.6288335919380188, -1.4431008100509644, -0.13030634820461273
12207, 0.00603819452226162, 0.00443582609295845, -0.1936408281326294, 0.1800805926322937, 0.094466932117939, -0.0489056333899498, -0.001673601334914565, -0.00483910134062171, 0.9999577403068542, -0.6302832961082458, -1.4462653398513794, -0.1305956095457077, 0.0, 0.0, 0.0, 0, 0, 0, 0, 0, 0, -0.6302832961082458, -1.4462653398513794, -0.1305956095457077
12217, 0.006225099321454763, 0.004808018449693918, -0.1937256157398224, 0.0038584466092288494, -0.08932609856128693, -0.12331286817789078, -0.0017925100401043892, -0.0035176915116608143, 0.9991472959518433, -0.6317344903945923, -1.4494341611862183, -0.13088448345661163, 0.0, 0.0, 0.0, 0, 0, 0, 0, 0, 0, -0.6317344903945923, -1.4494341611862183, -0.13088448345661163
12227, 0.005502576939761639, 0.004264765419065952, -0.19518356025218964, -0.18813832104206085, 0.10112260282039642, -0.24524502456188202, -0.0030178981833159924, -0.0027594035491347313, 0.9990671873092651, -0.6331877112388611, -1.4526070356369019, -0.1311740279197693, 0.0, 0.0, 0.0, 0, 0, 0, 0, 0, 0, -0.6331877112388611, -1.4526070356369019, -0.1311740279197693
12237, 0.004334139171987772, 0.0033039904665201902, -0.19577494263648987, -0.07674434781074524, 0.28576165437698364, -0.14575712382793427, -0.0025916541926562786, -0.002479138784110546, 0.9984176158905029, -0.6346437931060791, -1.4557827711105347, -0.13146471977233887, 0.0, 0.0, 0.0, 0, 0, 0, 0, 0, 0, -0.6346437931060791, -1.4557827711105347, -0.13146471977233887
12247, 0.004414931405335665, 0.0024258296471089125, -0.1950024664402008, 0.15880921483039856, -0.32011207938194275, -0.05120173096656799, -0.0029362051282078028, -0.00463121198117733, 1.0012376308441162, -0.636103093624115, -1.4589611291885376, -0.1317564845085144, 0.0, 0.0, 0.0, 0, 0, 0, 0, 0, 0, -0.636103093624115, -1.4589611291885376, -0.1317564845085144
12257, 0.0046781389974057674, 0.002316364087164402, -0.19671037793159485, -0.07903359830379486, 0.056870222091674805, -0.20585450530052185, 0.0011090062325820327, -0.0036945168394595385, 0.9985367655754089, -0.6375647783279419, -1.4621433019638062, -0.1320483237504959, 0.0, 0.0, 0.0, 0, 0, 0, 0, 0, 0, -0.6375647783279419, -1.4621433019638062, -0.1320483237504959
12267, 0.003839696990326047, 0.0018982640467584133, -0.19715172052383423, 0.11936914175748825, 0.06665737181901932, -0.21279370784759521, -0.0017847723793238401, -0.0029357492458075285, 0.9995751976966858, -0.6390271782875061, -1.4653294086456299, -0.13234049081802368, 0.0, 0.0, 0.0, 0, 0, 0, 0, 0, 0, -0.6390271782875061, -1.4653294086456299, -0.13234049081802368
12277, 0.004313747398555279, 0.0017507292795926332, -0.1978836953639984, 0.0960870161652565, 0.06970913708209991, -0.17435674369335175, -0.0021985755302011967, -0.0032675156835466623, 1.000129222869873, -0.6404905915260315, -1.4685187339782715, -0.13263347744941711, 0.0, 0.0, 0.0, 0, 0, 0, 0, 0, 0, -0.6404905915260315, -1.4685187339782715, -0.13263347744941711
12287, 0.005260231904685497, 0.0006111004622653127, -0.1974097341299057, 0.01451930869370699, 0.06615255028009415, 0.12430757284164429, -0.002106012310832739, -0.004398013465106487, 1.0009950399398804, -0.6419562697410583, -1.4717113971710205, -0.13292640447616577, 0.0, 0.0, 0.0, 0, 0, 0, 0, 0, 0, -0.6419562697410583, -1.4717113971710205, -0.13292640447616577
12297, 0.0056998953223228455, -0.0005168311763554811, -0.19666513800621033, 0.08366058021783829, -0.03506309539079666, 0.1988089680671692, -0.0012253551976755261, -0.002537870081141591, 0.999600887298584, -0.6434239149093628, -1.4749078750610352, -0.1332188844680786, 0.0, 0.0, 0.0, 0, 0, 0, 0, 0, 0, -0.6434239149093628, -1.4749078750610352, -0.1332188844680786
12307, 0.005097011104226112, -0.0009146383963525295, -0.19776763021945953, 0.16930311918258667, -0.07938667386770248, 0.15504813194274902, -0.001795875490643084, -0.00310940551571548, 1.0010813474655151, -0.6448930501937866, -1.478107213973999, -0.13351093232631683, 0.0, 0.0, 0.0, 0, 0, 0, 0, 0, 0, -0.6448930501937866, -1.478107213973999, -0.13351093232631683
12317, 0.005349590443074703, -0.00015517436258960515, -0.19629725813865662, -0.013479062356054783, -0.056050125509500504, 0.20743130147457123, -0.0032033531460911036, -0.004606026690453291, 0.9996526837348938, -0.6463639736175537, -1.4813096523284912, -0.13380253314971924, 0.0, 0.0, 0.0, 0, 0, 0, 0, 0, 0, -0.6463639736175537, -1.4813096523284912, -0.13380253314971924
12327, 0.0047727469354867935, -0.0009632424334995449, -0.19506603479385376, 0.07668498903512955, 0.2517441511154175, 0.0026044605765491724, -0.003042193129658699, -0.0010518499184399843, 1.0006935596466064, -0.6478375792503357, -1.48451566696167, -0.13409382104873657, 0.0, 0.0, 0.0, 0, 0, 0, 0, 0, 0, -0.6478375792503357, -1.48451566696167, -0.13409382104873657
12337, 0.003748029936105013, -0.001467728754505515, -0.19395127892494202, -0.0721960961818695, -0.04238782078027725, 0.022606568410992622, -0.003186445450410247, -0.0017633497482165694, 1.0013326406478882, -0.6493142247200012, -1.487723708152771, -0.1343846172094345, 0.0, 0.0, 0.0, 0, 0, 0, 0, 0, 0, -0.6493142247200012, -1.487723708152771, -0.1343846172094345
12347, 0.0022604826372116804, -0.0005271591944620013, -0.19546426832675934, 0.0054980372078716755, 0.05504601448774338, -0.033897578716278076, -0.001735479338094592, -0.004388855770230293, 0.9993553757667542, -0.6507936716079712, -1.4909335374832153, -0.13467466831207275, 0.0, 0.0, 0.0, 0, 0, 0, 0, 0, 0, -0.6507936716079712, -1.4909335374832153, -0.13467466831207275
12357, 0.003105943091213703, -0.001046805176883936, -0.19285181164741516, 0.08034056425094604, -0.14173178374767303, 0.1286935955286026, 0.000326488574501127, -0.0023011735174804926, 1.0004500150680542, -0.652274489402771, -1.4941465854644775, -0.13496431708335876, 0.0, 0.0, 0.0, 0, 0, 0, 0, 0, 0, -0.652274489402771, -1.4941465854644775, -0.13496431708335876
12367, 0.0034660298842936754, 0.00019993232854176313, -0.19406649470329285, 0.12495741993188858, -0.2361435890197754, -0.08365011215209961, -0.002088542329147458, -0.00225891568697989, 0.9987349510192871, -0.6537558436393738, -1.4973626136779785, -0.13525383174419403, 0.0, 0.0, 0.0, 0, 0, 0, 0, 0, 0, -0.6537558436393738, -1.4973626136779785, -0.13525383174419403
12377, 0.003204359207302332, 0.0018150245305150747, -0.194473534822464, 0.058583278208971024, 0.08594738692045212, -0.20116867125034332, -0.0014728307723999023, -0.004355357959866524, 0.9974959492683411, -0.6552385091781616, -1.5005812644958496, -0.13554440438747406, 0.0, 0.0, 0.0, 0, 0, 0, 0, 0, 0, -0.6552385091781616, -1.5005812644958496, -0.13554440438747406
12387, 0.002735039684921503, 0.0011417621280997992, -0.1952512413263321, -0.11344596743583679, 0.10469220578670502, 0.06772315502166748, -0.000590447336435318, -0.0036342181265354156, 1.0003434419631958, -0.6567227244377136, -1.5038036108016968, -0.1358364224433899, 0.0, 0.0, 0.0, 0, 0, 0, 0, 0, 0, -0.6567227244377136, -1.5038036108016968, -0.1358364224433899
12397, 0.003252548398450017, 9.669541759649292e-05, -0.19488848745822906, -0.014647122472524643, 0.2783249020576477, -0.019333304837346077, -0.001866337493993342, -0.0037208921276032925, 1.000382423400879, -0.6582080125808716, -1.50702965259552, -0.1361287385225296, 0.0, 0.0, 0.0, 0, 0, 0, 0, 0, 0, -0.6582080125808716, -1.50702965259552, -0.1361287385225296
12407, 0.0033050619531422853, -0.0014794529415667057, -0.19410036504268646, 0.023585014045238495, 0.2571411728858948, 0.18615533411502838, -0.0007325041224248707, -0.0027366785798221827, 1.000352382659912, -0.6596945524215698, -1.5102591514587402, -0.1364208161830902, 0.0, 0.0, 0.0, 0, 0, 0, 0, 0, 0, -0.6596945524215698, -1.5102591514587402, -0.1364208161830902
12417, 0.0035833052825182676, -0.0024603563360869884, -0.19461432099342346, 0.08177528530359268, 0.11104445904493332, 0.0931038185954094, 0.0016459901817142963, -0.0042498111724853516, 0.9993420839309692, -0.6611818671226501, -1.5134919881820679, -0.1367127001285553, 0.0, 0.0, 0.0, 0, 0, 0, 0, 0, 0, -0.6611818671226501, -1.5134919881820679, -0.1367127001285553
12427, 0.004509014543145895, -0.0030502581503242254, -0.19416500627994537, 0.200301855802536, -0.3401213586330414, 0.06775406748056412, -0.0005792947486042976, -0.004143847152590752, 0.998627245426178, -0.6626685261726379, -1.5167288780212402, -0.13700491189956665, 0.0, 0.0, 0.0, 0, 0, 0, 0, 0, 0, -0.6626685261726379, -1.5167288780212402, -0.13700491189956665
12437, 0.004703575279563665, -0.003510879585519433, -0.1945103257894516, 0.07162795215845108, 0.055768609046936035, 0.14725063741207123, -0.00204542581923306, -0.0028638045769184828, 0.9996806383132935, -0.6641548275947571, -1.5199700593948364, -0.13729780912399292, 0.0, 0.0, 0.0, 0, 0, 0, 0, 0, 0, -0.6641548275947571, -1.5199700593948364, -0.13729780912399292
12447, 0.0039053913205862045, -0.003197444835677743, -0.19458015263080597, -0.08528570830821991, -0.0052667888812720776, -0.16481751203536987, -0.002051551127806306, -0.0013670494081452489, 1.0005923509597778, -0.665642499923706, -1.5232142210006714, -0.13759107887744904, 0.0, 0.0, 0.0, 0, 0, 0, 0, 0, 0, -0.665642499923706, -1.5232142210006714, -0.13759107887744904
12457, 0.004037016537040472, -0.004559300374239683, -0.19423110783100128, 0.19357939064502716, 0.17070145905017853, -0.04261571913957596, -0.0015790362376719713, -0.0035457918420434, 0.999224841594696, -0.6671319603919983, -1.5264605283737183, -0.1378844976425171, 0.0, 0.0, 0.0, 0, 0, 0, 0, 0, 0, -0.6671319603919983, -1.5264605283737183, -0.1378844976425171
12467, 0.004434923641383648, -0.005623800214380026, -0.1944861114025116, -0.09169688820838928, 0.04269568249583244, -0.15116268396377563, -0.003192145610228181, -0.004668343812227249, 0.9994584321975708, -0.6686234474182129, -1.5297099351882935, -0.13817811012268066, 0.0, 0.0, 0.0, 0, 0, 0, 0, 0, 0, -0.6686234474182129, -1.5297099351882935, -0.13817811012268066
12477, 0.0036399783566594124, -0.0054341452196240425, -0.1959884613752365, -0.15070901811122894, -0.023312261328101158, -0.10698378086090088, -0.0014210197841748595, -0.005118539556860924, 0.9995843172073364, -0.6701173782348633, -1.532963752746582, -0.13847219944000244, 0.0, 0.0, 0.0, 0, 0, 0, 0, 0, 0, -0.6701173782348633, -1.532963752746582, -0.13847219944000244
12487, 0.0036041021812707186, -0.00458744540810585, -0.19448858499526978, -0.027905093505978584, 0.3257768452167511, -0.007613546214997768, -0.00042231741826981306, -0.002881665015593171, 0.9988188743591309, -0.6716129779815674, -1.536221981048584, -0.13876678049564362, 0.0, 0.0, 0.0, 0, 0, 0, 0, 0, 0, -0.6716129779815674, -1.536221981048584, -0.13876678049564362
12497, 0.0030094338580965996, -0.00473930686712265, -0.1949634999036789, 0.06310831755399704, -0.17116601765155792, 0.07991411536931992, -0.0016585448756814003, -0.0017240016022697091, 0.9982924461364746, -0.6731091737747192, -1.5394834280014038, -0.1390620917081833, 0.0, 0.0, 0.0, 0, 0, 0, 0, 0, 0, -0.6731091737747192, -1.5394834280014038, -0.1390620917081833
12507, 0.0035212081857025623, -0.004812999628484249, -0.19574953615665436, 0.19203467667102814, 0.03573905676603317, -0.13415849208831787, -0.0030181920155882835, -0.00028696999652311206, 0.9992547035217285, -0.6746068596839905, -1.5427464246749878, -0.1393587589263916, 0.0, 0.0, 0.0, 0, 0, 0, 0, 0, 0, -0.6746068596839905, -1.5427464246749878, -0.1393587589263916
12517, 0.0033042975701391697, -0.006522846408188343, -0.19632428884506226, -0.007031926419585943, 0.2489313930273056, -0.0037289499305188656, -0.0016361754387617111, -0.0030223322100937366, 1.0015712976455688, -0.6761069297790527, -1.5460103750228882, -0.13965623080730438, 0.0, 0.0, 0.0, 0, 0, 0, 0, 0, 0, -0.6761069297790527, -1.5460103750228882, -0.13965623080730438
12527, 0.0034398490097373724, -0.00904854666441679, -0.19577138125896454, -0.06624307483434677, 0.28469735383987427, 0.17252202332019806, -0.002135709160938859, -0.003978502470999956, 1.0018057823181152, -0.6776087880134583, -1.5492767095565796, -0.13995292782783508, 0.0, 0.0, 0.0, 0, 0, 0, 0, 0, 0, -0.6776087880134583, -1.5492767095565796, -0.13995292782783508
12537, 0.002339874627068639, -0.011236462742090225, -0.1957952082157135, -0.004867881070822477, 0.15393371880054474, -0.061170052736997604, -0.0026796148158609867, -0.003330392064526677, 0.999515950679779, -0.6791125535964966, -1.5525466203689575, -0.14024823904037476, 0.0, 0.0, 0.0, 0, 0, 0, 0, 0, 0, -0.6791125535964966, -1.5525466203689575, -0.14024823904037476
12547, 0.002507343888282776, -0.011445627547800541, -0.1967734694480896, -0.03430908918380737, 0.003982336260378361, 0.11197003722190857, -0.0004764366603922099, -0.0012895868858322501, 1.0000666379928589, -0.6806182265281677, -1.5558196306228638, -0.1405431032180786, 0.0, 0.0, 0.0, 0, 0, 0, 0, 0, 0, -0.6806182265281677, -1.5558196306228638, -0.1405431032180786
12557, 0.001610588631592691, -0.011876914650201797, -0.195574551820755, 0.10937194526195526, 0.1108509972691536, -0.004022818524390459, -0.0008779444033280015, -0.00528364721685648, 1.0007349252700806, -0.6821247339248657, -1.5590952634811401, -0.14083802700042725, 0.0, 0.0, 0.0, 0, 0, 0, 0, 0, 0, -0.6821247339248657, -1.5590952634811401, -0.14083802700042725
12567, 0.0016985054826363921, -0.010410767048597336, -0.19568592309951782, 0.09523831307888031, -0.13705463707447052, 0.024405723437666893, 0.00019555700419005007, -0.005495903082191944, 0.9996474385261536, -0.6836315393447876, -1.5623749494552612, -0.14113250374794006, 0.0, 0.0, 0.0, 0, 0, 0, 0, 0, 0, -0.6836315393447876, -1.5623749494552612, -0.14113250374794006
12577, 0.002175502013415098, -0.011528284288942814, -0.19611820578575134, -0.043982964009046555, 0.02872908115386963, -0.07657027989625931, -0.0024992888793349266, -0.0029020572546869516, 0.999873161315918, -0.6851387023925781, -1.565659761428833, -0.14142675697803497, 0.0, 0.0, 0.0, 0, 0, 0, 0, 0, 0, -0.6851387023925781, -1.565659761428833, -0.14142675697803497
12587, 0.0012883392628282309, -0.013592786155641079, -0.19485324621200562, 0.013877497054636478, -0.13350272178649902, 0.2369248867034912, -0.0021283358801156282, -0.0032985182479023933, 1.000941514968872, -0.6866471767425537, -1.5689481496810913, -0.14172089099884033, 0.0, 0.0, 0.0, 0, 0, 0, 0, 0, 0, -0.6866471767425537, -1.5689481496810913, -0.14172089099884033
12597, 0.0008480454562231898, -0.012530354782938957, -0.1945612132549286, -0.022653233259916306, -0.06730067729949951, -0.031925853341817856, -0.0014576485846191645, -0.0034577997867017984, 0.9993762969970703, -0.6881576776504517, -1.5722395181655884, -0.14201465249061584, 0.0, 0.0, 0.0, 0, 0, 0, 0, 0, 0, -0.6881576776504517, -1.5722395181655884, -0.14201465249061584
12607, 0.0015650942223146558, -0.011584368534386158, -0.19417919218540192, -0.007961306720972061, 0.05923348292708397, -0.048233792185783386, -2.394777948211413e-05, -0.004563094116747379, 1.0002363920211792, -0.6896693110466003, -1.5755342245101929, -0.14230868220329285, 0.0, 0.0, 0.0, 0, 0, 0, 0, 0, 0, -0.6896693110466003, -1.5755342245101929, -0.14230868220329285
12617, 0.0026036968920379877, -0.011198955588042736, -0.19486920535564423, 0.045094188302755356, -0.08499152958393097, -0.14305533468723297, 0.00034878816222772, -0.004626547452062368, 1.0008052587509155, -0.6911811828613281, -1.5788332223892212, -0.14260268211364746, 0.0, 0.0, 0.0, 0, 0, 0, 0, 0, 0, -0.6911811828613281, -1.5788332223892212, -0.14260268211364746
12627, 0.0022099551279097795, -0.012155955657362938, -0.1941021829843521, -0.043558839708566666, 0.1544555425643921, -0.043603572994470596, -0.002126853447407484, -0.005708605516701937, 1.0006707906723022, -0.692693293094635, -1.582137107849121, -0.1428961455821991, 0.0, 0.0, 0.0, 0, 0, 0, 0, 0, 0, -0.692693293094635, -1.582137107849121, -0.1428961455821991
12637, 0.0020356725435703993, -0.012847378849983215, -0.19535724818706512, -0.1150839701294899, -0.289389044046402, -0.020191740244627, -0.0018435337115079165, -0.005184348206967115, 1.0001254081726074, -0.6942064166069031, -1.5854463577270508, -0.1431889533996582, 0.0, 0.0, 0.0, 0, 0, 0, 0, 0, 0, -0.6942064166069031, -1.5854463577270508, -0.1431889533996582
12647, 0.002650646725669503, -0.01208372414112091, -0.19476807117462158, 0.197635218501091, -0.127346932888031, -0.11254201829433441, -0.0012319018132984638, -0.00543326698243618, 0.9994019269943237, -0.6957210302352905, -1.5887610912322998, -0.14348116517066956, 0.0, 0.0, 0.0, 0, 0, 0, 0, 0, 0, -0.6957210302352905, -1.5887610912322998, -0.14348116517066956
12657, 0.0033701607026159763, -0.010316834785044193, -0.19458621740341187, 0.05477254465222359, -0.34301355481147766, -0.044048797339200974, -0.00040607148548588157, -0.003270883811637759, 1.000422477722168, -0.6972367763519287, -1.5920809507369995, -0.14377357065677643, 0.0, 0.0, 0.0, 0, 0, 0, 0, 0, 0, -0.6972367763519287, -1.5920809507369995, -0.14377357065677643
12667, 0.0034187370911240578, -0.011356974020600319, -0.19395999610424042, 0.03365683928132057, 0.31383517384529114, 0.19659236073493958, -0.00037746995803900063, -0.0048085474409163, 0.9983437657356262, -0.6987531781196594, -1.595405101776123, -0.14406628906726837, 0.0, 0.0, 0.0, 0, 0, 0, 0, 0, 0, -0.6987531781196594, -1.595405101776123, -0.14406628906726837
12677, 0.0036451604682952166, -0.012228311039507389, -0.1934884786605835, -0.10322456806898117, -0.07533631473779678, -0.04377809911966324, 0.0005888069281354547, -0.005265440326184034, 0.9983980655670166, -0.7002698183059692, -1.598733901977539, -0.14435985684394836, 0.0, 0.0, 0.0, 0, 0, 0, 0, 0, 0, -0.7002698183059692, -1.598733901977539, -0.14435985684394836
12687, 0.003727422561496496, -0.012847872450947762, -0.1933874636888504, -0.0676671490073204, 0.06354323774576187, -0.10869639366865158, -0.002785710385069251, -0.0028018136508762836, 0.9984135627746582, -0.7017865777015686, -1.6020673513412476, -0.14465492963790894, 0.0, 0.0, 0.0, 0, 0, 0, 0, 0, 0, -0.7017865777015686, -1.6020673513412476, -0.14465492963790894
12697, 0.0030834469944238663, -0.012971431016921997, -0.19482387602329254, 0.05327213555574417, 0.20161978900432587, -0.031167414039373398, -0.0008256100700236857, -0.00277048721909523, 1.000875473022461, -0.7033045887947083, -1.6054041385650635, -0.14495103061199188, 0.0, 0.0, 0.0, 0, 0, 0, 0, 0, 0, -0.7033045887947083, -1.6054041385650635, -0.14495103061199188
12707, 0.004110273905098438, -0.013540368527173996, -0.19420740008354187, -0.18642231822013855, -0.20012739300727844, 0.06599979847669601, -0.0009710160666145384, -0.004631004761904478, 0.9998287558555603, -0.7048238515853882, -1.6087437868118286, -0.14524705708026886, 0.0, 0.0, 0.0, 0, 0, 0, 0, 0, 0, -0.7048238515853882, -1.6087437868118286, -0.14524705708026886
12717, 0.0032568916212767363, -0.01254072692245245, -0.19569702446460724, -0.07439059764146805, 0.20724119246006012, -0.004580469336360693, -0.0021946446504443884, -0.005779831670224667, 0.9991087913513184, -0.7063440084457397, -1.6120879650115967, -0.14554312825202942, 0.0, 0.0, 0.0, 0, 0, 0, 0, 0, 0, -0.7063440084457397, -1.6120879650115967, -0.14554312825202942
12727, 0.00384351285174489, -0.011087344028055668, -0.1953635811805725, 0.035089634358882904, 0.13461029529571533, 0.05802011862397194, -0.002359634032472968, -0.005254965275526047, 0.999871551990509, -0.707865834236145, -1.615437626838684, -0.14584001898765564, 0.0, 0.0, 0.0, 0, 0, 0, 0, 0, 0, -0.707865834236145, -1.615437626838684, -0.14584001898765564
12737, 0.002783701755106449, -0.012963889166712761, -0.19477689266204834, -0.12435496598482132, 0.07733339071273804, 0.1961243897676468, -0.0017479424132034183, -0.0033630947582423687, 1.0002071857452393, -0.7093896269798279, -1.6187925338745117, -0.1461372673511505, 0.0, 0.0, 0.0, 0, 0, 0, 0, 0, 0, -0.7093896269798279, -1.6187925338745117, -0.1461372673511505
12747, 0.0019991693552583456, -0.013445757329463959, -0.19454573094844818, -0.11440503597259521, -0.20525038242340088, -0.06344138085842133, -0.0014644319890066981, -0.0035036320332437754, 0.9990791082382202, -0.7109149098396301, -1.6221516132354736, -0.14643466472625732, 0.0, 0.0, 0.0, 0, 0, 0, 0, 0, 0, -0.7109149098396301, -1.6221516132354736, -0.14643466472625732
12757, 0.0017064436106011271, -0.011442063376307487, -0.19561119377613068, -0.011159480549395084, -0.0037046021316200495, -0.22750207781791687, -0.0011738946195691824, -0.00448525371029973, 0.9993550777435303, -0.7124412655830383, -1.625514268875122, -0.1467326432466507, 0.0, 0.0, 0.0, 0, 0, 0, 0, 0, 0, -0.7124412655830383, -1.625514268875122, -0.1467326432466507
12767, 0.0010531750740483403, -0.010696695186197758, -0.1959875375032425, -0.009228070266544819, -0.12660740315914154, -0.02770882099866867, -0.0013871153350919485, -0.0030912163201719522, 0.998677670955658, -0.7139686346054077, -1.6288808584213257, -0.14703157544136047, 0.0, 0.0, 0.0, 0, 0, 0, 0, 0, 0, -0.7139686346054077, -1.6288808584213257, -0.14703157544136047
12777, 0.0006242488161660731, -0.011548301205039024, -0.19640161097049713, 0.11179967224597931, -0.0313526950776577, -0.17351871728897095, -0.002661636332049966, -0.003420823020860553, 1.0007771253585815, -0.7154970765113831, -1.6322510242462158, -0.1473311185836792, 0.0, 0.0, 0.0, 0, 0, 0, 0, 0, 0, -0.7154970765113831, -1.6322510242462158, -0.1473311185836792
12787, 0.0010341631714254618, -0.009712358936667442, -0.19729997217655182, -0.05279872193932533, -0.2871687710285187, 0.09612087905406952, -0.0027619691099971533, -0.0014880540547892451, 0.9998095035552979, -0.7170276045799255, -1.6356245279312134, -0.14763063192367554, 0.0, 0.0, 0.0, 0, 0, 0, 0, 0, 0, -0.7170276045799255, -1.6356245279312134, -0.14763063192367554
12797, 0.0008909871685318649, -0.007907073013484478, -0.19674691557884216, 0.13607868552207947, -0.10053277015686035, -0.1462429016828537, -0.00384874502196908, 0.000800697598606348, 1.0003706216812134, -0.7185609340667725, -1.6389997005462646, -0.14793023467063904, 0.0, 0.0, 0.0, 0, 0, 0, 0, 0, 0, -0.7185609340667725, -1.6389997005462646, -0.14793023467063904
12807, 0.0016328070778399706, -0.0078122285194695, -0.1964639574289322, -0.15263023972511292, -0.0393533781170845, -0.17561791837215424, -0.001939440262503922, -0.0010176936630159616, 1.0027227401733398, -0.7200973033905029, -1.6423749923706055, -0.1482292264699936, 0.0, 0.0, 0.0, 0, 0, 0, 0, 0, 0, -0.7200973033905029, -1.6423749923706055, -0.1482292264699936
12817, 0.0010603801347315311, -0.007433788385242224, -0.19591635465621948, -0.08768519014120102, -0.06481511145830154, -0.14678041636943817, 0.0006860035937279463, -0.00205004564486444, 0.9991101026535034, -0.7216356992721558, -1.6457511186599731, -0.14852650463581085, 0.0, 0.0, 0.0, 0, 0, 0, 0, 0, 0, -0.7216356992721558, -1.6457511186599731, -0.14852650463581085
12827, 0.001177107566036284, -0.006408760789781809, -0.19464290142059326, -0.008894476108253002, 0.09583502262830734, 0.15507544577121735, -0.0011306331725791097, -0.003045265097171068, 0.9999691247940063, -0.7231743931770325, -1.6491292715072632, -0.14882323145866394, 0.0, 0.0, 0.0, 0, 0, 0, 0, 0, 0, -0.7231743931770325, -1.6491292715072632, -0.14882323145866394
12837, 0.00029106150032021105, -0.0076977345161139965, -0.1954043060541153, 0.12758412957191467, -0.18174831569194794, -0.11667836457490921, -0.0014293284621089697, -0.0036189276725053787, 0.999972939491272, -0.7247136235237122, -1.652510166168213, -0.14912045001983643, 0.0, 0.0, 0.0, 0, 0, 0, 0, 0, 0, -0.7247136235237122, -1.652510166168213, -0.14912045001983643
12847, 0.0008459282689727843, -0.007564355619251728, -0.19614093005657196, -0.17119450867176056, 0.2595684826374054, -0.2643992304801941, -0.0020015297923237085, -0.0035279954317957163, 1.0000114440917969, -0.726254403591156, -1.6558942794799805, -0.14941778779029846, 0.0, 0.0, 0.0, 0, 0, 0, 0, 0, 0, -0.726254403591156, -1.6558942794799805, -0.14941778779029846
12857, 7.013738013483817e-06, -0.008744647726416588, -0.19674667716026306, 0.06597357988357544, 0.10007938742637634, 0.14670436084270477, -0.0005908714956603944, -0.005275418981909752, 1.0006074905395508, -0.727796733379364, -1.6592819690704346, -0.14971482753753662, 0.0, 0.0, 0.0, 0, 0, 0, 0, 0, 0, -0.727796733379364, -1.6592819690704346, -0.14971482753753662
12867, 0.0011617636773735285, -0.008551743812859058, -0.19567421078681946, 0.07025464624166489, -0.09675246477127075, 0.22518883645534515, -0.003311282256618142, -0.004322465043514967, 1.0001516342163086, -0.7293403744697571, -1.662674069404602, -0.15001143515110016, 0.0, 0.0, 0.0, 0, 0, 0, 0, 0, 0, -0.7293403744697571, -1.662674069404602, -0.15001143515110016
12877, 0.0003227870329283178, -0.008981302380561829, -0.19478116929531097, 0.007192052435129881, 0.10830710828304291, -0.050770290195941925, -0.0020601763390004635, -0.006058963946998119, 0.9976693987846375, -0.7308859825134277, -1.6660711765289307, -0.15030808746814728, 0.0, 0.0, 0.0, 0, 0, 0, 0, 0, 0, -0.7308859825134277, -1.6660711765289307, -0.15030808746814728
12887, 0.0006843660958111286, -0.012911399826407433, -0.19396331906318665, 0.12806914746761322, -0.06401466578245163, 0.1346932351589203, -0.0018018722767010331, -0.0039019465912133455, 0.9984675645828247, -0.7324339747428894, -1.6694735288619995, -0.15060639381408691, 0.0, 0.0, 0.0, 0, 0, 0, 0, 0, 0, -0.7324339747428894, -1.6694735288619995, -0.15060639381408691
12897, 0.0009138491586782038, -0.012469004839658737, -0.1938585788011551, -0.025436362251639366, -0.03889745473861694, 0.043788984417915344, -0.0004054738092236221, -0.005384691525250673, 0.9991302490234375, -0.7339833378791809, -1.6728805303573608, -0.15090645849704742, 0.0, 0.0, 0.0, 0, 0, 0, 0, 0, 0, -0.7339833378791809, -1.6728805303573608, -0.15090645849704742
12907, 0.00016279715055134147, -0.012841875664889812, -0.19407722353935242, 0.0007285555475391448, 0.14684675633907318, 0.16732992231845856, -0.004071725532412529, -0.004658143501728773, 0.9992572665214539, -0.7355336546897888, -1.6762921810150146, -0.15120738744735718, 0.0, 0.0, 0.0, 0, 0, 0, 0, 0, 0, -0.7355336546897888, -1.6762921810150146, -0.15120738744735718
12917, 0.0001246064784936607, -0.014119765721261501, -0.19243888556957245, -0.14326798915863037, 0.14514382183551788, -0.08749651163816452, -0.003985798917710781, -0.004354773089289665, 0.9975191354751587, -0.7370864152908325, -1.6797088384628296, -0.15150955319404602, 0.0, 0.0, 0.0, 0, 0, 0, 0, 0, 0, -0.7370864152908325, -1.6797088384628296, -0.15150955319404602
12927, -0.00011972809443250299, -0.0138191357254982, -0.19340965151786804, 0.01433476060628891, -0.2632495164871216, -0.06376314163208008, -0.0018302234821021557, -0.002914736745879054, 1.0025174617767334, -0.7386426329612732, -1.683129906654358, -0.15181289613246918, 0.0, 0.0, 0.0, 0, 0, 0, 0, 0, 0, -0.7386426329612732, -1.683129906654358, -0.15181289613246918
12937, -0.0007381268078461289, -0.013766882941126823, -0.19318650662899017, -0.07750419527292252, -0.0413716584444046, -0.01174296997487545, -0.001286765793338418, -0.002663357648998499, 1.0003374814987183, -0.7402011156082153, -1.6865544319152832, -0.15211568772792816, 0.0, 0.0, 0.0, 0, 0, 0, 0, 0, 0, -0.7402011156082153, -1.6865544319152832, -0.15211568772792816
12947, -0.0003864812897518277, -0.013115965761244297, -0.19417515397071838, -0.08729496598243713, -0.2796841859817505, -0.18177400529384613, -0.002207469195127487, -0.005413150414824486, 0.9993454217910767, -0.7417609095573425, -1.6899816989898682, -0.15241731703281403, 0.0, 0.0, 0.0, 0, 0, 0, 0, 0, 0, -0.7417609095573425, -1.6899816989898682, -0.15241731703281403
12957, -0.000412565132137388, -0.012479320168495178, -0.1941722333431244, 0.16696971654891968, -0.06671268492937088, 0.30834394693374634, -0.0012050558580085635, -0.003937787842005491, 0.999336302280426, -0.7433221340179443, -1.693413257598877, -0.15271922945976257, 0.0, 0.0, 0.0, 0, 0, 0, 0, 0, 0, -0.7433221340179443, -1.693413257598877, -0.15271922945976257
12967, 0.0005616978160105646, -0.010637443512678146, -0.19428521394729614, -0.09075574576854706, 0.0904063954949379, -0.0115418815985322, -0.0009064030018635094, -0.0021554019767791033, 0.9980278015136719, -0.7448844909667969, -1.6968493461608887, -0.1530221700668335, 0.0, 0.0, 0.0, 0, 0, 0, 0, 0, 0, -0.7448844909667969, -1.6968493461608887, -0.1530221700668335
12977, 0.0006326292641460896, -0.010173934511840343, -0.19283121824264526, -0.17204220592975616, -0.2638435661792755, -0.008588849566876888, -0.005126938223838806, -0.003953807987272739, 1.00042724609375, -0.7464481592178345, -1.7002884149551392, -0.15332648158073425, 0.0, 0.0, 0.0, 0, 0, 0, 0, 0, 0, -0.7464481592178345, -1.7002884149551392, -0.15332648158073425
12987, -0.0005656562861986458, -0.008781730197370052, -0.193663090467453, 0.01583869569003582, -0.271275132894516, 0.06821803003549576, -0.0032960055395960808, -0.003198409453034401, 1.0005054473876953, -0.7480151653289795, -1.703730583190918, -0.15363118052482605, 0.0, 0.0, 0.0, 0, 0, 0, 0, 0, 0, -0.7480151653289795, -1.703730583190918, -0.15363118052482605
12997, -0.0014202198944985867, -0.006136925891041756, -0.19400067627429962, 0.0735936090350151, -0.09541688114404678, -0.0021063643507659435, -0.0024629938416182995, -0.005987024866044521, 0.9985493421554565, -0.749585747718811, -1.707176685333252, -0.15393558144569397, 0.0, 0.0, 0.0, 0, 0, 0, 0, 0, 0, -0.749585747718811, -1.707176685333252, -0.15393558144569397
13007, -0.0015405177837237716, -0.005206783302128315, -0.1947544813156128, 0.10892324894666672, -0.10999713093042374, 0.09638885408639908, -0.001230467576533556, -0.005363171920180321, 0.9986371397972107, -0.7511587738990784, -1.7106274366378784, -0.15424080193042755, 0.0, 0.0, 0.0, 0, 0, 0, 0, 0, 0, -0.7511587738990784, -1.7106274366378784, -0.15424080193042755
13017, -0.001386892283335328, -0.004826236981898546, -0.1949371099472046, -0.02214648388326168, 0.036014948040246964, 0.059431858360767365, 0.00012462826271075755, -0.003278355346992612, 0.9993321895599365, -0.7527331709861755, -1.7140833139419556, -0.15454746782779694, 0.0, 0.0, 0.0, 0, 0, 0, 0, 0, 0, -0.7527331709861755, -1.7140833139419556, -0.15454746782779694
13027, -0.0022044084034860134, -0.006655053701251745, -0.19592754542827606, 0.009668057784438133, -0.2465197592973709, -0.1256316900253296, -0.0003160065389238298, -0.005586163140833378, 1.001023530960083, -0.7543078064918518, -1.7175434827804565, -0.15485480427742004, 0.0, 0.0, 0.0, 0, 0, 0, 0, 0, 0, -0.7543078064918518, -1.7175434827804565, -0.15485480427742004
13037, -0.0022630225867033005, -0.006265580654144287, -0.19530819356441498, 0.12818707525730133, 0.0016641305992379785, 0.018469994887709618, -0.0006041630986146629, -0.004302382003515959, 1.0010266304016113, -0.7558822631835938, -1.7210081815719604, -0.15516170859336853, 0.0, 0.0, 0.0, 0, 0, 0, 0, 0, 0, -0.7558822631835938, -1.7210081815719604, -0.15516170859336853
13047, -0.002020402578637004, -0.006200279109179974, -0.19687172770500183, 0.1768721640110016, -0.22442366182804108, 0.19575819373130798, -0.0018776481738314033, -0.004580740816891193, 1.0007463693618774, -0.7574571371078491, -1.7244775295257568, -0.155467689037323, 0.0, 0.0, 0.0, 0, 0, 0, 0, 0, 0, -0.7574571371078491, -1.7244775295257568, -0.155467689037323
13057, -0.0023278079461306334, -0.005194555502384901, -0.1965925395488739, -0.14865967631340027, 0.1614304929971695, 0.25084108114242554, -0.0003602748620323837, -0.0030503671150654554, 0.9984114170074463, -0.759033203125, -1.7279506921768188, -0.15577314794063568, 0.0, 0.0, 0.0, 0, 0, 0, 0, 0, 0, -0.759033203125, -1.7279506921768188, -0.15577314794063568
13067, -0.0023484830744564533, -0.007329526357352734, -0.19583360850811005, -0.06127103790640831, -0.025696320459246635, 0.12140624970197678, -0.001975057879462838, -0.004093306604772806, 0.9976476430892944, -0.7606102824211121, -1.731427550315857, -0.15607960522174835, 0.0, 0.0, 0.0, 0, 0, 0, 0, 0, 0, -0.7606102824211121, -1.731427550315857, -0.15607960522174835
13077, -0.002684027887880802, -0.007830915972590446, -0.19525562226772308, -0.17659661173820496, 0.23402275145053864, 0.13259702920913696, -0.0006889338255859911, -0.001826545805670321, 0.9987731575965881, -0.7621883749961853, -1.734908103942871, -0.15638822317123413, 0.0, 0.0, 0.0, 0, 0, 0, 0, 0, 0, -0.7621883749961853, -1.734908103942871, -0.15638822317123413
13087, -0.003106194781139493, -0.009296243079006672, -0.19635851681232452, -0.026522932574152946, -0.05962037295103073, -0.04433789849281311, -0.0027335090562701225, -0.003958902787417173, 1.000228762626648, -0.7637677788734436, -1.738391637802124, -0.1566982865333557, 0.0, 0.0, 0.0, 0, 0, 0, 0, 0, 0, -0.7637677788734436, -1.738391637802124, -0.1566982865333557
13097, -0.0029326980002224445, -0.008049797266721725, -0.19660188257694244, 0.05846383795142174, -0.157864511013031, 0.21339167654514313, -0.0022138189524412155, -0.0034003062173724174, 1.0003669261932373, -0.765349268913269, -1.7418783903121948, -0.157008558511734, 0.0, 0.0, 0.0, 0, 0, 0, 0, 0, 0, -0.765349268913269, -1.7418783903121948, -0.157008558511734
13107, -0.0035624562297016382, -0.008514654822647572, -0.19642183184623718, -0.16365334391593933, 0.07376474142074585, -0.10376785695552826, -0.0011176191037520766, -0.0037743865977972746, 1.0006883144378662, -0.7669330835342407, -1.7453688383102417, -0.15731853246688843, 0.0, 0.0, 0.0, 0, 0, 0, 0, 0, 0, -0.7669330835342407, -1.7453688383102417, -0.15731853246688843
13117, -0.004234722349792719, -0.00803392007946968, -0.19588151574134827, 0.005201183259487152, 0.07353277504444122, -0.15933731198310852, -0.0004268422781024128, -0.004017817322164774, 1.0005569458007812, -0.7685179710388184, -1.7488627433776855, -0.15762808918952942, 0.0, 0.0, 0.0, 0, 0, 0, 0, 0, 0, -0.7685179710388184, -1.7488627433776855, -0.15762808918952942
13127, -0.004884828347712755, -0.008451598696410656, -0.196698859333992, 0.12051562964916229, -0.004082248080521822, 0.094197578728199, -0.0016636321088299155, -0.0068775564432144165, 1.0005844831466675, -0.7701031565666199, -1.7523609399795532, -0.15793703496456146, 0.0, 0.0, 0.0, 0, 0, 0, 0, 0, 0, -0.7701031565666199, -1.7523609399795532, -0.15793703496456146
13137, -0.0035645661409944296, -0.00839773379266262, -0.19589434564113617, -0.03195111081004143, -0.159517303109169, -0.17004182934761047, -0.0023669865913689137, -0.005537417717278004, 1.0009835958480835, -0.7716897130012512, -1.7558648586273193, -0.15824538469314575, 0.0, 0.0, 0.0, 0, 0, 0, 0, 0, 0, -0.7716897130012512, -1.7558648586273193, -0.15824538469314575
13147, -0.004635683726519346, -0.009520084597170353, -0.1965227723121643, -0.28994935750961304, 0.18944789469242096, -0.18637947738170624, -0.0022489316761493683, -0.0020349223632365465, 1.0009022951126099, -0.7732784152030945, -1.7593740224838257, -0.15855297446250916, 0.0, 0.0, 0.0, 0, 0, 0, 0, 0, 0, -0.7732784152030945, -1.7593740224838257, -0.15855297446250916
13157, -0.00600649556145072, -0.00944286398589611, -0.19709613919258118, 0.18969504535198212, -0.03080805018544197, -0.3036137819290161, -0.0016969912685453892, -0.0026843238156288862, 1.001104712486267, -0.7748688459396362, -1.7628862857818604, -0.1588595062494278, 0.0, 0.0, 0.0, 0, 0, 0, 0, 0, 0, -0.7748688459396362, -1.7628862857818604, -0.1588595062494278
13167, -0.005040892865508795, -0.010889928787946701, -0.1980767846107483, -0.03852912038564682, 0.12494180351495743, -0.12125279754400253, -0.0017799478955566883, -0.004254430532455444, 1.0004469156265259, -0.776461124420166, -1.7664010524749756, -0.15916520357131958, 0.0, 0.0, 0.0, 0, 0, 0, 0, 0, 0, -0.776461124420166, -1.7664010524749756, -0.15916520357131958
13177, -0.004804286640137434, -0.01058888528496027, -0.1982097327709198, 0.17037376761436462, -0.10894239693880081, 0.07273361831903458, -0.00212017260491848, -0.003513091942295432, 1.0011584758758545, -0.77805495262146, -1.769919514656067, -0.15947021543979645, 0.0, 0.0, 0.0, 0, 0, 0, 0, 0, 0, -0.77805495262146, -1.769919514656067, -0.15947021543979645
13187, -0.0037499400787055492, -0.011275459080934525, -0.20048639178276062, 0.013792579062283039, -0.11506594717502594, -0.23630918562412262, -0.0018949400400742888, -0.0030956913251429796, 1.0008983612060547, -0.7796505093574524, -1.7734415531158447, -0.15977416932582855, 0.0, 0.0, 0.0, 0, 0, 0, 0, 0, 0, -0.7796505093574524, -1.7734415531158447, -0.15977416932582855
13197, -0.00381981348618865, -0.011320446617901325, -0.20102865993976593, 0.09166231006383896, -0.028986936435103416, 0.15535232424736023, -0.0011578727280721068, -0.003106116084381938, 1.0019429922103882, -0.7812477946281433, -1.7769664525985718, -0.16007675230503082, 0.0, 0.0, 0.0, 0, 0, 0, 0, 0, 0, -0.7812477946281433, -1.7769664525985718, -0.16007675230503082
13207, -0.0036050633061677217, -0.012430166825652122, -0.19991318881511688, -0.19656352698802948, 0.20266267657279968, -0.16997604072093964, -0.0019137772032991052, -0.003147776937112212, 1.0006111860275269, -0.7828463315963745, -1.780494213104248, -0.16037783026695251, 0.0, 0.0, 0.0, 0, 0, 0, 0, 0, 0, -0.7828463315963745, -1.780494213104248, -0.16037783026695251
13217, -0.003605381352826953, -0.013518990948796272, -0.199949711561203, -0.030930429697036743, -0.07297970354557037, 0.09294643253087997, -0.0016519819619134068, -0.0033262697979807854, 1.0022649765014648, -0.7844461798667908, -1.7840248346328735, -0.16067756712436676, 0.0, 0.0, 0.0, 0, 0, 0, 0, 0, 0, -0.7844461798667908, -1.7840248346328735, -0.16067756712436676
13227, -0.004583965986967087, -0.012805006466805935, -0.1997367888689041, -0.11597348749637604, 0.1809874176979065, -0.13370943069458008, -0.0014632500242441893, -0.005971288308501244, 1.0008805990219116, -0.7860472202301025, -1.7875590324401855, -0.1609761267900467, 0.0, 0.0, 0.0, 0, 0, 0, 0, 0, 0, -0.7860472202301025, -1.7875590324401855, -0.1609761267900467
13237, -0.004440849181264639, -0.013015145435929298, -0.20054692029953003, 0.09626610577106476, 0.1225869283080101, -0.03645079955458641, -0.00033193681156262755, -0.002621416701003909, 0.999973475933075, -0.7876490950584412, -1.7910975217819214, -0.16127339005470276, 0.0, 0.0, 0.0, 0, 0, 0, 0, 0, 0, -0.7876490950584412, -1.7910975217819214, -0.16127339005470276
13247, -0.0051249112002551556, -0.013390355743467808, -0.20076914131641388, -0.13144689798355103, 0.18321524560451508, -0.08810660243034363, -0.0012738282093778253, -0.00312324077822268, 0.9994625449180603, -0.789251446723938, -1.794639229774475, -0.16157016158103943, 0.0, 0.0, 0.0, 0, 0, 0, 0, 0, 0, -0.789251446723938, -1.794639229774475, -0.16157016158103943
13257, -0.005407827440649271, -0.014415253885090351, -0.2014704793691635, -0.0665062814950943, 0.11351250857114792, 0.1798190027475357, -0.0008903829148039222, -0.002733910921961069, 1.0006946325302124, -0.7908544540405273, -1.7981834411621094, -0.16186712682247162, 0.0, 0.0, 0.0, 0, 0, 0, 0, 0, 0, -0.7908544540405273, -1.7981834411621094, -0.16186712682247162
13267, -0.004977070260792971, -0.015815461054444313, -0.19859592616558075, 0.08288159966468811, 0.31813815236091614, -0.23333044350147247, -0.002332518110051751, -0.0022320279385894537, 1.0002753734588623, -0.7924584150314331, -1.8017303943634033, -0.16216395795345306, 0.0, 0.0, 0.0, 0, 0, 0, 0, 0, 0, -0.7924584150314331, -1.8017303943634033, -0.16216395795345306
13277, -0.005574607290327549, -0.016236385330557823, -0.19905142486095428, 0.04716535657644272, -0.25374048948287964, -0.08369538933038712, -0.002750494284555316, -0.0035110136959701777, 0.9989961981773376, -0.7940641045570374, -1.8052797317504883, -0.16246037185192108, 0.0, 0.0, 0.0, 0, 0, 0, 0, 0, 0, -0.7940641045570374, -1.8052797317504883, -0.16246037185192108
13287, -0.005455308593809605, -0.014056525193154812, -0.19954699277877808, 0.02165256440639496, -0.08660842478275299, -0.12444893270730972, -0.002817272674292326, -0.0030294875614345074, 1.000011920928955, -0.7956718802452087, -1.8088321685791016, -0.16275720298290253, 0.0, 0.0, 0.0, 0, 0, 0, 0, 0, 0, -0.7956718802452087, -1.8088321685791016, -0.16275720298290253
13297, -0.005106475669890642, -0.012340703047811985, -0.19958831369876862, 0.029179509729146957, 0.1611565202474594, 0.1791946142911911, -0.0012527635553851724, -0.0021084158215671778, 1.000779628753662, -0.7972816824913025, -1.812387466430664, -0.16305434703826904, 0.0, 0.0, 0.0, 0, 0, 0, 0, 0, 0, -0.7972816824913025, -1.812387466430664, -0.16305434703826904
13307, -0.0052426038309931755, -0.01433706283569336, -0.19934484362602234, 0.220537468791008, 0.12236477434635162, 0.041574396193027496, -0.002451346255838871, -0.002376584568992257, 0.9987503290176392, -0.7988932728767395, -1.815944790840149, -0.16335086524486542, 0.0, 0.0, 0.0, 0, 0, 0, 0, 0, 0, -0.7988932728767395, -1.815944790840149, -0.16335086524486542
13317, -0.004513731691986322, -0.015394633635878563, -0.19905400276184082, 0.03240392729640007, -0.3167741298675537, -0.1849299669265747, -0.0004940562648698688, -0.0020352450665086508, 0.9996190667152405, -0.8005064129829407, -1.8195041418075562, -0.1636475771665573, 0.0, 0.0, 0.0, 0, 0, 0, 0, 0, 0, -0.8005064129829407, -1.8195041418075562, -0.1636475771665573
13327, -0.004167382139712572, -0.012393414974212646, -0.19871501624584198, 0.06118357926607132, -0.14489302039146423, -0.08720393478870392, 0.0010677629616111517, -0.002125717932358384, 1.0007795095443726, -0.8021202683448792, -1.8230654001235962, -0.163944810628891, 0.0, 0.0, 0.0, 0, 0, 0, 0, 0, 0, -0.8021202683448792, -1.8230654001235962, -0.163944810628891
13337, -0.0044724908657372, -0.011341330595314503, -0.1989012360572815, -0.007571276277303696, 0.07086651772260666, -0.0980006754398346, 6.483035394921899e-05, -0.003938226029276848, 1.0004432201385498, -0.8037335276603699, -1.8266290426254272, -0.16424167156219482, 0.0, 0.0, 0.0, 0, 0, 0, 0, 0, 0, -0.8037335276603699, -1.8266290426254272, -0.16424167156219482
13347, -0.004561775829643011, -0.0125164445489645, -0.19953113794326782, -0.12464208155870438, 0.4037075638771057, 0.16957691311836243, -0.0006461918819695711, -0.004988223314285278, 0.9990701675415039, -0.8053463101387024, -1.830196499824524, -0.16453801095485687, 0.0, 0.0, 0.0, 0, 0, 0, 0, 0, 0, -0.8053463101387024, -1.830196499824524, -0.16453801095485687
13357, -0.004909459035843611, -0.013056915253400803, -0.20081175863742828, 0.19306737184524536, 0.03843393549323082, 0.01096278615295887, -0.00020621776639018208, -0.0029734636191278696, 1.0001485347747803, -0.8069593906402588, -1.8337680101394653, -0.164834663271904, 0.0, 0.0, 0.0, 0, 0, 0, 0, 0, 0, -0.8069593906402588, -1.8337680101394653, -0.164834663271904
13367, -0.003918967675417662, -0.014169635251164436, -0.1998528242111206, -0.0336209312081337, -0.3458687365055084, -0.1766236424446106, -0.0017638606950640678, -0.0032658372074365616, 1.000423550605774, -0.8085729479789734, -1.8373428583145142, -0.16513186693191528, 0.0, 0.0, 0.0, 0, 0, 0, 0, 0, 0, -0.8085729479789734, -1.8373428583145142, -0.16513186693191528
13377, -0.004019070882350206, -0.012017710134387016, -0.20106017589569092, 0.044850774109363556, 0.12155084311962128, -0.16715990006923676, 0.00043138081673532724, -0.0024517870042473078, 1.0000505447387695, -0.810187041759491, -1.8409204483032227, -0.16542881727218628, 0.0, 0.0, 0.0, 0, 0, 0, 0, 0, 0, -0.810187041759491, -1.8409204483032227, -0.16542881727218628
13387, -0.004448914900422096, -0.011170323006808758, -0.20106951892375946, 0.07951290160417557, -0.018940303474664688, -0.025244399905204773, -0.001431386568583548, -0.004695496987551451, 0.9987238645553589, -0.8118013739585876, -1.84450101852417, -0.16572558879852295, 0.0, 0.0, 0.0, 0, 0, 0, 0, 0, 0, -0.8118013739585876, -1.84450101852417, -0.16572558879852295
13397, -0.0031891807448118925, -0.00994167011231184, -0.20140233635902405, 0.20316079258918762, -0.2208678424358368, -0.05636490508913994, -0.003921169321984053, -0.0042447554878890514, 0.9973911643028259, -0.8134164810180664, -1.8480851650238037, -0.16602328419685364, 0.0, 0.0, 0.0, 0, 0, 0, 0, 0, 0, -0.8134164810180664, -1.8480851650238037, -0.16602328419685364
13407, -0.0022940116468816996, -0.005925958044826984, -0.2017839401960373, 0.0820026844739914, -0.1997125893831253, 0.07137687504291534, -0.0020609465427696705, -0.0045069558545947075, 1.002699375152588, -0.8150342702865601, -1.8516732454299927, -0.16632214188575745, 0.0, 0.0, 0.0, 0, 0, 0, 0, 0, 0, -0.8150342702865601, -1.8516732454299927, -0.16632214188575745
13417, -0.00309149082750082, -0.007327020633965731, -0.20134775340557098, -0.0047996761277318, 0.08363587409257889, 0.004984467756003141, -0.0013949068961665034, -0.0025342123117297888, 1.0023772716522217, -0.8166545033454895, -1.855265498161316, -0.16662007570266724, 0.0, 0.0, 0.0, 0, 0, 0, 0, 0, 0, -0.8166545033454895, -1.855265498161316, -0.16662007570266724
13427, -0.003603724529966712, -0.005843052640557289, -0.20205910503864288, 0.01685437187552452, -0.022415218874812126, -0.04189737141132355, -0.0005239754682406783, -0.002665604930371046, 1.0018246173858643, -0.8182759881019592, -1.858860731124878, -0.16691546142101288, 0.0, 0.0, 0.0, 0, 0, 0, 0, 0, 0, -0.8182759881019592, -1.858860731124878, -0.16691546142101288
13437, -0.003158332547172904, -0.004806390032172203, -0.20198214054107666, -0.018899772316217422, -0.024150505661964417, -0.04589581489562988, 0.00045908178435638547, -0.0023036811035126448, 0.99980628490448, -0.8198978900909424, -1.8624581098556519, -0.16720926761627197, 0.0, 0.0, 0.0, 0, 0, 0, 0, 0, 0, -0.8198978900909424, -1.8624581098556519, -0.16720926761627197
13447, -0.0031076320447027683, -0.005117522552609444, -0.20131732523441315, 0.03624313697218895, 0.11240243911743164, 0.03899665176868439, -0.0007808103109709918, -0.0027705782558768988, 0.9990689754486084, -0.821519672870636, -1.8660578727722168, -0.16750290989875793, 0.0, 0.0, 0.0, 0, 0, 0, 0, 0, 0, -0.821519672870636, -1.8660578727722168, -0.16750290989875793
13457, -0.002994070528075099, -0.005149717442691326, -0.20332592725753784, 0.05853429064154625, -0.1984243243932724, -0.09923495352268219, -0.0014776664320379496, -0.0029157863464206457, 1.0012937784194946, -0.8231419920921326, -1.8696601390838623, -0.16779674589633942, 0.0, 0.0, 0.0, 0, 0, 0, 0, 0, 0, -0.8231419920921326, -1.8696601390838623, -0.16779674589633942
13467, -0.00293582770973444, -0.005818688776344061, -0.20409098267555237, -0.10783950984477997, 0.23233121633529663, -0.015221702866256237, 0.00012672381126321852, -0.0035644597373902798, 0.9982041120529175, -0.8247650265693665, -1.8732653856277466, -0.1680905669927597, 0.0, 0.0, 0.0, 0, 0, 0, 0, 0, 0, -0.8247650265693665, -1.8732653856277466, -0.1680905669927597
13477, -0.0037827410269528627, -0.006503588519990444, -0.20499512553215027, -0.021607382223010063, -0.1267523318529129, 0.09785318374633789, -0.0007022244390100241, -0.004939439240843058, 1.0003892183303833, -0.8263885974884033, -1.8768740892410278, -0.16838505864143372, 0.0, 0.0, 0.0, 0, 0, 0, 0, 0, 0, -0.8263885974884033, -1.8768740892410278, -0.16838505864143372
13487, -0.004751231987029314, -0.006267034914344549, -0.20525294542312622, 0.06589826196432114, 0.12858542799949646, 0.04637774080038071, -0.0020560200791805983, -0.0023082285188138485, 1.0025345087051392, -0.8280130624771118, -1.8804867267608643, -0.16867931187152863, 0.0, 0.0, 0.0, 0, 0, 0, 0, 0, 0, -0.8280130624771118, -1.8804867267608643, -0.16867931187152863
13497, -0.003397165797650814, -0.005529596004635096, -0.2055831402540207, 0.15803645551204681, -0.28908079862594604, -0.2534291744232178, -0.0011345096863806248, -0.0032450840808451176, 1.000778317451477, -0.8296387791633606, -1.884102702140808, -0.16897164285182953, 0.0, 0.0, 0.0, 0, 0, 0, 0, 0, 0, -0.8296387791633606, -1.884102702140808, -0.16897164285182953
13507, -0.003903393168002367, -0.004269907251000404, -0.20705144107341766, 0.06576556712388992, 0.13551568984985352, -0.1191592887043953, -0.00209660641849041, -0.0029169030021876097, 0.9976593255996704, -0.831265926361084, -1.8877215385437012, -0.16926309466362, 0.0, 0.0, 0.0, 0, 0, 0, 0, 0, 0, -0.831265926361084, -1.8877215385437012, -0.16926309466362
13517, -0.0037148152478039265, -0.004281281027942896, -0.2069525122642517, 0.06259927153587341, -0.3405345380306244, -0.04307086393237114, -0.001135780825279653, -0.004820702131837606, 0.9996206164360046, -0.8328946232795715, -1.8913434743881226, -0.1695553958415985, 0.0, 0.0, 0.0, 0, 0, 0, 0, 0, 0, -0.8328946232795715, -1.8913434743881226, -0.1695553958415985
13527, -0.003665878204628825, -0.005159762687981129, -0.207738995552063, -0.1060260608792305, 0.08609043061733246, -0.19512151181697845, -0.000520655361469835, -0.003306667786091566, 1.000292181968689, -0.8345245122909546, -1.8949694633483887, -0.16984869539737701, 0.0, 0.0, 0.0, 0, 0, 0, 0, 0, 0, -0.8345245122909546, -1.8949694633483887, -0.16984869539737701
13537, -0.0037285101134330034, -0.005133243277668953, -0.20879127085208893, -0.08070667833089828, -0.08700889348983765, -0.08376511931419373, -0.0008236865396611392, -0.0029845046810805798, 0.9994250535964966, -0.8361548781394958, -1.8985990285873413, -0.17014189064502716, 0.0, 0.0, 0.0, 0, 0, 0, 0, 0, 0, -0.8361548781394958, -1.8985990285873413, -0.17014189064502716
13547, -0.0029662316665053368, -0.003971897065639496, -0.20859122276306152, 0.12847331166267395, 0.22342358529567719, 0.0354347862303257, -0.002645858796313405, -0.003539893077686429, 0.9994375109672546, -0.8377861976623535, -1.9022315740585327, -0.17043504118919373, 0.0, 0.0, 0.0, 0, 0, 0, 0, 0, 0, -0.8377861976623535, -1.9022315740585327, -0.17043504118919373
13557, -0.002810269594192505, -0.003889969317242503, -0.2077672928571701, -0.010450728237628937, -0.11560000479221344, 0.10353351384401321, -0.000667411892209202, -0.004346135538071394, 0.9995744228363037, -0.8394192457199097, -1.905867576599121, -0.17072884738445282, 0.0, 0.0, 0.0, 0, 0, 0, 0, 0, 0, -0.8394192457199097, -1.905867576599121, -0.17072884738445282
13567, -0.002483735326677561, -0.0051332018338143826, -0.20632795989513397, 0.1357719898223877, 0.10900912433862686, -0.12532027065753937, -0.00018957814609166235, -0.0046936869621276855, 1.000005841255188, -0.8410534262657166, -1.9095076322555542, -0.17102307081222534, 0.0, 0.0, 0.0, 0, 0, 0, 0, 0, 0, -0.8410534262657166, -1.9095076322555542, -0.17102307081222534
13577, -0.0025658768136054277, -0.004984504543244839, -0.20547401905059814, 0.0956866517663002, -0.15272720158100128, 0.12741583585739136, -0.002183058764785528, -0.00413660891354084, 0.9996225833892822, -0.8426885604858398, -1.9131520986557007, -0.1713172197341919, 0.0, 0.0, 0.0, 0, 0, 0, 0, 0, 0, -0.8426885604858398, -1.9131520986557007, -0.1713172197341919
13587, -0.002206200733780861, -0.004027634859085083, -0.2047191560268402, 0.06177652254700661, 0.17987455427646637, 0.22123822569847107, -0.003310898318886757, -0.004130233079195023, 0.9979934096336365, -0.8443253040313721, -1.9168003797531128, -0.17161178588867188, 0.0, 0.0, 0.0, 0, 0, 0, 0, 0, 0, -0.8443253040313721, -1.9168003797531128, -0.17161178588867188
13597, -0.0015840369742363691, -0.005013299640268087, -0.2039085328578949, 0.05969156697392464, -0.19232109189033508, -0.17800705134868622, -0.0022615755442529917, -0.0018817248055711389, 0.9985774755477905, -0.8459646105766296, -1.9204521179199219, -0.1719079315662384, 0.0, 0.0, 0.0, 0, 0, 0, 0, 0, 0, -0.8459646105766296, -1.9204521179199219, -0.1719079315662384
13607, -0.0017298582242801785, -0.005791692063212395, -0.20265641808509827, -0.09069173038005829, 0.024289146065711975, 0.08067039400339127, -0.0006481132586486638, -0.0013379747979342937, 0.9984766244888306, -0.8476060032844543, -1.9241061210632324, -0.17220595479011536, 0.0, 0.0, 0.0, 0, 0, 0, 0, 0, 0, -0.8476060032844543, -1.9241061210632324, -0.17220595479011536
13617, -0.002316949889063835, -0.005973138380795717, -0.20256595313549042, -0.08516941964626312, -0.18774916231632233, -0.0822259783744812, -0.0009646074031479657, -0.0033036721870303154, 0.9993922710418701, -0.8492482900619507, -1.9277619123458862, -0.1725054681301117, 0.0, 0.0, 0.0, 0, 0, 0, 0, 0, 0, -0.8492482900619507, -1.9277619123458862, -0.1725054681301117
13627, -0.0031060969922691584, -0.004221251700073481, -0.20312802493572235, -0.022374523803591728, -0.06258036196231842, -0.18027669191360474, -0.0013977675698697567, -0.002860515844076872, 1.0007435083389282, -0.8508913516998291, -1.9314202070236206, -0.17280568182468414, 0.0, 0.0, 0.0, 0, 0, 0, 0, 0, 0, -0.8508913516998291, -1.9314202070236206, -0.17280568182468414
13637, -0.004082237370312214, -0.004718686919659376, -0.20322942733764648, -0.01082857046276331, -0.21295566856861115, -0.0023845385294407606, -0.002101277466863394, -0.0027944184839725494, 0.997147798538208, -0.8525355458259583, -1.9350814819335938, -0.17310629785060883, 0.0, 0.0, 0.0, 0, 0, 0, 0, 0, 0, -0.8525355458259583, -1.9350814819335938, -0.17310629785060883
13647, -0.0033542835153639317, -0.0029501228127628565, -0.20532502233982086, 0.10963692516088486, 0.3678494393825531, -0.2884067893028259, -0.0033295743633061647, -0.0024178491439670324, 0.9998109936714172, -0.8541814684867859, -1.938745379447937, -0.17340786755084991, 0.0, 0.0, 0.0, 0, 0, 0, 0, 0, 0, -0.8541814684867859, -1.938745379447937, -0.17340786755084991
13657, -0.004406801424920559, -0.0023757610470056534, -0.2062610238790512, -0.19399051368236542, 0.03928228095173836, 0.11042185127735138, -0.002782589988783002, -0.0009185516973957419, 0.9992960691452026, -0.8558300733566284, -1.9424115419387817, -0.17371030151844025, 0.0, 0.0, 0.0, 0, 0, 0, 0, 0, 0, -0.8558300733566284, -1.9424115419387817, -0.17371030151844025
13667, -0.00589756341651082, -0.0014204418985173106, -0.20672261714935303, 0.08701320737600327, -0.22748589515686035, 0.024966729804873466, -0.0011774031445384026, -0.00340511417016387, 0.998820424079895, -0.8574813604354858, -1.9460794925689697, -0.17401327192783356, 0.0, 0.0, 0.0, 0, 0, 0, 0, 0, 0, -0.8574813604354858, -1.9460794925689697, -0.17401327192783356
13677, -0.005224803928285837, -0.0010224481811746955, -0.20651914179325104, -0.0008446163265034556, -0.3313850164413452, -0.2509125769138336, 0.000774037791416049, -0.002182380063459277, 1.0015968084335327, -0.8591340184211731, -1.9497497081756592, -0.17431695759296417, 0.0, 0.0, 0.0, 0, 0, 0, 0, 0, 0, -0.8591340184211731, -1.9497497081756592, -0.17431695759296417
13687, -0.00491916062310338, 0.00022075271408539265, -0.20677435398101807, 0.1297139972448349, 0.10903269052505493, 0.0777994766831398, 2.0890285668428987e-05, -0.003486121306195855, 1.0006190538406372, -0.8607867360115051, -1.9534224271774292, -0.17462022602558136, 0.0, 0.0, 0.0, 0, 0, 0, 0, 0, 0, -0.8607867360115051, -1.9534224271774292, -0.17462022602558136
13697, -0.005216785240918398, -0.0001847813109634444, -0.20673778653144836, 0.040113408118486404, 0.18902048468589783, 0.029993927106261253, -0.001652834820561111, -0.004377333912998438, 0.9988300800323486, -0.8624393939971924, -1.9570982456207275, -0.17492268979549408, 0.0, 0.0, 0.0, 0, 0, 0, 0, 0, 0, -0.8624393939971924, -1.9570982456207275, -0.17492268979549408
13707, -0.004932051058858633, -0.0018655831227079034, -0.20694877207279205, 0.052356503903865814, -0.011723947711288929, -0.20728595554828644, -0.0006184322410263121, -0.004034762270748615, 0.9985171556472778, -0.864093005657196, -1.9607781171798706, -0.17522576451301575, 0.0, 0.0, 0.0, 0, 0, 0, 0, 0, 0, -0.864093005657196, -1.9607781171798706, -0.17522576451301575
13717, -0.004578518681228161, -0.0006017503910697997, -0.20811082422733307, -0.028714651241898537, -0.33297666907310486, -0.09204578399658203, -0.002295592799782753, -0.0033157921861857176, 0.9995599985122681, -0.8657478094100952, -1.9644616842269897, -0.17552976310253143, 0.0, 0.0, 0.0, 0, 0, 0, 0, 0, 0, -0.8657478094100952, -1.9644616842269897, -0.17552976310253143
13727, -0.004954364616423845, -0.00044248875929042697, -0.20701225101947784, 0.04005054756999016, -0.09842068701982498, -0.33645763993263245, -0.0014143256703391671, -0.003095709253102541, 0.9989399909973145, -0.8674042224884033, -1.9681488275527954, -0.17583432793617249, 0.0, 0.0, 0.0, 0, 0, 0, 0, 0, 0, -0.8674042224884033, -1.9681488275527954, -0.17583432793617249
13737, -0.004838292952626944, -0.000402737787226215, -0.2077980488538742, 0.09511526674032211, 0.09392630308866501, -0.13720735907554626, -0.002017359482124448, -0.0025581109803169966, 0.99921053647995, -0.8690624833106995, -1.9718390703201294, -0.17613951861858368, 0.0, 0.0, 0.0, 0, 0, 0, 0, 0, 0, -0.8690624833106995, -1.9718390703201294, -0.17613951861858368
13747, -0.004368798807263374, -0.0003170764248352498, -0.20666947960853577, -0.08607696741819382, -0.07836518436670303, 0.0435868464410305, -0.00041888628038577735, -0.0045745098032057285, 0.9996306896209717, -0.8707222938537598, -1.9755321741104126, -0.17644545435905457, 0.0, 0.0, 0.0, 0, 0, 0, 0, 0, 0, -0.8707222938537598, -1.9755321741104126, -0.17644545435905457
13757, -0.00409545237198472, 0.001390474266372621, -0.20716826617717743, -0.13459379971027374, -0.11866980046033859, -0.06284889578819275, -0.0020366664975881577, -0.005056504160165787, 0.9992246031761169, -0.8723831176757812, -1.9792293310165405, -0.1767520010471344, 0.0, 0.0, 0.0, 0, 0, 0, 0, 0, 0, -0.8723831176757812, -1.9792293310165405, -0.1767520010471344
13767, -0.004962734878063202, 0.0021963263861835003, -0.20693354308605194, 0.06689589470624924, 0.08019095659255981, -0.02453097328543663, -0.0023908752482384443, -0.005254735704511404, 1.0017856359481812, -0.8740452527999878, -1.982931137084961, -0.17705857753753662, 0.0, 0.0, 0.0, 0, 0, 0, 0, 0, 0, -0.8740452527999878, -1.982931137084961, -0.17705857753753662
13777, -0.004507736768573523, 0.0021069038193672895, -0.20704977214336395, 0.07253453135490417, -0.06470802426338196, -0.22044901549816132, -0.00311021925881505, -0.0034684815909713507, 1.0000962018966675, -0.8757099509239197, -1.9866377115249634, -0.1773642897605896, 0.0, 0.0, 0.0, 0, 0, 0, 0, 0, 0, -0.8757099509239197, -1.9866377115249634, -0.1773642897605896
13787, -0.004324890207499266, 0.0018145659705623984, -0.2068467140197754, 0.12646085023880005, 0.03232128918170929, -0.018701808527112007, -0.0018878355622291565, -0.0033382284455001354, 0.9989880919456482, -0.8773773312568665, -1.990348219871521, -0.1776697039604187, 0.0, 0.0, 0.0, 0, 0, 0, 0, 0, 0, -0.8773773312568665, -1.990348219871521, -0.1776697039604187
13797, -0.004636319354176521, 0.0021165276411920786, -0.20719727873802185, -0.116030253469944, 0.01729004643857479, -0.16819815337657928, -0.002285819035023451, -0.0032460824586451054, 0.9993352293968201, -0.8790467381477356, -1.994062066078186, -0.17797568440437317, 0.0, 0.0, 0.0, 0, 0, 0, 0, 0, 0, -0.8790467381477356, -1.994062066078186, -0.17797568440437317
13807, -0.005428765434771776, 0.0023698152508586645, -0.20825724303722382, -0.038983915001153946, 0.18643201887607574, -0.0327521450817585, -0.0020750700496137142, -0.0022183083929121494, 0.9996823072433472, -0.8807180523872375, -1.997779130935669, -0.17828190326690674, 0.0, 0.0, 0.0, 0, 0, 0, 0, 0, 0, -0.8807180523872375, -1.997779130935669, -0.17828190326690674
13817, -0.006035960279405117, 0.001505445223301649, -0.2089579999446869, 0.17211437225341797, -0.1324942708015442, -0.0143731152638793, -0.004108885768800974, -0.0022699343971908092, 0.9998385310173035, -0.882391631603241, -2.0014986991882324, -0.17858824133872986, 0.0, 0.0, 0.0, 0, 0, 0, 0, 0, 0, -0.882391631603241, -2.0014986991882324, -0.17858824133872986
13827, -0.005601841025054455, 0.0011151594808325171, -0.20831821858882904, 0.0027450849302113056, 0.21731947362422943, 0.08956736326217651, -0.002622628351673484, -0.0028727115131914616, 1.0010111331939697, -0.8840684294700623, -2.005220651626587, -0.17889443039894104, 0.0, 0.0, 0.0, 0, 0, 0, 0, 0, 0, -0.8840684294700623, -2.005220651626587, -0.17889443039894104
13837, -0.005630784202367067, 4.038402494188631e-06, -0.2089502513408661, -0.07312070578336716, 0.058681078255176544, -0.0002410519664408639, -0.0006468808278441429, -0.004603360313922167, 0.9981886148452759, -0.8857479691505432, -2.0089452266693115, -0.1792002171278, 0.0, 0.0, 0.0, 0, 0, 0, 0, 0, 0, -0.8857479691505432, -2.0089452266693115, -0.1792002171278
13847, -0.006492385640740395, -0.0011878357036039233, -0.20808753371238708, 0.156096413731575, 0.03476638346910477, -0.18768878281116486, -0.0019315124955028296, -0.004604494199156761, 1.000046968460083, -0.8874287605285645, -2.0126733779907227, -0.17950691282749176, 0.0, 0.0, 0.0, 0, 0, 0, 0, 0, 0, -0.8874287605285645, -2.0126733779907227, -0.17950691282749176
13857, -0.004586016293615103, -0.0018950274679809809, -0.2080983966588974, -0.09542876482009888, -0.07743219286203384, 0.1844109445810318, -0.002253645332530141, -0.0029832907021045685, 1.0013400316238403, -0.889110803604126, -2.0164055824279785, -0.1798141896724701, 0.0, 0.0, 0.0, 0, 0, 0, 0, 0, 0, -0.889110803604126, -2.0164055824279785, -0.1798141896724701
13867, -0.004684161394834518, -0.0013112463057041168, -0.20717765390872955, 0.017478900030255318, -0.0356493704020977, -0.132296621799469, -0.00410411786288023, -0.004056992940604687, 0.9999133348464966, -0.8909637331962585, -2.020514965057373, -0.18015098571777344, 0.0, 0.0, 0.0, 0, 0, 0, 0, 0, 0, -0.8909637331962585, -2.020514965057373, -0.18015098571777344
13877, -0.004714649636298418, 0.00027244092780165374, -0.2075144350528717, -0.014091189950704575, -0.19999079406261444, 0.000744128308724612, -0.0008059403044171631, -0.003213211428374052, 0.9996622800827026, -0.8928199410438538, -2.0246286392211914, -0.18048709630966187, 0.0, 0.0, 0.0, 0, 0, 0, 0, 0, 0, -0.8928199410438538, -2.0246286392211914, -0.18048709630966187
13887, -0.004038242623209953, -0.0008906063158065081, -0.20562997460365295, 0.10761741548776627, -0.07602015882730484, -0.1355709284543991, -0.00018021903815679252, -0.0035494451876729727, 1.0005615949630737, -0.8928199410438538, -2.0246286392211914, -0.18048709630966187, 0.0, 0.0, 0.0, 0, 0, 0, 0, 0, 0, -0.8945090174674988, -2.028372287750244, -0.18079255521297455
13897, -0.004520038142800331, -0.0006785723962821066, -0.20673008263111115, 0.10068218410015106, 0.04681168869137764, 0.12181208282709122, -0.0009352698107250035, -0.0010869487887248397, 1.000540852546692, -0.8945090174674988, -2.028372287750244, -0.18079255521297455, 0.0, 0.0, 0.0, 0, 0, 0, 0, 0, 0, -0.8961986899375916, -2.032118797302246, -0.18109765648841858
13907, -0.0041412897408008575, 0.0006830009515397251, -0.2055608332157135, 0.0741623118519783, -0.2475619614124298, 0.049033310264348984, -0.001545752864331007, -0.002016227226704359, 0.9996190071105957, -0.8978890776634216, -2.0358669757843018, -0.18140259385108948, 0.0, 0.0, 0.0, 0, 0, 0, 0, 0, 0, -0.8978890776634216, -2.0358669757843018, -0.18140259385108948
13917, -0.003720656968653202, -8.69259201863315e-06, -0.20446468889713287, -0.10728178173303604, 0.31781578063964844, 0.20258793234825134, -0.00037729140603914857, -3.821996142505668e-05, 0.9987037777900696, -0.8978890776634216, -2.0358669757843018, -0.18140259385108948, 0.0, 0.0, 0.0, 0, 0, 0, 0, 0, 0, -0.899580180644989, -2.039616107940674, -0.18170800805091858
13927, -0.004069956950843334, -0.0014649615623056889, -0.20529493689537048, -0.022609861567616463, 0.2005937546491623, -0.03503267094492912, 0.00019046783563680947, -0.003381890943273902, 1.0001293420791626, -0.899580180644989, -2.039616107940674, -0.18170800805091858, 0.0, 0.0, 0.0, 0, 0, 0, 0, 0, 0, -0.901271641254425, -2.0433666706085205, -0.1820143163204193
13937, -0.0043230499140918255, -0.0008212360553443432, -0.20629259943962097, -0.03310967981815338, -0.0049675689078867435, 0.03332069516181946, -0.0006879925495013595, -0.003651257837191224, 0.999856173992157, -0.901271641254425, -2.0433666706085205, -0.1820143163204193, 0.0, 0.0, 0.0, 0, 0, 0, 0, 0, 0, -0.9029631614685059, -2.0471198558807373, -0.18232092261314392
13947, -0.004367194138467312, -0.001244471757672727, -0.20517714321613312, -0.15546652674674988, -0.13882458209991455, 0.014933579601347446, -0.001964967930689454, -0.0045120916329324245, 1.0005823373794556, -0.9029631614685059, -2.0471198558807373, -0.18232092261314392, 0.0, 0.0, 0.0, 0, 0, 0, 0, 0, 0, -0.9046556353569031, -2.0508766174316406, -0.18262746930122375
13957, -0.004960835445672274, 0.0016598961083218455, -0.20524299144744873, -0.17952780425548553, -0.3003820478916168, -0.22124232351779938, -0.0011486969888210297, -0.0027840936090797186, 0.9986347556114197, -0.9046556353569031, -2.0508766174316406, -0.18262746930122375, 0.0, 0.0, 0.0, 0, 0, 0, 0, 0, 0, -0.9063495397567749, -2.0546371936798096, -0.1829340010881424
13967, -0.005022651981562376, 0.0021979566663503647, -0.20757414400577545, -0.003852968802675605, -0.034039415419101715, -0.04046148434281349, -0.001419629785232246, -0.0036507751792669296, 0.9986749887466431, -0.9063495397567749, -2.0546371936798096, -0.1829340010881424, 0.0, 0.0, 0.0, 0, 0, 0, 0, 0, 0, -0.908044695854187, -2.058400869369507, -0.18324129283428192
13977, -0.006264627445489168, 0.0027844051364809275, -0.20793087780475616, -0.08788660168647766, 0.025998486205935478, -0.11517097055912018, -0.0009136968874372542, -0.004811727441847324, 0.9995954632759094, -0.908044695854187, -2.058400869369507, -0.18324129283428192, 0.0, 0.0, 0.0, 0, 0, 0, 0, 0, 0, -0.909741222858429, -2.0621683597564697, -0.1835496574640274
13987, -0.00614317599684, 0.0023495357017964125, -0.2089647799730301, -0.1490648090839386, 0.29603785276412964, 0.018254440277814865, -0.0012094093253836036, -0.005491661373525858, 0.9993441700935364, -0.909741222858429, -2.0621683597564697, -0.1835496574640274, 0.0, 0.0, 0.0, 0, 0, 0, 0, 0, 0, -0.9114388227462769, -2.0659408569335938, -0.18385834991931915
13997, -0.004620437975972891, 0.001983602996915579, -0.20823897421360016, 0.19097481667995453, -0.16349464654922485, -0.24849463999271393, -0.002956087701022625, -0.0026249175425618887, 0.9986910820007324, -0.9114388227462769, -2.0659408569335938, -0.18385834991931915, 0.0, 0.0, 0.0, 0, 0, 0, 0, 0, 0, -0.9131379723548889, -2.0697178840637207, -0.18416786193847656
14007, -0.005103707313537598, 0.002039259532466531, -0.20754392445087433, -0.0363934189081192, -0.12416914105415344, 0.30801552534103394, -0.0004109491128474474, -0.003700192552059889, 0.9981560111045837, -0.9131379723548889, -2.0697178840637207, -0.18416786193847656, 0.0, 0.0, 0.0, 0, 0, 0, 0, 0, 0, -0.9148392081260681, -2.073498249053955, -0.18447895348072052
14017, -0.00566311227157712, 0.004102879669517279, -0.20653606951236725, -0.04389398917555809, -0.3252224624156952, 0.09227437525987625, -0.0002789270947687328, -0.0038280426524579525, 0.9991167187690735, -0.9148392081260681, -2.073498249053955, -0.18447895348072052, 0.0, 0.0, 0.0, 0, 0, 0, 0, 0, 0, -0.9165412187576294, -2.0772817134857178, -0.1847914308309555
14027, -0.005880893208086491, 0.0028862201143056154, -0.20604537427425385, -0.07291781902313232, 0.23531578481197357, 0.16610442101955414, -0.0035181103739887476, -0.004488772712647915, 0.9988393187522888, -0.9165412187576294, -2.0772817134857178, -0.1847914308309555, 0.0, 0.0, 0.0, 0, 0, 0, 0, 0, 0, -0.9182440042495728, -2.081069231033325, -0.1851051300764084
14037, -0.006642651744186878, 0.003007160499691963, -0.20573735237121582, -0.010448465123772621, -0.04694930091500282, 0.29828429222106934, -0.0045690229162573814, -0.002870145021006465, 1.0007010698318481, -0.9182440042495728, -2.081069231033325, -0.1851051300764084, 0.0, 0.0, 0.0, 0, 0, 0, 0, 0, 0, -0.9199497699737549, -2.0848608016967773, -0.1854194849729538
14047, -0.00674396101385355, 0.0035675768740475178, -0.2069438099861145, -0.19601695239543915, -0.05267336219549179, -0.2302723526954651, -0.0035140763502568007, -0.003393841441720724, 0.999388575553894, -0.9199497699737549, -2.0848608016967773, -0.1854194849729538, 0.0, 0.0, 0.0, 0, 0, 0, 0, 0, 0, -0.9216596484184265, -2.088655471801758, -0.18573369085788727
14057, -0.006601874716579914, 0.0032739252783358097, -0.20619362592697144, 0.07729188352823257, -0.053461574018001556, 0.13016277551651, -0.0019307845504954457, -0.002683318220078945, 0.9997426867485046, -0.9216596484184265, -2.088655471801758, -0.18573369085788727, 0.0, 0.0, 0.0, 0, 0, 0, 0, 0, 0, -0.9233728647232056, -2.0924527645111084, -0.18604815006256104
14067, -0.00634909188374877, 0.004113403614610434, -0.20570717751979828, 0.10709372162818909, 0.08804365247488022, -0.0791923925280571, -0.002415276598185301, -0.0038446211256086826, 0.9995937943458557, -0.9233728647232056, -2.0924527645111084, -0.18604815006256104, 0.0, 0.0, 0.0, 0, 0, 0, 0, 0, 0, -0.92508864402771, -2.0962531566619873, -0.18636298179626465
14077, -0.006440326571464539, 0.005350228399038315, -0.20735479891300201, -0.06726612895727158, -0.3129684031009674, -0.30913522839546204, -0.00319991959258914, -0.005435686092823744, 1.0001884698867798, -0.92508864402771, -2.0962531566619873, -0.18636298179626465, 0.0, 0.0, 0.0, 0, 0, 0, 0, 0, 0, -0.9268071055412292, -2.100057363510132, -0.18667784333229065
14087, -0.005992842372506857, 0.007572242058813572, -0.2088605761528015, 0.13893558084964752, -0.18142452836036682, -0.2421988993883133, -0.003074784530326724, -0.0028191390447318554, 1.0003516674041748, -0.9268071055412292, -2.100057363510132, -0.18667784333229065, 0.0, 0.0, 0.0, 0, 0, 0, 0, 0, 0, -0.9285286664962769, -2.103865623474121, -0.18699286878108978
14097, -0.006499311421066523, 0.009158419445157051, -0.20871786773204803, -0.028271278366446495, 0.07078075408935547, -0.20129215717315674, -0.0021535458508878946, -0.003256863681599498, 0.9999292492866516, -0.9285286664962769, -2.103865623474121, -0.18699286878108978, 0.0, 0.0, 0.0, 0, 0, 0, 0, 0, 0, -0.9302528500556946, -2.1076767444610596, -0.187307670712471
14107, -0.006918214727193117, 0.008288144133985043, -0.20911675691604614, 0.10394898056983948, 0.1407480090856552, 0.2279321551322937, -0.003321367781609297, -0.003419844200834632, 0.9993189573287964, -0.9302528500556946, -2.1076767444610596, -0.187307670712471, 0.0, 0.0, 0.0, 0, 0, 0, 0, 0, 0, -0.9319795370101929, -2.1114909648895264, -0.1876225769519806
14117, -0.006214608438313007, 0.006634234916418791, -0.21052856743335724, 0.06066716089844704, 0.19747701287269592, -0.22336123883724213, -0.0012164884246885777, -0.0030297974590212107, 0.9986153244972229, -0.9319795370101929, -2.1114909648895264, -0.1876225769519806, 0.0, 0.0, 0.0, 0, 0, 0, 0, 0, 0, -0.9337089657783508, -2.1153080463409424, -0.18793855607509613
14127, -0.005855550989508629, 0.0072552235797047615, -0.21023190021514893, -0.09721054136753082, -0.05007389560341835, -0.10653739422559738, 0.00030068133492022753, -0.004757885821163654, 0.999235987663269, -0.9337089657783508, -2.1153080463409424, -0.18793855607509613, 0.0, 0.0, 0.0, 0, 0, 0, 0, 0, 0, -0.9354397654533386, -2.119128465652466, -0.18825535476207733
14137, -0.006391193717718124, 0.0083656320348382, -0.21063636243343353, 0.06900881230831146, 0.0863184779882431, -0.06136692315340042, -0.0010184233542531729, -0.00382358324714005, 0.9983470439910889, -0.9354397654533386, -2.119128465652466, -0.18825535476207733, 0.0, 0.0, 0.0, 0, 0, 0, 0, 0, 0, -0.9371707439422607, -2.122952938079834, -0.18857316672801971
14147, -0.007035513874143362, 0.005205672234296799, -0.2097790241241455, -0.09088269621133804, 0.06750479340553284, -0.136516734957695, -0.0027622131165117025, -0.003196122357621789, 1.0008583068847656, -0.9371707439422607, -2.122952938079834, -0.18857316672801971, 0.0, 0.0, 0.0, 0, 0, 0, 0, 0, 0, -0.938902735710144, -2.1267812252044678, -0.18889184296131134
14157, -0.006952615454792976, 0.005315334070473909, -0.21109001338481903, 0.04240727052092552, -0.07522570341825485, -0.11755445599555969, -0.0028515381272882223, -0.0030797391664236784, 0.9977273344993591, -0.938902735710144, -2.1267812252044678, -0.18889184296131134, 0.0, 0.0, 0.0, 0, 0, 0, 0, 0, 0, -0.9406370520591736, -2.130612373352051, -0.18921084702014923
14167, -0.006948760710656643, 0.006014467682689428, -0.21018125116825104, 0.006664700340479612, -0.22429245710372925, 0.11422480642795563, -0.0015122451586648822, -0.004411325324326754, 0.997566819190979, -0.9406370520591736, -2.130612373352051, -0.18921084702014923, 0.0, 0.0, 0.0, 0, 0, 0, 0, 0, 0, -0.942374050617218, -2.134446620941162, -0.18953144550323486
14177, -0.00683564692735672, 0.006165399216115475, -0.21036654710769653, 0.15928402543067932, 0.009250259958207607, 0.15977849066257477, -0.00445473100990057, -0.004761599935591221, 0.9995590448379517, -0.942374050617218, -2.134446620941162, -0.18953144550323486, 0.0, 0.0, 0.0, 0, 0, 0, 0, 0, 0, -0.9441134333610535, -2.138284683227539, -0.18985417485237122
14187, -0.006100042257457972, 0.005590603221207857, -0.21057291328907013, 0.08994319289922714, 0.24042895436286926, 0.022017085924744606, -0.0016655194340273738, -0.0046589854173362255, 0.9983544945716858, -0.9441134333610535, -2.138284683227539, -0.18985417485237122, 0.0, 0.0, 0.0, 0, 0, 0, 0, 0, 0, -0.945855975151062, -2.14212703704834, -0.19017796218395233
14197, -0.005961272399872541, 0.004640521481633186, -0.21049337089061737, 0.033066779375076294, 0.44631803035736084, -0.023176100105047226, -0.0005967437173239887, -0.0067121414467692375, 0.9971502423286438, -0.945855975151062, -2.14212703704834, -0.19017796218395233, 0.0, 0.0, 0.0, 0, 0, 0, 0, 0, 0, -0.9476008415222168, -2.1459743976593018, -0.19050323963165283
14207, -0.005457764957100153, 0.004368503112345934, -0.20999754965305328, -0.11475733667612076, 0.026808753609657288, -0.07570643723011017, 0.00041516099008731544, -0.005374289117753506, 0.9986156225204468, -0.9476008415222168, -2.1459743976593018, -0.19050323963165283, 0.0, 0.0, 0.0, 0, 0, 0, 0, 0, 0, -0.9493460655212402, -2.149827718734741, -0.1908307671546936
14217, -0.004928271751850843, 0.00465240515768528, -0.2089604288339615, 0.040038544684648514, -0.04797717556357384, 0.01684209518134594, -0.0012422449653968215, -0.004977154545485973, 0.9992917776107788, -0.9493460655212402, -2.149827718734741, -0.1908307671546936, 0.0, 0.0, 0.0, 0, 0, 0, 0, 0, 0, -0.9510912895202637, -2.153686285018921, -0.19115981459617615
14227, -0.004248201847076416, 0.004996732342988253, -0.20818418264389038, -0.09942761808633804, 0.016111891716718674, 0.05410516634583473, -0.00019429945677984506, -0.004315193742513657, 1.0003749132156372, -0.9510912895202637, -2.153686285018921, -0.19115981459617615, 0.0, 0.0, 0.0, 0, 0, 0, 0, 0, 0, -0.9528369903564453, -2.1575496196746826, -0.19148942828178406
14237, -0.004158377647399902, 0.006784910801798105, -0.2088879644870758, 0.014096708968281746, -0.1064688190817833, -0.13816116750240326, -0.0028323601000010967, -0.002570522017776966, 1.0008807182312012, -0.9528369903564453, -2.1575496196746826, -0.19148942828178406, 0.0, 0.0, 0.0, 0, 0, 0, 0, 0, 0, -0.9545837044715881, -2.161417007446289, -0.19181875884532928
14247, -0.004436379298567772, 0.007829333655536175, -0.20979008078575134, -0.03155684098601341, -0.07558957487344742, -0.051858194172382355, -0.005479757208377123, -0.0031753319781273603, 0.9989756345748901, -0.9545837044715881, -2.161417007446289, -0.19181875884532928, 0.0, 0.0, 0.0, 0, 0, 0, 0, 0, 0, -0.9563332796096802, -2.165287494659424, -0.19214807450771332
14257, -0.004079801961779594, 0.008206403814256191, -0.2096404880285263, 0.061874859035015106, -0.09657559543848038, -0.09594573080539703, -0.002749454928562045, -0.002047143876552582, 0.9997289180755615, -0.9563332796096802, -2.165287494659424, -0.19214807450771332, 0.0, 0.0, 0.0, 0, 0, 0, 0, 0, 0, -0.9580873847007751, -2.169160842895508, -0.19247782230377197
14267, -0.0034495480358600616, 0.008569915778934956, -0.2092999368906021, 0.007199599873274565, -0.10305170714855194, 0.042261626571416855, -0.0021911682561039925, -0.004629264120012522, 1.000033974647522, -0.9580873847007751, -2.169160842895508, -0.19247782230377197, 0.0, 0.0, 0.0, 0, 0, 0, 0, 0, 0, -0.9598450064659119, -2.173037052154541, -0.19280791282653809
14277, -0.0023491336032748222, 0.010094044730067253, -0.2096557319164276, 0.25022825598716736, -0.040170442312955856, 0.02890803851187229, -0.002227034419775009, -0.003675983753055334, 1.0006581544876099, -0.9598450064659119, -2.173037052154541, -0.19280791282653809, 0.0, 0.0, 0.0, 0, 0, 0, 0, 0, 0, -0.9616049528121948, -2.1769165992736816, -0.19313791394233704
14287, -0.0027880417183041573, 0.008377964608371258, -0.21002797782421112, -0.1816314160823822, 0.02525525726377964, -0.4383581876754761, -0.0016014048596844077, -0.004789531230926514, 1.0026142597198486, -0.9616049528121948, -2.1769165992736816, -0.19313791394233704, 0.0, 0.0, 0.0, 0, 0, 0, 0, 0, 0, -0.9633669257164001, -2.180799961090088, -0.19346676766872406
14297, -0.0028584348037838936, 0.007196518592536449, -0.20922963321208954, -0.12829157710075378, -0.03339714556932449, -0.035313960164785385, -0.0008832658058963716, -0.004903306253254414, 0.9993197917938232, -0.9633669257164001, -2.180799961090088, -0.19346676766872406, 0.0, 0.0, 0.0, 0, 0, 0, 0, 0, 0, -0.965130627155304, -2.184688091278076, -0.19379445910453796
14307, -0.004796098452061415, 0.006723618134856224, -0.20923680067062378, -0.15742804110050201, 0.26843053102493286, 0.05862267687916756, -0.002755222376435995, -0.0023584216833114624, 0.9993354678153992, -0.965130627155304, -2.184688091278076, -0.19379445910453796, 0.0, 0.0, 0.0, 0, 0, 0, 0, 0, 0, -0.9668960571289062, -2.1885805130004883, -0.19412226974964142
14317, -0.005146445240825415, 0.005496226251125336, -0.20952866971492767, 0.0943533256649971, -0.15348856151103973, -0.1230141744017601, -0.002875329228118062, -0.003749171504750848, 0.9996297955513, -0.9668960571289062, -2.1885805130004883, -0.19412226974964142, 0.0, 0.0, 0.0, 0, 0, 0, 0, 0, 0, -0.9686641693115234, -2.1924757957458496, -0.19445109367370605
14327, -0.0050086984410882, 0.00615341542288661, -0.20978543162345886, 0.06692188233137131, 0.200139582157135, -0.01513348612934351, -0.002005143789574504, -0.0034938487224280834, 1.0017894506454468, -0.9686641693115234, -2.1924757957458496, -0.19445109367370605, 0.0, 0.0, 0.0, 0, 0, 0, 0, 0, 0, -0.9704350233078003, -2.1963741779327393, -0.1947798728942871
14337, -0.005296777002513409, 0.004960629623383284, -0.2103889435529709, -0.10858514904975891, -0.011862902902066708, -0.0941273644566536, -0.0021869319025427103, -0.0002765130193438381, 1.0008864402770996, -0.9704350233078003, -2.1963741779327393, -0.1947798728942871, 0.0, 0.0, 0.0, 0, 0, 0, 0, 0, 0, -0.9722080826759338, -2.200275182723999, -0.1951073408126831
14347, -0.005963886622339487, 0.005916849244385958, -0.21085186302661896, -0.06273450702428818, -0.09594553709030151, -0.1297224909067154, -0.0024696302134543657, -0.005018540658056736, 0.9974629878997803, -0.9722080826759338, -2.200275182723999, -0.1951073408126831, 0.0, 0.0, 0.0, 0, 0, 0, 0, 0, 0, -0.9739832282066345, -2.2041780948638916, -0.1954347938299179
14357, -0.006515590939670801, 0.0069069042801856995, -0.21175768971443176, -0.040530312806367874, 0.05601816624403, 0.056616105139255524, -0.002747492864727974, -0.0044172899797558784, 0.9990129470825195, -0.9739832282066345, -2.2041780948638916, -0.1954347938299179, 0.0, 0.0, 0.0, 0, 0, 0, 0, 0, 0, -0.9757607579231262, -2.208085060119629, -0.19576382637023926
14367, -0.0066293757408857346, 0.008318914100527763, -0.2109801024198532, 0.035903893411159515, -0.04982425644993782, -0.16908785700798035, -0.0018246258841827512, -0.0014143636217340827, 1.0018197298049927, -0.9757607579231262, -2.208085060119629, -0.19576382637023926, 0.0, 0.0, 0.0, 0, 0, 0, 0, 0, 0, -0.977540910243988, -2.2119956016540527, -0.1960933953523636
14377, -0.007496373262256384, 0.00786428153514862, -0.2111860066652298, -0.08160089701414108, 0.17966605722904205, 0.05640636011958122, -0.0025610264856368303, -0.003502580337226391, 1.0014015436172485, -0.977540910243988, -2.2119956016540527, -0.1960933953523636, 0.0, 0.0, 0.0, 0, 0, 0, 0, 0, 0, -0.9793232083320618, -2.2159082889556885, -0.19642172753810883
14387, -0.007140765432268381, 0.006671388633549213, -0.21051710844039917, -0.04025595262646675, 0.13021497428417206, 0.07986604422330856, -0.003959096036851406, -0.0035913661122322083, 1.0009444952011108, -0.9793232083320618, -2.2159082889556885, -0.19642172753810883, 0.0, 0.0, 0.0, 0, 0, 0, 0, 0, 0, -0.9811081290245056, -2.2198240756988525, -0.1967487335205078
14397, -0.007506445050239563, 0.006889195181429386, -0.2097819447517395, -0.2029462605714798, 0.08643962442874908, 0.1259613037109375, -0.0025747832842171192, -0.005965099669992924, 0.9986713528633118, -0.9811081290245056, -2.2198240756988525, -0.1967487335205078, 0.0, 0.0, 0.0, 0, 0, 0, 0, 0, 0, -0.9828962683677673, -2.2237441539764404, -0.19707567989826202
14407, -0.007982315495610237, 0.006356271915137768, -0.2095004767179489, -0.047679923474788666, 0.0968174934387207, 0.07770691812038422, -0.0031998699996620417, -0.003990887198597193, 0.9996454119682312, -0.9828962683677673, -2.2237441539764404, -0.19707567989826202, 0.0, 0.0, 0.0, 0, 0, 0, 0, 0, 0, -0.9846874475479126, -2.2276692390441895, -0.19740349054336548
14417, -0.0072059957310557365, 0.006488569546490908, -0.2095164954662323, -0.012856694869697094, -0.03141159564256668, -0.014600171707570553, -0.0015909933717921376, -0.003000781871378422, 0.9973786473274231, -0.9846874475479126, -2.2276692390441895, -0.19740349054336548, 0.0, 0.0, 0.0, 0, 0, 0, 0, 0, 0, -0.9864814877510071, -2.231598377227783, -0.19773255288600922
14427, -0.0067307050339877605, 0.008709296584129333, -0.2087157964706421, 0.02423780970275402, -0.12518306076526642, 0.26655852794647217, -0.0006890170625410974, -0.0025819228030741215, 1.0001487731933594, -0.9864814877510071, -2.231598377227783, -0.19773255288600922, 0.0, 0.0, 0.0, 0, 0, 0, 0, 0, 0, -0.9882776141166687, -2.235530376434326, -0.1980629712343216
14437, -0.0063325450755655766, 0.010417703539133072, -0.209640771150589, -0.13481616973876953, -0.1662922501564026, -0.0893237441778183, 0.0013961736112833023, -0.0029041627421975136, 1.001033067703247, -0.9882776141166687, -2.235530376434326, -0.1980629712343216, 0.0, 0.0, 0.0, 0, 0, 0, 0, 0, 0, -0.9900743365287781, -2.2394649982452393, -0.19839347898960114
14447, -0.0068045989610254765, 0.009780493564903736, -0.20846912264823914, -0.1116710901260376, 0.004198035690933466, 0.11828245222568512, -0.001563641126267612, -0.0032952679321169853, 0.9965178966522217, -0.9900743365287781, -2.2394649982452393, -0.19839347898960114, 0.0, 0.0, 0.0, 0, 0, 0, 0, 0, 0, -0.991871178150177, -2.2434024810791016, -0.19872428476810455
14457, -0.006377282552421093, 0.01262678299099207, -0.2088443636894226, -0.007375393062829971, -0.4061475694179535, -0.013925520703196526, -0.0019294676603749394, -0.0017136355163529515, 0.9996155500411987, -0.991871178150177, -2.2434024810791016, -0.19872428476810455, 0.0, 0.0, 0.0, 0, 0, 0, 0, 0, 0, -0.9936692714691162, -2.247342824935913, -0.1990567296743393
14467, -0.006585785187780857, 0.011663489043712616, -0.20834340155124664, 0.06461942940950394, -0.16811122000217438, 0.3442952334880829, -0.0014773646835237741, -0.0023896105121821165, 1.0003461837768555, -0.9936692714691162, -2.247342824935913, -0.1990567296743393, 0.0, 0.0, 0.0, 0, 0, 0, 0, 0, 0, -0.9954689145088196, -2.2512850761413574, -0.19938966631889343
14477, -0.005404407158493996, 0.01260578352957964, -0.2079312950372696, 0.17379941046237946, 0.12858574092388153, -0.08597660064697266, -0.003816549899056554, -0.0028909659013152122, 0.9980291724205017, -0.9954689145088196, -2.2512850761413574, -0.19938966631889343, 0.0, 0.0, 0.0, 0, 0, 0, 0, 0, 0, -0.9972708225250244, -2.2552294731140137, -0.1997227817773819
14487, -0.004869694355875254, 0.012419763952493668, -0.20752505958080292, 0.23422034084796906, -0.10107725858688354, 0.22269339859485626, -0.0005322472425177693, -0.0025348132476210594, 0.9978355765342712, -0.9972708225250244, -2.2552294731140137, -0.1997227817773819, 0.0, 0.0, 0.0, 0, 0, 0, 0, 0, 0, -0.9990755915641785, -2.259176731109619, -0.2000574916601181
14497, -0.005016535986214876, 0.012687716633081436, -0.2072536200284958, -0.025519954040646553, -0.0178860891610384, 0.10150003433227539, -0.003591458545997739, -0.002603132277727127, 1.0011402368545532, -0.9990755915641785, -2.259176731109619, -0.2000574916601181, 0.0, 0.0, 0.0, 0, 0, 0, 0, 0, 0, -1.0008825063705444, -2.2631266117095947, -0.20039354264736176
14507, -0.005055606365203857, 0.014791633002460003, -0.20817284286022186, -0.11982022225856781, -0.09704412519931793, -0.2697600722312927, -0.0024973773397505283, -0.0023672040551900864, 1.001550555229187, -1.0008825063705444, -2.2631266117095947, -0.20039354264736176, 0.0, 0.0, 0.0, 0, 0, 0, 0, 0, 0, -1.0026918649673462, -2.2670788764953613, -0.20072892308235168
14517, -0.006414428818970919, 0.015215701423585415, -0.20968085527420044, -0.14118562638759613, 0.19568751752376556, -0.04951274394989014, -0.003245911095291376, -0.0041155205108225346, 0.9996688365936279, -1.0026918649673462, -2.2670788764953613, -0.20072892308235168, 0.0, 0.0, 0.0, 0, 0, 0, 0, 0, 0, -1.0045042037963867, -2.2710342407226562, -0.201063334941864
14527, -0.005933950189501047, 0.0165041983127594, -0.208281010389328, -0.10455110669136047, -0.2545652389526367, 0.0440109483897686, -0.002631703158840537, -0.0039666458033025265, 0.9997099041938782, -1.0045042037963867, -2.2710342407226562, -0.201063334941864, 0.0, 0.0, 0.0, 0, 0, 0, 0, 0, 0, -1.0063197612762451, -2.2749929428100586, -0.20139791071414948
14537, -0.006092417519539595, 0.016802776604890823, -0.20832163095474243, 0.012580692768096924, 0.08458524942398071, -0.037774424999952316, -0.004016384482383728, -0.005168180912733078, 0.999390184879303, -1.0063197612762451, -2.2749929428100586, -0.20139791071414948, 0.0, 0.0, 0.0, 0, 0, 0, 0, 0, 0, -1.0081387758255005, -2.2789559364318848, -0.20173314213752747
14547, -0.006384324748069048, 0.019056865945458412, -0.20888327062129974, -0.009026053361594677, -0.1379895955324173, -0.3330206573009491, -0.002194968517869711, -0.004305779468268156, 0.9996210336685181, -1.0081387758255005, -2.2789559364318848, -0.20173314213752747, 0.0, 0.0, 0.0, 0, 0, 0, 0, 0, 0, -1.0099610090255737, -2.282923460006714, -0.20206911861896515
14557, -0.006238135974854231, 0.020422954112291336, -0.2090253382921219, 0.06330987811088562, -0.3138456642627716, 0.09525812417268753, -0.0026991371996700764, -0.0028941845521330833, 1.0005210638046265, -1.0099610090255737, -2.282923460006714, -0.20206911861896515, 0.0, 0.0, 0.0, 0, 0, 0, 0, 0, 0, -1.0117862224578857, -2.2868945598602295, -0.20240531861782074
14567, -0.0060097891837358475, 0.02003290317952633, -0.20792880654335022, -0.015895778313279152, -0.0862933099269867, 0.12105923891067505, -0.0017871814779937267, -0.00331119098700583, 0.9981936812400818, -1.0117862224578857, -2.2868945598602295, -0.20240531861782074, 0.0, 0.0, 0.0, 0, 0, 0, 0, 0, 0, -1.0136141777038574, -2.2908685207366943, -0.2027418315410614
14577, -0.006013840436935425, 0.021776670590043068, -0.20900791883468628, -0.004195047542452812, -0.07969408482313156, -0.05565991252660751, 8.203326433431357e-05, -0.0014846059493720531, 0.9990493059158325, -1.0136141777038574, -2.2908685207366943, -0.2027418315410614, 0.0, 0.0, 0.0, 0, 0, 0, 0, 0, 0, -1.0154441595077515, -2.2948453426361084, -0.20307929813861847
14587, -0.00638125604018569, 0.021958522498607635, -0.20758123695850372, -0.12419814616441727, -0.22941327095031738, 0.05485275387763977, -0.002224881434813142, -0.0007372593390755355, 1.000205397605896, -1.0154441595077515, -2.2948453426361084, -0.20307929813861847, 0.0, 0.0, 0.0, 0, 0, 0, 0, 0, 0, -1.017275333404541, -2.298823595046997, -0.20341730117797852
14597, -0.005526458378881216, 0.021289370954036713, -0.20797955989837646, 0.02951808087527752, 0.23423661291599274, -0.11272694915533066, -0.004310301970690489, -0.003466276219114661, 0.9998506903648376, -1.0191090106964111, -2.3028030395507812, -0.20375531911849976, 0.0, 0.0, 0.0, 0, 0, 0, 0, 0, 0, -1.0191090106964111, -2.3028030395507812, -0.20375531911849976
14607, -0.005724945571273565, 0.02166913077235222, -0.20873846113681793, 0.05573725327849388, -0.12971170246601105, 0.05433280020952225, -0.002328163245692849, -0.0032219330314546824, 1.0024877786636353, -1.0191090106964111, -2.3028030395507812, -0.20375531911849976, 0.0, 0.0, 0.0, 0, 0, 0, 0, 0, 0, -1.0209465026855469, -2.3067848682403564, -0.20409280061721802
14617, -0.004668564070016146, 0.02377658151090145, -0.20801690220832825, 0.0932612493634224, -0.15993618965148926, 0.17695043981075287, -0.0029389504343271255, -0.003945156000554562, 1.0009506940841675, -1.0227874517440796, -2.310770034790039, -0.20442867279052734, 0.0, 0.0, 0.0, 0, 0, 0, 0, 0, 0, -1.0227874517440796, -2.310770034790039, -0.20442867279052734
14627, -0.0038812446873635054, 0.02557257190346718, -0.20714616775512695, 0.09498950839042664, -0.05312756821513176, -0.15049752593040466, -0.0023326845839619637, -0.004491587169468403, 0.998166561126709, -1.024631381034851, -2.3147590160369873, -0.20476357638835907, 0.0, 0.0, 0.0, 0, 0, 0, 0, 0, 0, -1.024631381034851, -2.3147590160369873, -0.20476357638835907
14637, -0.005516525823622942, 0.025752443820238113, -0.20818501710891724, -0.24016150832176208, -0.1330873817205429, -0.18080952763557434, -0.002798601984977722, -0.004402962047606707, 0.9989495277404785, -1.0264784097671509, -2.3187522888183594, -0.20509935915470123, 0.0, 0.0, 0.0, 0, 0, 0, 0, 0, 0, -1.0264784097671509, -2.3187522888183594, -0.20509935915470123
14647, -0.0067903208546340466, 0.026352189481258392, -0.21041271090507507, -0.18459473550319672, 0.0023599660489708185, -0.054010745137929916, -0.0022114685270935297, -0.00612606480717659, 0.9996755123138428, -1.028328537940979, -2.3227505683898926, -0.20543637871742249, 0.0, 0.0, 0.0, 0, 0, 0, 0, 0, 0, -1.028328537940979, -2.3227505683898926, -0.20543637871742249
14657, -0.007209493778645992, 0.025662638247013092, -0.2105702906847, 0.07885538786649704, 0.17789532244205475, 0.014906001277267933, -0.00323266489431262, -0.004113921895623207, 1.0007797479629517, -1.030181646347046, -2.326753854751587, -0.20577384531497955, 0.0, 0.0, 0.0, 0, 0, 0, 0, 0, 0, -1.030181646347046, -2.326753854751587, -0.20577384531497955
14667, -0.006457535549998283, 0.024836013093590736, -0.20979878306388855, -0.04920998960733414, 0.19309215247631073, 0.17080050706863403, -0.003898133523762226, -0.0038857669569551945, 1.0012776851654053, -1.0320380926132202, -2.330761432647705, -0.20611093938350677, 0.0, 0.0, 0.0, 0, 0, 0, 0, 0, 0, -1.0320380926132202, -2.330761432647705, -0.20611093938350677
14677, -0.006715708412230015, 0.022827964276075363, -0.20936448872089386, 0.07360244542360306, 0.10937397181987762, -0.12561847269535065, -0.0019065422238782048, -0.0032986344303935766, 1.0008771419525146, -1.0338977575302124, -2.3347725868225098, -0.20644694566726685, 0.0, 0.0, 0.0, 0, 0, 0, 0, 0, 0, -1.0338977575302124, -2.3347725868225098, -0.20644694566726685
14687, -0.006505494937300682, 0.02358941175043583, -0.21012423932552338, 0.021014058962464333, -0.10708263516426086, -0.08929040282964706, -0.002079470083117485, -0.0033405814319849014, 0.999469518661499, -1.0357604026794434, -2.3387868404388428, -0.20678219199180603, 0.0, 0.0, 0.0, 0, 0, 0, 0, 0, 0, -1.0357604026794434, -2.3387868404388428, -0.20678219199180603
14697, -0.006396111566573381, 0.023487819358706474, -0.2099655419588089, 0.01631709560751915, 0.11124452203512192, 0.22123858332633972, -0.0009199322084896266, -0.005321908742189407, 0.9992997646331787, -1.0376250743865967, -2.3428046703338623, -0.20711760222911835, 0.0, 0.0, 0.0, 0, 0, 0, 0, 0, 0, -1.0376250743865967, -2.3428046703338623, -0.20711760222911835
14707, -0.007342413067817688, 0.022168727591633797, -0.20967939496040344, -0.20276442170143127, 0.19975684583187103, -0.2100718766450882, -0.003339609829708934, -0.0034779864363372326, 0.9986648559570312, -1.0394915342330933, -2.3468270301818848, -0.20745360851287842, 0.0, 0.0, 0.0, 0, 0, 0, 0, 0, 0, -1.0394915342330933, -2.3468270301818848, -0.20745360851287842
14717, -0.006748625077307224, 0.022161269560456276, -0.20986269414424896, 0.2857091724872589, -0.16856695711612701, 0.23296475410461426, -0.0012035671388730407, -0.0005844387342222035, 0.9993274807929993, -1.0413610935211182, -2.3508524894714355, -0.20779074728488922, 0.0, 0.0, 0.0, 0, 0, 0, 0, 0, 0, -1.0413610935211182, -2.3508524894714355, -0.20779074728488922
14727, -0.007004907354712486, 0.021740436553955078, -0.2101498544216156, 0.004369797650724649, 0.09762825816869736, -0.0403890497982502, 0.0007301421137526631, -0.0021932919044047594, 1.002005696296692, -1.0413610935211182, -2.3508524894714355, -0.20779074728488922, 0.0, 0.0, 0.0, 0, 0, 0, 0, 0, 0, -1.0432323217391968, -2.354879379272461, -0.20812828838825226
14737, -0.006927370093762875, 0.02199600264430046, -0.2107674926519394, 0.07700132578611374, -0.05248289555311203, -0.1222766637802124, -0.001989217707887292, -0.004628948401659727, 0.9989385008811951, -1.0451037883758545, -2.3589086532592773, -0.20846515893936157, 0.0, 0.0, 0.0, 0, 0, 0, 0, 0, 0, -1.0451037883758545, -2.3589086532592773, -0.20846515893936157
14747, -0.007174652069807053, 0.020539680495858192, -0.20993000268936157, 0.06356898695230484, 0.31505680084228516, 0.11775163561105728, -0.002608122304081917, -0.004728391766548157, 0.9977587461471558, -1.0451037883758545, -2.3589086532592773, -0.20846515893936157, 0.0, 0.0, 0.0, 0, 0, 0, 0, 0, 0, -1.0469766855239868, -2.3629417419433594, -0.20880259573459625
14757, -0.00680858688428998, 0.019757099449634552, -0.2111070454120636, 0.04159754887223244, 0.08343911916017532, -0.16508550941944122, -0.002545515773817897, -0.0053593735210597515, 1.0009427070617676, -1.0469766855239868, -2.3629417419433594, -0.20880259573459625, 0.0, 0.0, 0.0, 0, 0, 0, 0, 0, 0, -1.0488524436950684, -2.3669793605804443, -0.20914119482040405
14767, -0.007019499782472849, 0.022557919844985008, -0.2109728753566742, 0.12987001240253448, -0.08309618383646011, 0.013193740509450436, -0.0005036958609707654, -0.00570930540561676, 1.0001201629638672, -1.0488524436950684, -2.3669793605804443, -0.20914119482040405, 0.0, 0.0, 0.0, 0, 0, 0, 0, 0, 0, -1.0507304668426514, -2.3710217475891113, -0.2094796597957611
14777, -0.007125360891222954, 0.021093685179948807, -0.21146716177463531, -0.03188411891460419, 0.2976621091365814, 0.2595697045326233, 0.0007188464514911175, -0.0022466906812042, 1.0008728504180908, -1.0507304668426514, -2.3710217475891113, -0.2094796597957611, 0.0, 0.0, 0.0, 0, 0, 0, 0, 0, 0, -1.0526095628738403, -2.3750686645507812, -0.20981748402118683
14787, -0.006165469065308571, 0.020658893510699272, -0.21096453070640564, -0.026728220283985138, 0.020532207563519478, -0.21291764080524445, -0.0003112660488113761, -0.0007480448111891747, 1.0001552104949951, -1.0526095628738403, -2.3750686645507812, -0.20981748402118683, 0.0, 0.0, 0.0, 0, 0, 0, 0, 0, 0, -1.0544887781143188, -2.3791182041168213, -0.21015454828739166
14797, -0.00600363127887249, 0.01987324096262455, -0.21173574030399323, 0.011981543153524399, -0.0139134107157588, -0.08600696921348572, 0.0015720718074589968, -0.004564760718494654, 0.9976773262023926, -1.0544887781143188, -2.3791182041168213, -0.21015454828739166, 0.0, 0.0, 0.0, 0, 0, 0, 0, 0, 0, -1.0563676357269287, -2.383169651031494, -0.2104918211698532
14807, -0.006517302244901657, 0.020281720906496048, -0.21278175711631775, -0.16743400692939758, -0.11656592786312103, -0.25214311480522156, -0.00031325180316343904, -0.003442717483267188, 0.9984367489814758, -1.0563676357269287, -2.383169651031494, -0.2104918211698532, 0.0, 0.0, 0.0, 0, 0, 0, 0, 0, 0, -1.0582458972930908, -2.3872241973876953, -0.21083076298236847
14817, -0.007435314357280731, 0.01775364577770233, -0.21209311485290527, -0.057399868965148926, 0.38818883895874023, -0.027817856520414352, -0.0004682427388615906, -0.003286728635430336, 0.9989451766014099, -1.0582458972930908, -2.3872241973876953, -0.21083076298236847, 0.0, 0.0, 0.0, 0, 0, 0, 0, 0, 0, -1.0601242780685425, -2.391282320022583, -0.21117112040519714
14827, -0.007564565632492304, 0.014642295427620411, -0.21321426331996918, -0.2124251425266266, 0.16422496736049652, -0.15030242502689362, -0.0022696140222251415, -0.0031488484237343073, 0.999970018863678, -1.0601242780685425, -2.391282320022583, -0.21117112040519714, 0.0, 0.0, 0.0, 0, 0, 0, 0, 0, 0, -1.0620039701461792, -2.395343542098999, -0.2115122228860855
14837, -0.007432751357555389, 0.01542328018695116, -0.2138327658176422, 0.011531627736985683, -0.04479677602648735, 0.062359120696783066, -0.002616323297843337, -0.0024474398232996464, 0.9998174905776978, -1.0620039701461792, -2.395343542098999, -0.2115122228860855, 0.0, 0.0, 0.0, 0, 0, 0, 0, 0, 0, -1.0638858079910278, -2.3994076251983643, -0.21185359358787537
14847, -0.008036298677325249, 0.015793589875102043, -0.2130240947008133, -0.006362039130181074, -0.1686534285545349, -0.1674288511276245, -0.0022165903355926275, -0.003061458468437195, 1.0027235746383667, -1.0638858079910278, -2.3994076251983643, -0.21185359358787537, 0.0, 0.0, 0.0, 0, 0, 0, 0, 0, 0, -1.065770149230957, -2.4034743309020996, -0.21219435334205627
14857, -0.008710718713700771, 0.01491194125264883, -0.21408843994140625, -0.14333553612232208, -0.004684590734541416, 0.0894794687628746, -0.00024009578919503838, -0.0030067970510572195, 1.0022653341293335, -1.065770149230957, -2.4034743309020996, -0.21219435334205627, 0.0, 0.0, 0.0, 0, 0, 0, 0, 0, 0, -1.0676566362380981, -2.407543659210205, -0.21253307163715363
14867, -0.00894754659384489, 0.015527581796050072, -0.21444851160049438, 0.04981909692287445, -0.045581866055727005, -0.07358402758836746, -0.002625615568831563, -0.0028342599980533123, 0.999410092830658, -1.0676566362380981, -2.407543659210205, -0.21253307163715363, 0.0, 0.0, 0.0, 0, 0, 0, 0, 0, 0, -1.0695446729660034, -2.4116158485412598, -0.21287021040916443
14877, -0.00938210915774107, 0.014970761723816395, -0.21396327018737793, 0.003593841567635536, 0.08596950769424438, -0.08813956379890442, -0.0014063981361687183, -0.0031004289630800486, 0.9999004006385803, -1.0695446729660034, -2.4116158485412598, -0.21287021040916443, 0.0, 0.0, 0.0, 0, 0, 0, 0, 0, 0, -1.0714343786239624, -2.4156908988952637, -0.2132076621055603
14887, -0.008981424383819103, 0.013207163661718369, -0.2156117856502533, 0.08908551931381226, 0.24519172310829163, -0.010434238240122795, -0.0012058507418259978, -0.0044502681121230125, 1.0014535188674927, -1.0714343786239624, -2.4156908988952637, -0.2132076621055603, 0.0, 0.0, 0.0, 0, 0, 0, 0, 0, 0, -1.073325753211975, -2.419769048690796, -0.2135453224182129
14897, -0.010342506691813469, 0.012651159428060055, -0.21580885350704193, -0.20951327681541443, 0.04525364935398102, -0.1729183793067932, -0.0015573034761473536, -0.0032936781644821167, 1.000277042388916, -1.073325753211975, -2.419769048690796, -0.2135453224182129, 0.0, 0.0, 0.0, 0, 0, 0, 0, 0, 0, -1.0752185583114624, -2.4238505363464355, -0.213882178068161
14907, -0.009558364748954773, 0.014325063675642014, -0.21710383892059326, 0.09672630578279495, -0.06577035784721375, -0.15552034974098206, -0.0020817916374653578, -0.0023169643245637417, 1.0002825260162354, -1.0752185583114624, -2.4238505363464355, -0.213882178068161, 0.0, 0.0, 0.0, 0, 0, 0, 0, 0, 0, -1.077113151550293, -2.4279351234436035, -0.21421824395656586
14917, -0.008999504148960114, 0.014438821002840996, -0.2174498736858368, 0.06846022605895996, -0.06589280813932419, -0.16399267315864563, -0.004173877649009228, -0.003811558708548546, 1.00132417678833, -1.077113151550293, -2.4279351234436035, -0.21421824395656586, 0.0, 0.0, 0.0, 0, 0, 0, 0, 0, 0, -1.0790106058120728, -2.4320223331451416, -0.2145536243915558
14927, -0.00848782155662775, 0.01413128711283207, -0.21787765622138977, -0.12263137102127075, 0.23433078825473785, -0.1073581725358963, -0.002361391205340624, -0.002638786332681775, 0.9999094605445862, -1.0790106058120728, -2.4320223331451416, -0.2145536243915558, 0.0, 0.0, 0.0, 0, 0, 0, 0, 0, 0, -1.0809117555618286, -2.436112403869629, -0.21488802134990692
14937, -0.009495755657553673, 0.014069165103137493, -0.217522993683815, -0.1112627387046814, -0.18781009316444397, 0.1506747603416443, -0.0004959575016982853, -0.0025320386048406363, 0.9982013702392578, -1.0809117555618286, -2.436112403869629, -0.21488802134990692, 0.0, 0.0, 0.0, 0, 0, 0, 0, 0, 0, -1.0828152894973755, -2.4402050971984863, -0.21522250771522522
14947, -0.008837108500301838, 0.015011434443295002, -0.21879222989082336, 0.10756891965866089, -0.12605781853199005, -0.15273508429527283, -0.0012784911086782813, -0.0035284499172121286, 0.9991891384124756, -1.0828152894973755, -2.4402050971984863, -0.21522250771522522, 0.0, 0.0, 0.0, 0, 0, 0, 0, 0, 0, -1.0847200155258179, -2.444300413131714, -0.21555837988853455
14957, -0.009036576375365257, 0.01712822914123535, -0.21758277714252472, 0.12958717346191406, -0.017121778801083565, 0.22447863221168518, -0.002834771294146776, -0.004686989821493626, 0.9986239671707153, -1.0847200155258179, -2.444300413131714, -0.21555837988853455, 0.0, 0.0, 0.0, 0, 0, 0, 0, 0, 0, -1.086626410484314, -2.448399066925049, -0.21589554846286774
14967, -0.00939227920025587, 0.01550027634948492, -0.21741217374801636, 0.1596987098455429, 0.15643543004989624, -0.023751957342028618, -0.0015467972261831164, -0.0025304548908025026, 0.9996625781059265, -1.086626410484314, -2.448399066925049, -0.21589554846286774, 0.0, 0.0, 0.0, 0, 0, 0, 0, 0, 0, -1.0885353088378906, -2.4525015354156494, -0.21623383462429047
14977, -0.008988862857222557, 0.014949415810406208, -0.2162807583808899, -0.0076652588322758675, -0.012737390585243702, 0.1825510859489441, 0.000939423218369484, -0.003990880213677883, 0.9995205998420715, -1.0885353088378906, -2.4525015354156494, -0.21623383462429047, 0.0, 0.0, 0.0, 0, 0, 0, 0, 0, 0, -1.090445637702942, -2.4566073417663574, -0.21657255291938782
14987, -0.009878642857074738, 0.01348597276955843, -0.21561749279499054, 0.08397112786769867, 0.218266099691391, -0.09908060729503632, -0.0019271154887974262, -0.004795221146196127, 1.0007778406143188, -1.090445637702942, -2.4566073417663574, -0.21657255291938782, 0.0, 0.0, 0.0, 0, 0, 0, 0, 0, 0, -1.092356562614441, -2.460716962814331, -0.21691115200519562
14997, -0.011022064834833145, 0.013632729649543762, -0.21500155329704285, -0.11435887217521667, -0.02764633484184742, -0.049137648195028305, -0.0027831525076180696, -0.0044957175850868225, 0.9985993504524231, -1.092356562614441, -2.460716962814331, -0.21691115200519562, 0.0, 0.0, 0.0, 0, 0, 0, 0, 0, 0, -1.0942691564559937, -2.4648303985595703, -0.2172497808933258
15007, -0.010535570792853832, 0.013633821159601212, -0.21453909575939178, 0.03197833523154259, -0.13883215188980103, -0.013080541975796223, -0.0009300237288698554, -0.004179081413894892, 0.996801495552063, -1.0942691564559937, -2.4648303985595703, -0.2172497808933258, 0.0, 0.0, 0.0, 0, 0, 0, 0, 0, 0, -1.0961840152740479, -2.4689481258392334, -0.2175895720720291
15017, -0.011412368156015873, 0.013309027068316936, -0.2145281583070755, -0.16522730886936188, -0.024327529594302177, -0.20666562020778656, -0.0007927003898657858, -0.001873863278888166, 0.9988974928855896, -1.0961840152740479, -2.4689481258392334, -0.2175895720720291, 0.0, 0.0, 0.0, 0, 0, 0, 0, 0, 0, -1.0981003046035767, -2.473069667816162, -0.21793167293071747
15027, -0.011411880142986774, 0.013922169804573059, -0.21247294545173645, -0.03751472756266594, 0.03187496215105057, 0.13934426009655, -0.0005877591902390122, -0.001872729859314859, 0.9987795948982239, -1.0981003046035767, -2.473069667816162, -0.21793167293071747, 0.0, 0.0, 0.0, 0, 0, 0, 0, 0, 0, -1.1000175476074219, -2.4771928787231445, -0.21827538311481476
15037, -0.011779321357607841, 0.014140984043478966, -0.21276070177555084, 0.13081355392932892, -0.04084131866693497, 0.04153455048799515, 0.00039017238304950297, -0.0029976170044392347, 0.9985443353652954, -1.1000175476074219, -2.4771928787231445, -0.21827538311481476, 0.0, 0.0, 0.0, 0, 0, 0, 0, 0, 0, -1.1019352674484253, -2.4813177585601807, -0.21862027049064636
15047, -0.012377063743770123, 0.015380308032035828, -0.2127944529056549, -0.07383251190185547, -0.031127704307436943, 0.10280469805002213, -0.00135741475969553, -0.003071590792387724, 0.9983440637588501, -1.1019352674484253, -2.4813177585601807, -0.21862027049064636, 0.0, 0.0, 0.0, 0, 0, 0, 0, 0, 0, -1.103853464126587, -2.485445261001587, -0.2189665138721466
15057, -0.01287034060806036, 0.014141866005957127, -0.2136339694261551, -0.054699212312698364, 0.3998914659023285, 0.003608165541663766, -0.001510395435616374, -0.0030019301921129227, 0.9992462396621704, -1.103853464126587, -2.485445261001587, -0.2189665138721466, 0.0, 0.0, 0.0, 0, 0, 0, 0, 0, 0, -1.1057730913162231, -2.4895758628845215, -0.21931394934654236
15067, -0.012614468112587929, 0.013111382722854614, -0.21356403827667236, 0.1151922419667244, -0.0856022909283638, 0.054291337728500366, -0.0019472719868645072, -0.0021987000945955515, 0.999172568321228, -1.1057730913162231, -2.4895758628845215, -0.21931394934654236, 0.0, 0.0, 0.0, 0, 0, 0, 0, 0, 0, -1.1076945066452026, -2.493709087371826, -0.21966244280338287
15077, -0.01326195802539587, 0.012017356231808662, -0.21376219391822815, 0.015334035269916058, 0.19636733829975128, -0.04691675305366516, -0.0023408373817801476, -0.002595477970317006, 0.9996119737625122, -1.1076945066452026, -2.493709087371826, -0.21966244280338287, 0.0, 0.0, 0.0, 0, 0, 0, 0, 0, 0, -1.1096179485321045, -2.4978444576263428, -0.22001169621944427
15087, -0.013130920007824898, 0.012073595076799393, -0.21236342191696167, -0.0977431982755661, -0.045004867017269135, -0.21496842801570892, -0.0031315425876528025, -0.0035628455225378275, 1.0014526844024658, -1.1096179485321045, -2.4978444576263428, -0.22001169621944427, 0.0, 0.0, 0.0, 0, 0, 0, 0, 0, 0, -1.111543893814087, -2.5019824504852295, -0.22036077082157135
15097, -0.0135961240157485, 0.013537462800741196, -0.2135319858789444, 0.05410047993063927, -0.08308933675289154, -0.030633095651865005, -0.0025271575432270765, -0.0038678760174661875, 1.002132534980774, -1.111543893814087, -2.5019824504852295, -0.22036077082157135, 0.0, 0.0, 0.0, 0, 0, 0, 0, 0, 0, -1.113472819328308, -2.5061237812042236, -0.22070863842964172
15107, -0.01307650189846754, 0.012864944525063038, -0.21371255815029144, 0.062158141285181046, 0.16809110343456268, -0.06775680929422379, -0.001691022072918713, -0.003096591681241989, 0.9990465044975281, -1.113472819328308, -2.5061237812042236, -0.22070863842964172, 0.0, 0.0, 0.0, 0, 0, 0, 0, 0, 0, -1.1154040098190308, -2.510268211364746, -0.22105546295642853
15117, -0.013752208091318607, 0.013157138600945473, -0.21414907276630402, -0.09649115055799484, -0.01235502865165472, -0.10940387845039368, -0.00023911595053505152, -0.003980899229645729, 0.9997233152389526, -1.1154040098190308, -2.510268211364746, -0.22105546295642853, 0.0, 0.0, 0.0, 0, 0, 0, 0, 0, 0, -1.117336630821228, -2.514415979385376, -0.22140221297740936
