timeTick, roll, pitch, yaw, gyroX, gyroY, gyroZ, accX, accY, accZ, stateX, stateY, stateZ, target_x, target_y, target_z, otX, otY, otZ, otRoll, otPitch, otYaw, kalX, kalY, kalZ
12135, 0.09430772811174393, -0.1442078799009323, 0.08934669941663742, 0, 0, 0, 0, 0, 0, 0, 0, 0, 0, 0, 0, 0, 0, 0, 0, 0, 0, 0, 0, 0
12145, 0.09569764882326126, -0.1441938877105713, 0.08786879479885101, -0.11141442507505417, -0.04895761236548424, 0.04998086392879486, -0.0061368378810584545, -0.0033453290816396475, 1.001709222793579, -0.6333742737770081, -1.4201899766921997, 0.06215789169073105, 0.0, 0.0, 0.0, 0, 0, 0, 0, 0, 0, -0.6333742737770081, -1.4201899766921997, 0.06215789169073105
12155, 0.0957147628068924, -0.14369206130504608, 0.08848452568054199, 0.05311620607972145, 0.13037876784801483, 0.18611066043376923, -0.0021714100148528814, -0.0032172277569770813, 1.0013751983642578, -0.6344374418258667, -1.4235063791275024, 0.06230688840150833, 0.0, 0.0, 0.0, 0, 0, 0, 0, 0, 0, -0.6344374418258667, -1.4235063791275024, 0.06230688840150833
12165, 0.09630723297595978, -0.1432945430278778, 0.08877184987068176, -0.09378981590270996, 0.017945628613233566, -0.18027080595493317, -0.002316076774150133, -0.005053156521171331, 1.0001331567764282, -0.6355019211769104, -1.4268277883529663, 0.06245698779821396, 0.0, 0.0, 0.0, 0, 0, 0, 0, 0, 0, -0.6355019211769104, -1.4268277883529663, 0.06245698779821396
12175, 0.09550324082374573, -0.14470763504505157, 0.08690905570983887, 0.015108401887118816, 0.06470498442649841, -0.0020425289403647184, -0.003396468237042427, -0.0032409559935331345, 1.0002968311309814, -0.6365662217140198, -1.4301549196243286, 0.06260769814252853, 0.0, 0.0, 0.0, 0, 0, 0, 0, 0, 0, -0.6365662217140198, -1.4301549196243286, 0.06260769814252853
12185, 0.09437548369169235, -0.14647522568702698, 0.08742018789052963, 0.19325895607471466, -0.1733570694923401, 0.18785496056079865, -0.002070655347779393, -0.0019530316349118948, 0.9995179772377014, -0.6376308798789978, -1.4334875345230103, 0.06275854259729385, 0.0, 0.0, 0.0, 0, 0, 0, 0, 0, 0, -0.6376308798789978, -1.4334875345230103, 0.06275854259729385
12195, 0.0949501320719719, -0.14506541192531586, 0.08831120282411575, -0.26900574564933777, 0.31043586134910583, -0.1546202152967453, -0.002982297446578741, -0.0007199539104476571, 0.9997875094413757, -0.6386956572532654, -1.4368239641189575, 0.06290927529335022, 0.0, 0.0, 0.0, 0, 0, 0, 0, 0, 0, -0.6386956572532654, -1.4368239641189575, 0.06290927529335022
12205, 0.09373047202825546, -0.14662300050258636, 0.08683165162801743, 0.1317954957485199, 0.05566602572798729, -0.0018983627669513226, -0.00402854522690177, -0.0041224039159715176, 1.0012553930282593, -0.6397605538368225, -1.4401636123657227, 0.06305979192256927, 0.0, 0.0, 0.0, 0, 0, 0, 0, 0, 0, -0.6397605538368225, -1.4401636123657227, 0.06305979192256927
12215, 0.094508096575737, -0.14789322018623352, 0.08638332039117813, -0.00554032064974308, -0.037768229842185974, -0.2266368716955185, -0.004876339342445135, -0.0017938751261681318, 1.0012305974960327, -0.6408264636993408, -1.443507432937622, 0.06321090459823608, 0.0, 0.0, 0.0, 0, 0, 0, 0, 0, 0, -0.6408264636993408, -1.443507432937622, 0.06321090459823608
12225, 0.09477338194847107, -0.14796242117881775, 0.08592317998409271, -0.04488977789878845, 0.2698368430137634, 0.11598984152078629, -0.003989431541413069, -0.003997836261987686, 1.0000110864639282, -0.6418943405151367, -1.4468557834625244, 0.06336306780576706, 0.0, 0.0, 0.0, 0, 0, 0, 0, 0, 0, -0.6418943405151367, -1.4468557834625244, 0.06336306780576706
12235, 0.09519314765930176, -0.15004773437976837, 0.08631841093301773, 0.1004076898097992, 0.3548085689544678, 0.13736356794834137, -0.0015771579928696156, -0.004781101364642382, 1.0003905296325684, -0.6429636478424072, -1.4502090215682983, 0.06351567804813385, 0.0, 0.0, 0.0, 0, 0, 0, 0, 0, 0, -0.6429636478424072, -1.4502090215682983, 0.06351567804813385
12245, 0.09560804069042206, -0.15258365869522095, 0.08776134252548218, -0.11108339577913284, 0.022692609578371048, 0.1266694962978363, -0.0038353202398866415, -0.0017944072606042027, 0.9994149804115295, -0.6440328359603882, -1.4535679817199707, 0.06366845220327377, 0.0, 0.0, 0.0, 0, 0, 0, 0, 0, 0, -0.6440328359603882, -1.4535679817199707, 0.06366845220327377
12255, 0.09532556682825089, -0.15165013074874878, 0.087452232837677, 0.019400732591748238, -0.29683879017829895, 0.013129448518157005, -0.003593160305172205, -0.005006600171327591, 1.0002704858779907, -0.6451021432876587, -1.456931710243225, 0.06382103264331818, 0.0, 0.0, 0.0, 0, 0, 0, 0, 0, 0, -0.6451021432876587, -1.456931710243225, 0.06382103264331818
12265, 0.09601012617349625, -0.14999857544898987, 0.08685186505317688, 0.23504149913787842, 0.004467352759093046, 0.030224278569221497, -0.0014445243868976831, -0.0024383394047617912, 0.9996534585952759, -0.6461721062660217, -1.460300326347351, 0.06397346407175064, 0.0, 0.0, 0.0, 0, 0, 0, 0, 0, 0, -0.6461721062660217, -1.460300326347351, 0.06397346407175064
12275, 0.09752659499645233, -0.1485825777053833, 0.0867861658334732, 0.006343364249914885, -0.04063346982002258, 0.003013410372659564, -0.0028392404783517122, -0.0031002615578472614, 0.999886155128479, -0.6472419500350952, -1.4636741876602173, 0.06412599980831146, 0.0, 0.0, 0.0, 0, 0, 0, 0, 0, 0, -0.6472419500350952, -1.4636741876602173, 0.06412599980831146
12285, 0.09822076559066772, -0.14868780970573425, 0.08596833795309067, 0.1351567655801773, -0.2807016670703888, 0.10679526627063751, -0.0033708885312080383, -0.00380508229136467, 1.0007603168487549, -0.6483116149902344, -1.467052698135376, 0.06427852064371109, 0.0, 0.0, 0.0, 0, 0, 0, 0, 0, 0, -0.6483116149902344, -1.467052698135376, 0.06427852064371109
12295, 0.09800831228494644, -0.1462702751159668, 0.08611831068992615, 0.09390423446893692, 0.24510124325752258, 0.16286639869213104, -0.0032211849465966225, -0.002435273490846157, 1.0007878541946411, -0.6493819355964661, -1.4704363346099854, 0.06443151831626892, 0.0, 0.0, 0.0, 0, 0, 0, 0, 0, 0, -0.6493819355964661, -1.4704363346099854, 0.06443151831626892
12305, 0.09876585751771927, -0.1466885656118393, 0.08591513335704803, -0.1999354213476181, -0.16911941766738892, -0.05237411707639694, -0.003561856225132942, -0.003209787653759122, 1.0012556314468384, -0.6504529118537903, -1.4738247394561768, 0.06458526849746704, 0.0, 0.0, 0.0, 0, 0, 0, 0, 0, 0, -0.6504529118537903, -1.4738247394561768, 0.06458526849746704
12315, 0.09791494160890579, -0.14470908045768738, 0.08678938448429108, -0.017362957820296288, 0.16720952093601227, -0.1062447652220726, -0.0028542540967464447, -0.0016945393290370703, 1.003002405166626, -0.6515247225761414, -1.477217435836792, 0.06474022567272186, 0.0, 0.0, 0.0, 0, 0, 0, 0, 0, 0, -0.6515247225761414, -1.477217435836792, 0.06474022567272186
12325, 0.09775695204734802, -0.14609259366989136, 0.0867656022310257, -0.07257137447595596, 0.11588051170110703, -0.0011414973996579647, -0.002298496663570404, -0.001582225551828742, 0.9991426467895508, -0.6525972485542297, -1.4806139469146729, 0.0648970678448677, 0.0, 0.0, 0.0, 0, 0, 0, 0, 0, 0, -0.6525972485542297, -1.4806139469146729, 0.0648970678448677
12335, 0.0986393466591835, -0.1472821831703186, 0.08724625408649445, 0.05115853622555733, -0.20685048401355743, -0.27349743247032166, -0.0035025684628635645, -0.003400285029783845, 1.0004490613937378, -0.6536697745323181, -1.4840140342712402, 0.06505453586578369, 0.0, 0.0, 0.0, 0, 0, 0, 0, 0, 0, -0.6536697745323181, -1.4840140342712402, 0.06505453586578369
12345, 0.09867360442876816, -0.14563296735286713, 0.08660963922739029, 0.0005634952685795724, -0.05047965049743652, 0.03834526985883713, -0.003041954478248954, -0.003807949833571911, 1.0027459859848022, -0.6547425389289856, -1.4874184131622314, 0.06521210819482803, 0.0, 0.0, 0.0, 0, 0, 0, 0, 0, 0, -0.6547425389289856, -1.4874184131622314, 0.06521210819482803
12355, 0.09885954856872559, -0.14565099775791168, 0.08680135756731033, 0.30038660764694214, 0.18089920282363892, 0.09542090445756912, -0.0019717782270163298, -0.0032487427815794945, 1.0011712312698364, -0.6558157801628113, -1.490828037261963, 0.06537125259637833, 0.0, 0.0, 0.0, 0, 0, 0, 0, 0, 0, -0.6558157801628113, -1.490828037261963, 0.06537125259637833
12365, 0.10033940523862839, -0.1447526514530182, 0.08693259209394455, 0.005259208846837282, 0.08744702488183975, -0.36554157733917236, -0.0012007724726572633, -0.0033146038185805082, 1.001434564590454, -0.6568886637687683, -1.4942426681518555, 0.06553211063146591, 0.0, 0.0, 0.0, 0, 0, 0, 0, 0, 0, -0.6568886637687683, -1.4942426681518555, 0.06553211063146591
12375, 0.10016278922557831, -0.1440041959285736, 0.0860132947564125, -0.13302195072174072, 0.0821378231048584, 0.04229843616485596, -0.0017442124662920833, -0.002692864276468754, 1.002092719078064, -0.6579605340957642, -1.4976623058319092, 0.0656944289803505, 0.0, 0.0, 0.0, 0, 0, 0, 0, 0, 0, -0.6579605340957642, -1.4976623058319092, 0.0656944289803505
12385, 0.09941132366657257, -0.14492490887641907, 0.08684255182743073, 0.03712308034300804, 0.25010812282562256, -0.05043061450123787, -0.002012197393923998, -0.0018073093378916383, 1.0000128746032715, -0.6590312719345093, -1.5010864734649658, 0.06585856527090073, 0.0, 0.0, 0.0, 0, 0, 0, 0, 0, 0, -0.6590312719345093, -1.5010864734649658, 0.06585856527090073
12395, 0.09942357242107391, -0.14517870545387268, 0.08654602617025375, -0.08338171243667603, 0.12744279205799103, 0.13996240496635437, -0.002942215884104371, -0.003228632267564535, 1.0002440214157104, -0.6601013541221619, -1.504514455795288, 0.06602370738983154, 0.0, 0.0, 0.0, 0, 0, 0, 0, 0, 0, -0.6601013541221619, -1.504514455795288, 0.06602370738983154
12405, 0.09890683740377426, -0.14682650566101074, 0.08742415904998779, 0.09930766373872757, 0.10203707218170166, 0.047771651297807693, -0.0014112076023593545, -0.0035088779404759407, 1.0007965564727783, -0.6611713171005249, -1.5079468488693237, 0.06618908792734146, 0.0, 0.0, 0.0, 0, 0, 0, 0, 0, 0, -0.6611713171005249, -1.5079468488693237, 0.06618908792734146
12415, 0.09905801713466644, -0.14777052402496338, 0.08738142997026443, 0.07022283971309662, 0.04523365572094917, -0.027415359392762184, -0.0027649349067360163, -0.0048253596760332584, 0.9998770356178284, -0.6622408032417297, -1.5113844871520996, 0.06635474413633347, 0.0, 0.0, 0.0, 0, 0, 0, 0, 0, 0, -0.6622408032417297, -1.5113844871520996, 0.06635474413633347
12425, 0.09961514174938202, -0.14677685499191284, 0.08620890229940414, 0.09290098398923874, -0.2131621390581131, -0.227393239736557, -0.003641305025666952, -0.00123280577827245, 1.001442313194275, -0.6633100509643555, -1.5148276090621948, 0.06652045994997025, 0.0, 0.0, 0.0, 0, 0, 0, 0, 0, 0, -0.6633100509643555, -1.5148276090621948, 0.06652045994997025
12435, 0.09910818189382553, -0.1492530256509781, 0.08702703565359116, -0.046844273805618286, 0.19173938035964966, 0.21986669301986694, -0.0032585738226771355, -0.0009032545494847, 1.0001319646835327, -0.6643801331520081, -1.5182751417160034, 0.0666867047548294, 0.0, 0.0, 0.0, 0, 0, 0, 0, 0, 0, -0.6643801331520081, -1.5182751417160034, 0.0666867047548294
12445, 0.09936806559562683, -0.14877228438854218, 0.08602523058652878, 0.018377363681793213, -0.19798283278942108, -0.1492767333984375, -0.0026821219362318516, -0.0026988228783011436, 1.0002384185791016, -0.6654510498046875, -1.5217257738113403, 0.06685362756252289, 0.0, 0.0, 0.0, 0, 0, 0, 0, 0, 0, -0.6654510498046875, -1.5217257738113403, 0.06685362756252289
12455, 0.09923748672008514, -0.14865897595882416, 0.08671389520168304, 0.011679230257868767, -0.2630029320716858, 0.11461252719163895, -0.003832560498267412, -0.0020077787339687347, 1.0021960735321045, -0.6665226221084595, -1.5251799821853638, 0.06702086329460144, 0.0, 0.0, 0.0, 0, 0, 0, 0, 0, 0, -0.6665226221084595, -1.5251799821853638, 0.06702086329460144
12465, 0.09807667881250381, -0.15157733857631683, 0.08659715950489044, -0.24966903030872345, 0.25543853640556335, -0.10011007636785507, -0.003865889273583889, -0.0036374940536916256, 0.9997743964195251, -0.6675949096679688, -1.528638243675232, 0.06718917936086655, 0.0, 0.0, 0.0, 0, 0, 0, 0, 0, 0, -0.6675949096679688, -1.528638243675232, 0.06718917936086655
12475, 0.09684629738330841, -0.15194033086299896, 0.08630310744047165, -0.2204706072807312, 0.17948266863822937, 0.0236989576369524, -0.003808900248259306, -0.004346450790762901, 0.9979254007339478, -0.6686683297157288, -1.5321011543273926, 0.06735816597938538, 0.0, 0.0, 0.0, 0, 0, 0, 0, 0, 0, -0.6686683297157288, -1.5321011543273926, 0.06735816597938538
12485, 0.09698305279016495, -0.15164268016815186, 0.08631666749715805, 0.0006728713633492589, 0.12034183740615845, 0.15598630905151367, -0.002263796515762806, -0.0021048879716545343, 0.9982326626777649, -0.669743001461029, -1.5355695486068726, 0.06752597540616989, 0.0, 0.0, 0.0, 0, 0, 0, 0, 0, 0, -0.669743001461029, -1.5355695486068726, 0.06752597540616989
12495, 0.09618986397981644, -0.1507902443408966, 0.08747522532939911, -0.19716225564479828, -0.14484098553657532, 0.20165282487869263, -0.0015454486710950732, -0.0015989027451723814, 0.9998935461044312, -0.6708179712295532, -1.539042592048645, 0.06769196689128876, 0.0, 0.0, 0.0, 0, 0, 0, 0, 0, 0, -0.6708179712295532, -1.539042592048645, 0.06769196689128876
12505, 0.09618986397981644, -0.1507902443408966, 0.08747522532939911, -0.031351566314697266, 0.07802079617977142, 0.058898355811834335, -0.003330450737848878, -0.0031103806104511023, 0.9994188547134399, -0.6718922853469849, -1.5425190925598145, 0.06785696744918823, 0.0, 0.0, 0.0, 0, 0, 0, 0, 0, 0, -0.6718922853469849, -1.5425190925598145, 0.06785696744918823
12515, 0.09661611914634705, -0.15161636471748352, 0.08805515617132187, 0.04237614944577217, 0.07113976776599884, 0.05927002802491188, -0.0028373815584927797, -0.004093951545655727, 1.0004808902740479, -0.673073947429657, -1.5463480949401855, 0.06803819537162781, 0.0, 0.0, 0.0, 0, 0, 0, 0, 0, 0, -0.673073947429657, -1.5463480949401855, 0.06803819537162781
12525, 0.09690779447555542, -0.15161427855491638, 0.08866637945175171, -0.059096261858940125, 0.4182307720184326, -0.13802365958690643, -0.004129426553845406, -0.002009877236559987, 0.9999386072158813, -0.6741487979888916, -1.5498343706130981, 0.06820320338010788, 0.0, 0.0, 0.0, 0, 0, 0, 0, 0, 0, -0.6741487979888916, -1.5498343706130981, 0.06820320338010788
12535, 0.09649945050477982, -0.15361203253269196, 0.08775832504034042, 0.0769503116607666, 0.06898133456707001, 0.08993010967969894, -0.0013489228440448642, -0.003353618085384369, 0.9992669224739075, -0.675224244594574, -1.5533252954483032, 0.06836840510368347, 0.0, 0.0, 0.0, 0, 0, 0, 0, 0, 0, -0.675224244594574, -1.5533252954483032, 0.06836840510368347
12545, 0.09689899533987045, -0.15347222983837128, 0.08857566863298416, -0.11859201639890671, 0.15585602819919586, 0.1200760155916214, -0.0020337472669780254, -0.004561663139611483, 0.9998753070831299, -0.6764068603515625, -1.5571703910827637, 0.06854962557554245, 0.0, 0.0, 0.0, 0, 0, 0, 0, 0, 0, -0.6764068603515625, -1.5571703910827637, 0.06854962557554245
12555, 0.09658536314964294, -0.15532372891902924, 0.0891592800617218, 0.011120789684355259, 0.28269851207733154, 0.05337618291378021, -0.003194985678419471, -0.004306300543248653, 0.9982502460479736, -0.6774810552597046, -1.5606719255447388, 0.06871369481086731, 0.0, 0.0, 0.0, 0, 0, 0, 0, 0, 0, -0.6774810552597046, -1.5606719255447388, 0.06871369481086731
12565, 0.09559169411659241, -0.1563854068517685, 0.09019745886325836, 0.098189577460289, -0.08460374176502228, -0.03454736992716789, -0.0031793443486094475, -0.0014748976100236177, 1.0009318590164185, -0.678555428981781, -1.5641789436340332, 0.06887701153755188, 0.0, 0.0, 0.0, 0, 0, 0, 0, 0, 0, -0.678555428981781, -1.5641789436340332, 0.06887701153755188
12575, 0.09531726688146591, -0.15869401395320892, 0.0894395187497139, -0.15747720003128052, 0.19453008472919464, 0.04468836635351181, -0.0004103297251276672, -0.0009802517015486956, 0.9995231032371521, -0.6796303391456604, -1.5676896572113037, 0.06904011964797974, 0.0, 0.0, 0.0, 0, 0, 0, 0, 0, 0, -0.6796303391456604, -1.5676896572113037, 0.06904011964797974
12585, 0.09506373852491379, -0.15996189415454865, 0.09030083566904068, 0.183266744017601, 0.15199793875217438, 0.2271878570318222, -0.0009671359439380467, -0.0032506235875189304, 0.9989455938339233, -0.6807039976119995, -1.571203589439392, 0.06920302659273148, 0.0, 0.0, 0.0, 0, 0, 0, 0, 0, 0, -0.6807039976119995, -1.571203589439392, 0.06920302659273148
12595, 0.09588303416967392, -0.16026908159255981, 0.09091278910636902, 0.17112836241722107, -0.35109850764274597, -0.033157121390104294, -0.0026747952215373516, -0.004576470237225294, 0.999692440032959, -0.6817758083343506, -1.5747219324111938, 0.0693652555346489, 0.0, 0.0, 0.0, 0, 0, 0, 0, 0, 0, -0.6817758083343506, -1.5747219324111938, 0.0693652555346489
12605, 0.09736917912960052, -0.1585967242717743, 0.09201045334339142, -0.052625250071287155, 0.06780952960252762, -0.10657737404108047, -0.004587335977703333, -0.0039617451839149, 1.0003598928451538, -0.6828474998474121, -1.5782461166381836, 0.06952685862779617, 0.0, 0.0, 0.0, 0, 0, 0, 0, 0, 0, -0.6828474998474121, -1.5782461166381836, 0.06952685862779617
12615, 0.09834790229797363, -0.15821467339992523, 0.0917539894580841, 0.2321387380361557, -0.22010600566864014, 0.05376479774713516, -0.0013090214924886823, -0.002083179773762822, 1.0016323328018188, -0.6839196681976318, -1.5817759037017822, 0.06968867033720016, 0.0, 0.0, 0.0, 0, 0, 0, 0, 0, 0, -0.6839196681976318, -1.5817759037017822, 0.06968867033720016
12625, 0.09917515516281128, -0.1567802131175995, 0.09041709452867508, 0.11502358317375183, -0.002774488413706422, 0.12997612357139587, -0.0022256914526224136, -0.0039253695867955685, 1.003116250038147, -0.6849915981292725, -1.5853102207183838, 0.06985205411911011, 0.0, 0.0, 0.0, 0, 0, 0, 0, 0, 0, -0.6849915981292725, -1.5853102207183838, 0.06985205411911011
12635, 0.09900829195976257, -0.15828002989292145, 0.09078186750411987, -0.035151150077581406, -0.1901659220457077, -0.08920596539974213, -0.001212564529851079, -0.003912400454282761, 0.998553991317749, -0.686062753200531, -1.5888495445251465, 0.0700170174241066, 0.0, 0.0, 0.0, 0, 0, 0, 0, 0, 0, -0.686062753200531, -1.5888495445251465, 0.0700170174241066
12645, 0.09946612268686295, -0.15578243136405945, 0.09127359092235565, 0.14243707060813904, -0.16680684685707092, 0.056709058582782745, -0.0013872344279661775, -0.003989886026829481, 0.99847811460495, -0.6871325969696045, -1.592394471168518, 0.07018165290355682, 0.0, 0.0, 0.0, 0, 0, 0, 0, 0, 0, -0.6871325969696045, -1.592394471168518, 0.07018165290355682
12655, 0.10070852935314178, -0.1545899361371994, 0.09091068059206009, 0.09442403167486191, 0.05044807866215706, -0.14336706697940826, -0.0021938232239335775, -0.002174493856728077, 0.9979739189147949, -0.6882010698318481, -1.595944881439209, 0.07034467160701752, 0.0, 0.0, 0.0, 0, 0, 0, 0, 0, 0, -0.6882010698318481, -1.595944881439209, 0.07034467160701752
12665, 0.1005602478981018, -0.1544199436903, 0.09134067595005035, 0.03518969193100929, 0.21744009852409363, 0.1318846493959427, -0.0024648034013807774, -0.0021711860317736864, 0.9985780119895935, -0.6892688274383545, -1.5994997024536133, 0.07050621509552002, 0.0, 0.0, 0.0, 0, 0, 0, 0, 0, 0, -0.6892688274383545, -1.5994997024536133, 0.07050621509552002
12675, 0.09901438653469086, -0.15402500331401825, 0.09170994162559509, -0.14811256527900696, -0.2921748757362366, -0.017154932022094727, -0.0032559423707425594, 0.0002700553450267762, 1.0022140741348267, -0.6903364062309265, -1.6030579805374146, 0.07066687196493149, 0.0, 0.0, 0.0, 0, 0, 0, 0, 0, 0, -0.6903364062309265, -1.6030579805374146, 0.07066687196493149
12685, 0.09927797317504883, -0.15384916961193085, 0.09214765578508377, 0.14096595346927643, 0.011644765734672546, -0.10599241405725479, -0.004163133911788464, -0.003442866960540414, 1.000128149986267, -0.6914045214653015, -1.606619119644165, 0.07082818448543549, 0.0, 0.0, 0.0, 0, 0, 0, 0, 0, 0, -0.6914045214653015, -1.606619119644165, 0.07082818448543549
12695, 0.09926503151655197, -0.15324227511882782, 0.0910823792219162, -0.07961063832044601, -0.055013589560985565, 0.004261526744812727, -0.002537841210141778, -0.0052569652907550335, 1.001286268234253, -0.6924733519554138, -1.6101844310760498, 0.07099059969186783, 0.0, 0.0, 0.0, 0, 0, 0, 0, 0, 0, -0.6924733519554138, -1.6101844310760498, 0.07099059969186783
12705, 0.10035067796707153, -0.15222714841365814, 0.09195154905319214, 0.1773180216550827, 0.012132653035223484, 0.005559458862990141, -0.0017021744279190898, -0.005028790328651667, 1.0001320838928223, -0.6935425400733948, -1.6137560606002808, 0.07115357369184494, 0.0, 0.0, 0.0, 0, 0, 0, 0, 0, 0, -0.6935425400733948, -1.6137560606002808, 0.07115357369184494
12715, 0.10163557529449463, -0.15104414522647858, 0.09156002849340439, 0.16786253452301025, -0.15130598843097687, -0.15217654407024384, -0.0024074497632682323, -0.004578679334372282, 0.9979095458984375, -0.6946113705635071, -1.6173341274261475, 0.07131652534008026, 0.0, 0.0, 0.0, 0, 0, 0, 0, 0, 0, -0.6946113705635071, -1.6173341274261475, 0.07131652534008026
12725, 0.10195132344961166, -0.15047353506088257, 0.09060891717672348, 0.030943123623728752, 0.263712614774704, 0.03996921330690384, -0.0016930392012000084, -0.0035356420557945967, 0.9975347518920898, -0.6956796050071716, -1.6209182739257812, 0.0714779868721962, 0.0, 0.0, 0.0, 0, 0, 0, 0, 0, 0, -0.6956796050071716, -1.6209182739257812, 0.0714779868721962
12735, 0.10256855934858322, -0.15252715349197388, 0.09191187471151352, 0.018297629430890083, 0.12437043339014053, 0.145621657371521, -0.0016014431603252888, -0.0015837571118026972, 0.9988522529602051, -0.6967470049858093, -1.6245077848434448, 0.07163732498884201, 0.0, 0.0, 0.0, 0, 0, 0, 0, 0, 0, -0.6967470049858093, -1.6245077848434448, 0.07163732498884201
12745, 0.10156029462814331, -0.15270845592021942, 0.09167925268411636, -0.10925067216157913, 0.020322667434811592, -0.052226606756448746, -0.0008743071812205017, -0.0030062347650527954, 1.0013810396194458, -0.6978133320808411, -1.6281015872955322, 0.07179564982652664, 0.0, 0.0, 0.0, 0, 0, 0, 0, 0, 0, -0.6978133320808411, -1.6281015872955322, 0.07179564982652664
12755, 0.10178398340940475, -0.15175046026706696, 0.09091203659772873, -0.18745172023773193, 0.035483889281749725, -0.13752037286758423, -0.0012627397663891315, -0.0024706078693270683, 1.001007080078125, -0.698878288269043, -1.631699562072754, 0.07195442169904709, 0.0, 0.0, 0.0, 0, 0, 0, 0, 0, 0, -0.698878288269043, -1.631699562072754, 0.07195442169904709
12765, 0.10119554400444031, -0.15281814336776733, 0.09061853587627411, 0.08809790015220642, 0.14922764897346497, -0.09216843545436859, -0.001252431538887322, -0.001106377923861146, 0.997323215007782, -0.6999416947364807, -1.6353013515472412, 0.07211364060640335, 0.0, 0.0, 0.0, 0, 0, 0, 0, 0, 0, -0.6999416947364807, -1.6353013515472412, 0.07211364060640335
12775, 0.10204456746578217, -0.15387091040611267, 0.08965135365724564, 0.13393506407737732, -0.07250402867794037, -0.14787349104881287, -0.0024350921157747507, -0.00409531407058239, 0.9991797804832458, -0.7010043859481812, -1.638906717300415, 0.07227154821157455, 0.0, 0.0, 0.0, 0, 0, 0, 0, 0, 0, -0.7010043859481812, -1.638906717300415, 0.07227154821157455
12785, 0.10323673486709595, -0.1526123583316803, 0.08831095695495605, 0.17513075470924377, -0.2182079553604126, -0.0441233366727829, -0.002040301449596882, -0.0028144330717623234, 1.0018271207809448, -0.7020668387413025, -1.64251708984375, 0.07242844253778458, 0.0, 0.0, 0.0, 0, 0, 0, 0, 0, 0, -0.7020668387413025, -1.64251708984375, 0.07242844253778458
12795, 0.10330726951360703, -0.15220223367214203, 0.08923257142305374, 0.002822934417054057, 0.18250058591365814, -0.03742647171020508, -0.002594288904219866, -0.0014012192841619253, 0.9996361136436462, -0.7031289935112, -1.6461321115493774, 0.07258593291044235, 0.0, 0.0, 0.0, 0, 0, 0, 0, 0, 0, -0.7031289935112, -1.6461321115493774, 0.07258593291044235
12805, 0.10301806032657623, -0.15216673910617828, 0.08844045549631119, -0.2927303612232208, -0.10927531868219376, -0.12849776446819305, -0.0030792916659265757, -0.0020427298732101917, 0.9994329214096069, -0.7041913270950317, -1.6497505903244019, 0.07274363934993744, 0.0, 0.0, 0.0, 0, 0, 0, 0, 0, 0, -0.7041913270950317, -1.6497505903244019, 0.07274363934993744
12815, 0.10279691964387894, -0.15183137357234955, 0.08916252851486206, 0.053392212837934494, 0.061439916491508484, -0.07396004348993301, -0.0013873173156753182, -0.004470029845833778, 0.9973695874214172, -0.7052536010742188, -1.653372883796692, 0.07290057837963104, 0.0, 0.0, 0.0, 0, 0, 0, 0, 0, 0, -0.7052536010742188, -1.653372883796692, 0.07290057837963104
12825, 0.10270671546459198, -0.15096968412399292, 0.08816657960414886, -0.059977442026138306, 0.19589471817016602, 0.014456377364695072, -0.0028154405299574137, -0.0019024120410904288, 1.002123236656189, -0.7063153982162476, -1.6570003032684326, 0.07305625081062317, 0.0, 0.0, 0.0, 0, 0, 0, 0, 0, 0, -0.7063153982162476, -1.6570003032684326, 0.07305625081062317
12835, 0.10322929918766022, -0.15243184566497803, 0.08846455067396164, 0.08305347710847855, -0.17295150458812714, -0.07712611556053162, -0.0041379258036613464, -0.004237125627696514, 1.0011404752731323, -0.7073771357536316, -1.6606324911117554, 0.07321227341890335, 0.0, 0.0, 0.0, 0, 0, 0, 0, 0, 0, -0.7073771357536316, -1.6606324911117554, 0.07321227341890335
12845, 0.10380339622497559, -0.14986969530582428, 0.08825544267892838, 0.23554733395576477, 0.08231943100690842, -0.24045173823833466, -0.0035124034620821476, -0.004350102506577969, 1.0007752180099487, -0.7084395289421082, -1.6642699241638184, 0.07336963713169098, 0.0, 0.0, 0.0, 0, 0, 0, 0, 0, 0, -0.7084395289421082, -1.6642699241638184, 0.07336963713169098
12855, 0.10416796803474426, -0.14986391365528107, 0.08764304965734482, -0.07817105948925018, 0.15535728633403778, 0.03499551862478256, -0.005720789078623056, -0.0054878415539860725, 0.9999286532402039, -0.7095033526420593, -1.6679139137268066, 0.07352776825428009, 0.0, 0.0, 0.0, 0, 0, 0, 0, 0, 0, -0.7095033526420593, -1.6679139137268066, 0.07352776825428009
12865, 0.10456068068742752, -0.14903156459331512, 0.08754633367061615, 0.1038866713643074, -0.10308565944433212, 0.13754309713840485, -0.0011342583457008004, -0.004148509819060564, 0.9988163709640503, -0.7105687856674194, -1.6715644598007202, 0.07368617504835129, 0.0, 0.0, 0.0, 0, 0, 0, 0, 0, 0, -0.7105687856674194, -1.6715644598007202, 0.07368617504835129
12875, 0.10347805172204971, -0.14910195767879486, 0.08743522316217422, -0.04776601493358612, -0.15271244943141937, 0.15341952443122864, -0.003962638322263956, -0.0007156250067055225, 1.0003858804702759, -0.7116346955299377, -1.6752208471298218, 0.07384409010410309, 0.0, 0.0, 0.0, 0, 0, 0, 0, 0, 0, -0.7116346955299377, -1.6752208471298218, 0.07384409010410309
12885, 0.10317222028970718, -0.14861059188842773, 0.08809445798397064, 0.08583340048789978, 0.004624851979315281, 0.08404713869094849, -0.004624054301530123, -0.0026185873430222273, 0.9994676113128662, -0.7127010226249695, -1.6788811683654785, 0.0740017369389534, 0.0, 0.0, 0.0, 0, 0, 0, 0, 0, 0, -0.7127010226249695, -1.6788811683654785, 0.0740017369389534
12895, 0.10190384835004807, -0.1490318775177002, 0.08895549923181534, -0.044183094054460526, -0.062244877219200134, 0.036296047270298004, -0.0025190659798681736, -0.004789315164089203, 0.9982485771179199, -0.7137686014175415, -1.6825450658798218, 0.07415899634361267, 0.0, 0.0, 0.0, 0, 0, 0, 0, 0, 0, -0.7137686014175415, -1.6825450658798218, 0.07415899634361267
12905, 0.10229219496250153, -0.14801426231861115, 0.08834262937307358, 0.08452977240085602, 0.05698677897453308, 0.0433492437005043, -0.002569691278040409, -0.004736595321446657, 0.9990825057029724, -0.7148369550704956, -1.686214566230774, 0.07431506365537643, 0.0, 0.0, 0.0, 0, 0, 0, 0, 0, 0, -0.7148369550704956, -1.686214566230774, 0.07431506365537643
12915, 0.10208182781934738, -0.15057921409606934, 0.08875812590122223, 0.05891195312142372, -0.03051159530878067, -0.021214477717876434, -0.00046496823779307306, -0.003816723357886076, 0.9992817044258118, -0.7159050107002258, -1.6898905038833618, 0.0744701698422432, 0.0, 0.0, 0.0, 0, 0, 0, 0, 0, 0, -0.7159050107002258, -1.6898905038833618, 0.0744701698422432
12925, 0.10225187242031097, -0.1499459445476532, 0.09019450843334198, 0.06615029275417328, -0.19266252219676971, 0.004618003033101559, -0.0038849497213959694, -0.0046135783195495605, 1.0003613233566284, -0.7169722318649292, -1.6935725212097168, 0.07462483644485474, 0.0, 0.0, 0.0, 0, 0, 0, 0, 0, 0, -0.7169722318649292, -1.6935725212097168, 0.07462483644485474
12935, 0.10330121964216232, -0.15009024739265442, 0.09039882570505142, -0.07912278175354004, 0.011645402759313583, 0.07633617520332336, -0.002931357827037573, -0.003825283842161298, 0.9997923970222473, -0.7180398106575012, -1.6972606182098389, 0.07477953284978867, 0.0, 0.0, 0.0, 0, 0, 0, 0, 0, 0, -0.7180398106575012, -1.6972606182098389, 0.07477953284978867
12945, 0.10247331112623215, -0.14903680980205536, 0.09052882343530655, 0.0080075329169631, 0.2818416953086853, -0.2075071930885315, 0.0006944449269212782, -0.0011235881829634309, 1.0009043216705322, -0.7191075682640076, -1.7009539604187012, 0.07493478804826736, 0.0, 0.0, 0.0, 0, 0, 0, 0, 0, 0, -0.7191075682640076, -1.7009539604187012, 0.07493478804826736
12955, 0.10285621136426926, -0.14954160153865814, 0.08959176391363144, 0.21056264638900757, 0.07983721047639847, 0.18655893206596375, -0.0009710213635116816, -0.0030391905456781387, 0.9985657334327698, -0.7201734781265259, -1.7046514749526978, 0.07509023696184158, 0.0, 0.0, 0.0, 0, 0, 0, 0, 0, 0, -0.7201734781265259, -1.7046514749526978, 0.07509023696184158
12965, 0.1037609726190567, -0.14874102175235748, 0.08957835286855698, 0.08333727717399597, -0.1336170732975006, -0.01921413652598858, -0.0020885085687041283, -0.0037834628019481897, 1.0017821788787842, -0.7212374210357666, -1.7083532810211182, 0.07524554431438446, 0.0, 0.0, 0.0, 0, 0, 0, 0, 0, 0, -0.7212374210357666, -1.7083532810211182, 0.07524554431438446
12975, 0.10366196185350418, -0.14897455275058746, 0.09003672003746033, 0.01213500089943409, 0.11688636988401413, 0.1191571056842804, -0.0020722488407045603, -0.003568994579836726, 1.001020073890686, -0.72230064868927, -1.7120604515075684, 0.07540159672498703, 0.0, 0.0, 0.0, 0, 0, 0, 0, 0, 0, -0.72230064868927, -1.7120604515075684, 0.07540159672498703
12985, 0.10282055288553238, -0.14822173118591309, 0.0895199105143547, 0.11171386390924454, -0.3479415476322174, 0.23021025955677032, -0.0021223837975412607, -0.0011977088870480657, 1.000333547592163, -0.72336345911026, -1.7157728672027588, 0.07555864006280899, 0.0, 0.0, 0.0, 0, 0, 0, 0, 0, 0, -0.72336345911026, -1.7157728672027588, 0.07555864006280899
12995, 0.1017862930893898, -0.14674781262874603, 0.09017889946699142, -0.11463748663663864, -0.13891257345676422, 0.028472216799855232, -0.0021908804774284363, -0.0030525585170835257, 1.0020519495010376, -0.7244257926940918, -1.7194888591766357, 0.07571649551391602, 0.0, 0.0, 0.0, 0, 0, 0, 0, 0, 0, -0.7244257926940918, -1.7194888591766357, 0.07571649551391602
13005, 0.10308068990707397, -0.14551673829555511, 0.0905776396393776, 0.061104390770196915, 0.271926611661911, 0.08004980534315109, -0.0031695901416242123, -0.0029159702826291323, 0.9996808767318726, -0.725488007068634, -1.7232087850570679, 0.07587548345327377, 0.0, 0.0, 0.0, 0, 0, 0, 0, 0, 0, -0.725488007068634, -1.7232087850570679, 0.07587548345327377
13015, 0.10296512395143509, -0.1464211791753769, 0.08976313471794128, -0.041855260729789734, -0.02356886863708496, 0.039494190365076065, -0.001694123144261539, -0.004007081501185894, 0.9994982481002808, -0.7265504002571106, -1.726933479309082, 0.07603495568037033, 0.0, 0.0, 0.0, 0, 0, 0, 0, 0, 0, -0.7265504002571106, -1.726933479309082, 0.07603495568037033
13025, 0.10283651947975159, -0.14567452669143677, 0.09097661823034286, 0.09545628726482391, -0.09889145940542221, 0.13345496356487274, -0.004216088447719812, -0.004051120951771736, 0.9998151659965515, -0.7276129126548767, -1.7306636571884155, 0.07619422674179077, 0.0, 0.0, 0.0, 0, 0, 0, 0, 0, 0, -0.7276129126548767, -1.7306636571884155, 0.07619422674179077
13035, 0.1035446971654892, -0.144285187125206, 0.09160325676202774, 0.23572653532028198, 0.04017837345600128, -0.03170226141810417, -0.005332102067768574, -0.004414914641529322, 1.0019220113754272, -0.7286765575408936, -1.7343999147415161, 0.07635367661714554, 0.0, 0.0, 0.0, 0, 0, 0, 0, 0, 0, -0.7286765575408936, -1.7343999147415161, 0.07635367661714554
13045, 0.10330703854560852, -0.14319120347499847, 0.0898534506559372, -0.03218276426196098, -0.05809153616428375, -0.03937193378806114, -0.0044822050258517265, -0.0021018951665610075, 1.0007565021514893, -0.7297425270080566, -1.7381417751312256, 0.07651432603597641, 0.0, 0.0, 0.0, 0, 0, 0, 0, 0, 0, -0.7297425270080566, -1.7381417751312256, 0.07651432603597641
13055, 0.10334984958171844, -0.14258407056331635, 0.09029614925384521, -0.09844817966222763, 0.24289946258068085, 0.1506042629480362, -0.004690134432166815, -0.002147209830582142, 0.9991607069969177, -0.7308106422424316, -1.7418882846832275, 0.07667578011751175, 0.0, 0.0, 0.0, 0, 0, 0, 0, 0, 0, -0.7308106422424316, -1.7418882846832275, 0.07667578011751175
13065, 0.10279000550508499, -0.14500002562999725, 0.09055805206298828, 0.08647388219833374, 0.0707118809223175, -0.02831258811056614, -0.005483534652739763, -0.0035260580480098724, 0.9999926686286926, -0.7318811416625977, -1.7456388473510742, 0.07683705538511276, 0.0, 0.0, 0.0, 0, 0, 0, 0, 0, 0, -0.7318811416625977, -1.7456388473510742, 0.07683705538511276
13075, 0.10374339669942856, -0.14360040426254272, 0.09187295287847519, 0.007421158719807863, 0.043165773153305054, 0.08340040594339371, -0.0042991070076823235, -0.005619610194116831, 1.0008798837661743, -0.7329542636871338, -1.7493945360183716, 0.0769982561469078, 0.0, 0.0, 0.0, 0, 0, 0, 0, 0, 0, -0.7329542636871338, -1.7493945360183716, 0.0769982561469078
13085, 0.1033410057425499, -0.14475329220294952, 0.09117484837770462, -0.08433756977319717, 0.23822258412837982, -0.12087047845125198, -0.004056234378367662, -0.004978572484105825, 1.0005054473876953, -0.7340293526649475, -1.7531566619873047, 0.07715988904237747, 0.0, 0.0, 0.0, 0, 0, 0, 0, 0, 0, -0.7340293526649475, -1.7531566619873047, 0.07715988904237747
13095, 0.10348977148532867, -0.14689591526985168, 0.09174127131700516, 0.0940965935587883, 0.04448116943240166, 0.09981579333543777, -0.0031920243054628372, -0.0032484405674040318, 1.0008409023284912, -0.7351056337356567, -1.7569249868392944, 0.0773223340511322, 0.0, 0.0, 0.0, 0, 0, 0, 0, 0, 0, -0.7351056337356567, -1.7569249868392944, 0.0773223340511322
13105, 0.10410984605550766, -0.1476181000471115, 0.0913359746336937, -0.14481359720230103, -0.2290673851966858, -0.016751261427998543, -0.0011649185325950384, -0.004107122775167227, 1.0003618001937866, -0.7361823320388794, -1.760698914527893, 0.07748547196388245, 0.0, 0.0, 0.0, 0, 0, 0, 0, 0, 0, -0.7361823320388794, -1.760698914527893, 0.07748547196388245
13115, 0.10374031215906143, -0.14708545804023743, 0.0923319086432457, 0.09579875320196152, 0.005964368581771851, 0.20476874709129333, -0.001367997727356851, -0.0028488580137491226, 1.0011945962905884, -0.7372583150863647, -1.764478087425232, 0.07764912396669388, 0.0, 0.0, 0.0, 0, 0, 0, 0, 0, 0, -0.7372583150863647, -1.764478087425232, 0.07764912396669388
13125, 0.10397215932607651, -0.14748615026474, 0.09237510710954666, 0.00014902626571711153, -0.16092225909233093, -0.11403471976518631, -0.002071743831038475, -0.003138381289318204, 1.0013173818588257, -0.738332986831665, -1.768262505531311, 0.07781358808279037, 0.0, 0.0, 0.0, 0, 0, 0, 0, 0, 0, -0.738332986831665, -1.768262505531311, 0.07781358808279037
13135, 0.10340701788663864, -0.1486493945121765, 0.0917598158121109, 0.09037105739116669, -0.018536588177084923, -0.15811024606227875, -0.001962896902114153, -0.0034200833179056644, 0.9971877932548523, -0.7394068241119385, -1.7720518112182617, 0.07797868549823761, 0.0, 0.0, 0.0, 0, 0, 0, 0, 0, 0, -0.7394068241119385, -1.7720518112182617, 0.07797868549823761
13145, 0.1033218502998352, -0.14821428060531616, 0.09197630733251572, -0.13478441536426544, 0.10537296533584595, 0.0831398293375969, -0.004951531067490578, -0.002311008982360363, 0.9969807863235474, -0.7404806017875671, -1.7758457660675049, 0.07814252376556396, 0.0, 0.0, 0.0, 0, 0, 0, 0, 0, 0, -0.7404806017875671, -1.7758457660675049, 0.07814252376556396
13155, 0.10324060916900635, -0.14984561502933502, 0.09107799828052521, 0.09253567457199097, 0.08655691891908646, -0.1306164264678955, -0.005348508711904287, -0.0020063843112438917, 0.9980127215385437, -0.7415557503700256, -1.7796440124511719, 0.07830371707677841, 0.0, 0.0, 0.0, 0, 0, 0, 0, 0, 0, -0.7415557503700256, -1.7796440124511719, 0.07830371707677841
13165, 0.10373823344707489, -0.15022945404052734, 0.09106535464525223, 0.11685509979724884, 0.08890002220869064, 0.010488707572221756, -0.0020040241070091724, -0.002039331942796707, 1.0013720989227295, -0.7426329851150513, -1.783445954322815, 0.07846339046955109, 0.0, 0.0, 0.0, 0, 0, 0, 0, 0, 0, -0.7426329851150513, -1.783445954322815, 0.07846339046955109
13175, 0.10330832004547119, -0.14901353418827057, 0.09035792946815491, 0.22661744058132172, -0.15902480483055115, 0.1685735583305359, -0.002904493361711502, -0.004534206353127956, 1.001652717590332, -0.7437108159065247, -1.7872519493103027, 0.07862340658903122, 0.0, 0.0, 0.0, 0, 0, 0, 0, 0, 0, -0.7437108159065247, -1.7872519493103027, 0.07862340658903122
13185, 0.10391807556152344, -0.14866775274276733, 0.08866722136735916, 0.14070037007331848, -0.445639431476593, 0.06726540625095367, -0.002725384896621108, -0.004372292198240757, 1.001306414604187, -0.7447884678840637, -1.7910634279251099, 0.07878481596708298, 0.0, 0.0, 0.0, 0, 0, 0, 0, 0, 0, -0.7447884678840637, -1.7910634279251099, 0.07878481596708298
13195, 0.10417427122592926, -0.14646866917610168, 0.08863438665866852, 0.030512575060129166, -0.08914109319448471, -0.1477764993906021, -0.00200148718431592, -0.003225780790671706, 1.0010966062545776, -0.7458661794662476, -1.7948808670043945, 0.07894763350486755, 0.0, 0.0, 0.0, 0, 0, 0, 0, 0, 0, -0.7458661794662476, -1.7948808670043945, 0.07894763350486755
13205, 0.10472602397203445, -0.1482522338628769, 0.08840397000312805, -0.12171303480863571, 0.37683045864105225, 0.1384463608264923, -0.0030459431000053883, -0.0032751348335295916, 1.000376582145691, -0.7469435334205627, -1.7987037897109985, 0.07911138236522675, 0.0, 0.0, 0.0, 0, 0, 0, 0, 0, 0, -0.7469435334205627, -1.7987037897109985, 0.07911138236522675
13215, 0.10410217940807343, -0.1498229056596756, 0.08745087683200836, 0.06427143514156342, 0.14711734652519226, 0.00029605175950564444, -0.005176727194339037, -0.003106827847659588, 1.0016063451766968, -0.7480212450027466, -1.8025315999984741, 0.07927607744932175, 0.0, 0.0, 0.0, 0, 0, 0, 0, 0, 0, -0.7480212450027466, -1.8025315999984741, 0.07927607744932175
13225, 0.10533260554075241, -0.14952664077281952, 0.08904092013835907, 0.12665563821792603, 0.10041935741901398, 0.06754827499389648, -0.00201308517716825, -0.0015940526500344276, 1.00015389919281, -0.7491006851196289, -1.8063640594482422, 0.07944189012050629, 0.0, 0.0, 0.0, 0, 0, 0, 0, 0, 0, -0.7491006851196289, -1.8063640594482422, 0.07944189012050629
13235, 0.1063176617026329, -0.1499532014131546, 0.08978410810232162, -0.12336237728595734, -0.15470686554908752, 0.1214684471487999, -0.002065042033791542, -0.0008058188832364976, 0.9996473789215088, -0.7501806616783142, -1.8102002143859863, 0.07960816472768784, 0.0, 0.0, 0.0, 0, 0, 0, 0, 0, 0, -0.7501806616783142, -1.8102002143859863, 0.07960816472768784
13245, 0.10487423837184906, -0.15058811008930206, 0.09017612785100937, 0.01684183068573475, 0.026078861206769943, -0.08471668511629105, -0.0012394802179187536, -0.0034595837350934744, 1.0012518167495728, -0.7512599229812622, -1.8140395879745483, 0.07977462559938431, 0.0, 0.0, 0.0, 0, 0, 0, 0, 0, 0, -0.7512599229812622, -1.8140395879745483, 0.07977462559938431
13255, 0.10400127619504929, -0.1539529711008072, 0.08907504379749298, -0.07226758450269699, -0.15541033446788788, -0.012132063508033752, -0.0014474536292254925, -0.0038208141922950745, 0.9997316598892212, -0.7523380517959595, -1.8178837299346924, 0.0799417570233345, 0.0, 0.0, 0.0, 0, 0, 0, 0, 0, 0, -0.7523380517959595, -1.8178837299346924, 0.0799417570233345
13265, 0.10340879112482071, -0.15369783341884613, 0.09021048247814178, -0.009351094253361225, 0.07571378350257874, -0.08167693763971329, -0.0036437169183045626, -0.0027123617473989725, 0.9999438524246216, -0.7534154057502747, -1.8217333555221558, 0.08010939508676529, 0.0, 0.0, 0.0, 0, 0, 0, 0, 0, 0, -0.7534154057502747, -1.8217333555221558, 0.08010939508676529
13275, 0.10426162928342819, -0.1533224731683731, 0.08929586410522461, 0.15482686460018158, 0.009228801354765892, 0.12220334261655807, -0.0024909640196710825, -0.002444411162286997, 1.0011407136917114, -0.7544931173324585, -1.825587511062622, 0.08027701079845428, 0.0, 0.0, 0.0, 0, 0, 0, 0, 0, 0, -0.7544931173324585, -1.825587511062622, 0.08027701079845428
13285, 0.10452151298522949, -0.15320193767547607, 0.08849409967660904, 0.00356469489634037, 0.028649190440773964, 0.1729927808046341, -0.0036656789015978575, -0.002125420840457082, 1.0008238554000854, -0.7555710077285767, -1.8294459581375122, 0.08044511079788208, 0.0, 0.0, 0.0, 0, 0, 0, 0, 0, 0, -0.7555710077285767, -1.8294459581375122, 0.08044511079788208
13295, 0.10473809391260147, -0.15251193940639496, 0.08991190791130066, -0.0043906038627028465, 0.14068858325481415, 0.035266317427158356, -0.003355972468852997, -0.0025411914102733135, 1.0013940334320068, -0.7566494941711426, -1.8333083391189575, 0.08061429113149643, 0.0, 0.0, 0.0, 0, 0, 0, 0, 0, 0, -0.7566494941711426, -1.8333083391189575, 0.08061429113149643
13305, 0.10521315783262253, -0.15400011837482452, 0.089590884745121, 0.3322998285293579, 0.05160371586680412, 0.1539149135351181, -0.0035805366933345795, -0.002924394328147173, 1.000106692314148, -0.7577290534973145, -1.837174892425537, 0.08078434318304062, 0.0, 0.0, 0.0, 0, 0, 0, 0, 0, 0, -0.7577290534973145, -1.837174892425537, 0.08078434318304062
13315, 0.10585618019104004, -0.154610276222229, 0.09067187458276749, -0.08099068701267242, -0.06896228343248367, 0.18466097116470337, -0.0019101310754194856, -0.0056559122167527676, 0.9994720816612244, -0.7588090300559998, -1.8410463333129883, 0.08095474541187286, 0.0, 0.0, 0.0, 0, 0, 0, 0, 0, 0, -0.7588090300559998, -1.8410463333129883, 0.08095474541187286
13325, 0.10547837615013123, -0.15373340249061584, 0.09158176183700562, 0.0018144219648092985, -0.5431092977523804, -0.053607139736413956, -0.0021310888696461916, -0.004255796317011118, 0.9989540576934814, -0.7598890066146851, -1.8449240922927856, 0.08112460374832153, 0.0, 0.0, 0.0, 0, 0, 0, 0, 0, 0, -0.7598890066146851, -1.8449240922927856, 0.08112460374832153
13335, 0.10579076409339905, -0.15040142834186554, 0.09190297871828079, 0.05407990515232086, -0.08797061443328857, -0.2553006112575531, -0.0028078656177967787, -0.003700105706229806, 0.9983724355697632, -0.7609685659408569, -1.8488084077835083, 0.08129347115755081, 0.0, 0.0, 0.0, 0, 0, 0, 0, 0, 0, -0.7609685659408569, -1.8488084077835083, 0.08129347115755081
13345, 0.10630417615175247, -0.15014667809009552, 0.0913429781794548, 0.039224401116371155, 0.35710224509239197, 0.027849795296788216, -0.0021134777925908566, -0.0026546369772404432, 0.9981316328048706, -0.7620479464530945, -1.8526982069015503, 0.08146107941865921, 0.0, 0.0, 0.0, 0, 0, 0, 0, 0, 0, -0.7620479464530945, -1.8526982069015503, 0.08146107941865921
13355, 0.10557349771261215, -0.150959774851799, 0.09103354811668396, -0.10318008810281754, 0.03861106187105179, 0.05730282887816429, -0.003742651781067252, -0.0022359106224030256, 1.0009111166000366, -0.7631272077560425, -1.8565926551818848, 0.0816272720694542, 0.0, 0.0, 0.0, 0, 0, 0, 0, 0, 0, -0.7631272077560425, -1.8565926551818848, 0.0816272720694542
13365, 0.10571503639221191, -0.15274889767169952, 0.09067842364311218, -0.14479292929172516, 0.09464044868946075, -0.1940901130437851, -0.0032173083163797855, -0.00251069781370461, 1.0017304420471191, -0.7642068862915039, -1.860491156578064, 0.08179356157779694, 0.0, 0.0, 0.0, 0, 0, 0, 0, 0, 0, -0.7642068862915039, -1.860491156578064, 0.08179356157779694
13375, 0.10514568537473679, -0.15083743631839752, 0.08885183185338974, -0.05801963806152344, 0.007212849333882332, -0.053747162222862244, -0.0025303505826741457, -0.003820992074906826, 1.0016226768493652, -0.7652873396873474, -1.8643938302993774, 0.0819615051150322, 0.0, 0.0, 0.0, 0, 0, 0, 0, 0, 0, -0.7652873396873474, -1.8643938302993774, 0.0819615051150322
13385, 0.10576119273900986, -0.15009534358978271, 0.08950410038232803, -0.01815623603761196, 0.07273471355438232, 0.0888257771730423, -0.0017579104751348495, -0.00421547144651413, 0.9999200701713562, -0.76636803150177, -1.8683017492294312, 0.08213099092245102, 0.0, 0.0, 0.0, 0, 0, 0, 0, 0, 0, -0.76636803150177, -1.8683017492294312, 0.08213099092245102
13395, 0.10568826645612717, -0.1504523903131485, 0.08971275389194489, -0.02760695293545723, -0.043037619441747665, -0.06211436912417412, 0.00022625747078564018, -0.0024748060386627913, 1.0009634494781494, -0.7674478888511658, -1.8722151517868042, 0.08230102807283401, 0.0, 0.0, 0.0, 0, 0, 0, 0, 0, 0, -0.7674478888511658, -1.8722151517868042, 0.08230102807283401
13405, 0.10604741424322128, -0.1495516300201416, 0.08957405388355255, 0.00020969862816855311, -0.013775335624814034, 0.12806957960128784, -0.0032765904907137156, -0.00379174598492682, 1.0006251335144043, -0.7685261368751526, -1.8761335611343384, 0.08247139304876328, 0.0, 0.0, 0.0, 0, 0, 0, 0, 0, 0, -0.7685261368751526, -1.8761335611343384, 0.08247139304876328
13415, 0.10568957030773163, -0.1486181765794754, 0.09026958793401718, -0.00021510104124899954, -0.14788328111171722, -0.12847605347633362, -0.004193339962512255, -0.0022864793427288532, 0.9994937777519226, -0.7696040272712708, -1.8800568580627441, 0.08264230936765671, 0.0, 0.0, 0.0, 0, 0, 0, 0, 0, 0, -0.7696040272712708, -1.8800568580627441, 0.08264230936765671
13425, 0.10491364449262619, -0.1484624296426773, 0.0895669162273407, 0.1283896267414093, -0.1341911405324936, -0.029657032340765, -0.001368612633086741, -0.0034311574418097734, 1.0027689933776855, -0.7706828117370605, -1.8839850425720215, 0.08281352370977402, 0.0, 0.0, 0.0, 0, 0, 0, 0, 0, 0, -0.7706828117370605, -1.8839850425720215, 0.08281352370977402
13435, 0.10593892633914948, -0.1467488706111908, 0.08937156945466995, -0.09755747765302658, 0.16857469081878662, 0.03723922744393349, -0.002067833673208952, -0.0028606592677533627, 1.0020750761032104, -0.7717612981796265, -1.8879178762435913, 0.08298640698194504, 0.0, 0.0, 0.0, 0, 0, 0, 0, 0, 0, -0.7717612981796265, -1.8879178762435913, 0.08298640698194504
13445, 0.10469543933868408, -0.14755317568778992, 0.09051746875047684, 0.11627599596977234, -0.12084787338972092, 0.22432884573936462, -0.004003532230854034, -0.0032215691171586514, 0.9996460676193237, -0.7728393077850342, -1.8918555974960327, 0.08316145837306976, 0.0, 0.0, 0.0, 0, 0, 0, 0, 0, 0, -0.7728393077850342, -1.8918555974960327, 0.08316145837306976
13455, 0.10594338923692703, -0.14526380598545074, 0.09001956880092621, 0.01638822630047798, -0.23270097374916077, 0.0581381618976593, -0.0030207661911845207, -0.0031320590060204268, 0.997269332408905, -0.7739177942276001, -1.8957980871200562, 0.0833364725112915, 0.0, 0.0, 0.0, 0, 0, 0, 0, 0, 0, -0.7739177942276001, -1.8957980871200562, 0.0833364725112915
13465, 0.10610204935073853, -0.14601297676563263, 0.09035718441009521, -0.08556265383958817, 0.43562859296798706, -0.05325157567858696, -0.005112751852720976, -0.0036796473432332277, 0.998389482498169, -0.7749970555305481, -1.8997454643249512, 0.0835096538066864, 0.0, 0.0, 0.0, 0, 0, 0, 0, 0, 0, -0.7749970555305481, -1.8997454643249512, 0.0835096538066864
13475, 0.10562143474817276, -0.14856508374214172, 0.0907382145524025, -0.10832145810127258, -0.04842064529657364, -0.1019434854388237, -0.004025016911327839, -0.002794837113469839, 1.00006103515625, -0.7760778069496155, -1.9036979675292969, 0.0836811289191246, 0.0, 0.0, 0.0, 0, 0, 0, 0, 0, 0, -0.7760778069496155, -1.9036979675292969, 0.0836811289191246
13485, 0.10536329448223114, -0.14862628281116486, 0.08972228318452835, 0.07544005662202835, 0.0675511583685875, 0.11378363519906998, -0.0026177014224231243, -0.004412521608173847, 1.0000032186508179, -0.7771597504615784, -1.9076557159423828, 0.08385195583105087, 0.0, 0.0, 0.0, 0, 0, 0, 0, 0, 0, -0.7771597504615784, -1.9076557159423828, 0.08385195583105087
13495, 0.10557180643081665, -0.14837980270385742, 0.09099454432725906, 0.050445716828107834, -0.20903128385543823, -0.11197758466005325, -0.0028389005456119776, -0.004372189752757549, 1.000823736190796, -0.7782418131828308, -1.9116190671920776, 0.08402278274297714, 0.0, 0.0, 0.0, 0, 0, 0, 0, 0, 0, -0.7782418131828308, -1.9116190671920776, 0.08402278274297714
13505, 0.10668133944272995, -0.14775799214839935, 0.08802257478237152, -0.08695343881845474, -0.025603406131267548, -0.10844240337610245, -0.0012654847232624888, -0.005076189991086721, 0.9996984601020813, -0.7793238162994385, -1.9155889749526978, 0.08419375121593475, 0.0, 0.0, 0.0, 0, 0, 0, 0, 0, 0, -0.7793238162994385, -1.9155889749526978, 0.08419375121593475
13515, 0.10638286173343658, -0.1474703997373581, 0.08878824859857559, 0.26498234272003174, 0.12046149373054504, 0.052272651344537735, -0.002203201176598668, -0.002393582137301564, 0.999857485294342, -0.7804052233695984, -1.919565200805664, 0.08436466008424759, 0.0, 0.0, 0.0, 0, 0, 0, 0, 0, 0, -0.7804052233695984, -1.919565200805664, 0.08436466008424759
13525, 0.10686063021421432, -0.14809182286262512, 0.08973893523216248, 0.03756212443113327, 0.10558544099330902, 0.22725950181484222, -0.0017390386201441288, -0.003423341317102313, 0.9998555183410645, -0.781485915184021, -1.923546314239502, 0.08453530073165894, 0.0, 0.0, 0.0, 0, 0, 0, 0, 0, 0, -0.781485915184021, -1.923546314239502, 0.08453530073165894
13535, 0.10731910914182663, -0.14892390370368958, 0.09035541862249374, -0.02963954210281372, -0.0733434408903122, -0.09856299310922623, -0.002073304494842887, -0.004923985339701176, 0.9991799592971802, -0.7825660705566406, -1.9275325536727905, 0.08470553159713745, 0.0, 0.0, 0.0, 0, 0, 0, 0, 0, 0, -0.7825660705566406, -1.9275325536727905, 0.08470553159713745
13545, 0.1065252423286438, -0.14806650578975677, 0.0902368426322937, 0.1446501463651657, 0.13548344373703003, 0.07366170734167099, -0.0013444543583318591, -0.0040524620562791824, 1.0002834796905518, -0.783645510673523, -1.9315248727798462, 0.08487530797719955, 0.0, 0.0, 0.0, 0, 0, 0, 0, 0, 0, -0.783645510673523, -1.9315248727798462, 0.08487530797719955
13555, 0.10781145840883255, -0.14813876152038574, 0.09035385400056839, 0.019539725035429, -0.17660050094127655, 0.1310906559228897, -0.0019137224880978465, -0.0011762487702071667, 1.000286340713501, -0.7847240567207336, -1.9355225563049316, 0.08504467457532883, 0.0, 0.0, 0.0, 0, 0, 0, 0, 0, 0, -0.7847240567207336, -1.9355225563049316, 0.08504467457532883
13565, 0.10686903446912766, -0.14887526631355286, 0.09180165082216263, 0.08475778251886368, 0.06020950898528099, 0.12592941522598267, -8.557775799999945e-06, -0.0014213246759027243, 0.9993112683296204, -0.7858012318611145, -1.939523696899414, 0.08521388471126556, 0.0, 0.0, 0.0, 0, 0, 0, 0, 0, 0, -0.7858012318611145, -1.939523696899414, 0.08521388471126556
13575, 0.10662253201007843, -0.1489165723323822, 0.0913965106010437, 0.04238917678594589, -0.1836484968662262, 0.1348777860403061, -0.0032977669034153223, -0.0027560514863580465, 1.0008708238601685, -0.7868772745132446, -1.943528175354004, 0.08538313955068588, 0.0, 0.0, 0.0, 0, 0, 0, 0, 0, 0, -0.7868772745132446, -1.943528175354004, 0.08538313955068588
13585, 0.10742101073265076, -0.14921405911445618, 0.09267479926347733, 0.11516593396663666, 0.17528192698955536, 0.05749544873833656, -0.003542278427630663, -0.0048133330419659615, 1.0010627508163452, -0.7879531383514404, -1.9475373029708862, 0.08555258065462112, 0.0, 0.0, 0.0, 0, 0, 0, 0, 0, 0, -0.7879531383514404, -1.9475373029708862, 0.08555258065462112
13595, 0.10827871412038803, -0.1501113921403885, 0.09249809384346008, 0.03913445770740509, -0.2664341330528259, 0.06046898663043976, -0.00288546085357666, -0.0030250963754951954, 1.0022183656692505, -0.7890297174453735, -1.9515522718429565, 0.08572310209274292, 0.0, 0.0, 0.0, 0, 0, 0, 0, 0, 0, -0.7890297174453735, -1.9515522718429565, 0.08572310209274292
13605, 0.10761678218841553, -0.1498211920261383, 0.09390776604413986, -0.06639358401298523, 0.09948379546403885, 0.11558060348033905, -0.0019757847767323256, -0.002450177911669016, 0.999681830406189, -0.790106475353241, -1.9555728435516357, 0.08589494973421097, 0.0, 0.0, 0.0, 0, 0, 0, 0, 0, 0, -0.790106475353241, -1.9555728435516357, 0.08589494973421097
13615, 0.10747762769460678, -0.1516750454902649, 0.09482081234455109, -0.041866235435009, 0.13937075436115265, -0.18436303734779358, -0.0010531243169680238, -0.0037527845706790686, 0.9980573058128357, -0.7911826968193054, -1.9595978260040283, 0.0860670953989029, 0.0, 0.0, 0.0, 0, 0, 0, 0, 0, 0, -0.7911826968193054, -1.9595978260040283, 0.0860670953989029
13625, 0.10677364468574524, -0.150189608335495, 0.09466178715229034, -0.1680700033903122, -0.14413249492645264, -0.039630673825740814, -0.0016423501074314117, -0.0064551676623523235, 1.000779628753662, -0.7922580242156982, -1.9636281728744507, 0.08623871207237244, 0.0, 0.0, 0.0, 0, 0, 0, 0, 0, 0, -0.7922580242156982, -1.9636281728744507, 0.08623871207237244
13635, 0.10714337974786758, -0.15124759078025818, 0.09451710432767868, 0.09770870208740234, 0.0006414004019461572, 0.12056516855955124, -0.0013681118143722415, -0.0033992789685726166, 0.999737024307251, -0.7933322191238403, -1.967665195465088, 0.08641014993190765, 0.0, 0.0, 0.0, 0, 0, 0, 0, 0, 0, -0.7933322191238403, -1.967665195465088, 0.08641014993190765
13645, 0.1078563928604126, -0.14981967210769653, 0.0949522852897644, -0.11410821229219437, 0.18691955506801605, 0.0024500428698956966, -0.002276595449075103, -0.0021784401033073664, 0.9985732436180115, -0.7944053411483765, -1.971708059310913, 0.08658163994550705, 0.0, 0.0, 0.0, 0, 0, 0, 0, 0, 0, -0.7944053411483765, -1.971708059310913, 0.08658163994550705
13655, 0.10751030594110489, -0.15201936662197113, 0.09408117085695267, 0.037136953324079514, 0.25017261505126953, 0.051931094378232956, -0.0020282708574086428, -0.0028241071850061417, 0.9997336268424988, -0.7954779863357544, -1.9757554531097412, 0.0867522656917572, 0.0, 0.0, 0.0, 0, 0, 0, 0, 0, 0, -0.7954779863357544, -1.9757554531097412, 0.0867522656917572
13665, 0.10710901021957397, -0.15334855020046234, 0.09412198513746262, 0.10907047241926193, -0.17224042117595673, -0.1131664514541626, -0.00041979405796155334, -0.004197828471660614, 0.999496579170227, -0.7965500354766846, -1.9798072576522827, 0.08692213147878647, 0.0, 0.0, 0.0, 0, 0, 0, 0, 0, 0, -0.7965500354766846, -1.9798072576522827, 0.08692213147878647
13675, 0.10735975950956345, -0.15267571806907654, 0.09290888905525208, 0.17294250428676605, -0.1650819182395935, -0.0748543068766594, -0.0014825238613411784, -0.0029284441843628883, 1.0001444816589355, -0.797620952129364, -1.9838645458221436, 0.0870918482542038, 0.0, 0.0, 0.0, 0, 0, 0, 0, 0, 0, -0.797620952129364, -1.9838645458221436, 0.0870918482542038
13685, 0.10796160995960236, -0.15175758302211761, 0.09254296123981476, 0.277694433927536, -0.12581655383110046, 0.2637612223625183, -0.0030992417596280575, -0.00032042988459579647, 0.9994571805000305, -0.798690676689148, -1.9879266023635864, 0.08726129680871964, 0.0, 0.0, 0.0, 0, 0, 0, 0, 0, 0, -0.798690676689148, -1.9879266023635864, 0.08726129680871964
13695, 0.10868468880653381, -0.15175355970859528, 0.09245722740888596, 0.05029871687293053, 0.40162450075149536, -0.1553603708744049, -0.003532462054863572, -0.0031717484816908836, 0.9985190629959106, -0.7997605204582214, -1.9919917583465576, 0.08743025362491608, 0.0, 0.0, 0.0, 0, 0, 0, 0, 0, 0, -0.7997605204582214, -1.9919917583465576, 0.08743025362491608
13705, 0.1090303435921669, -0.15337440371513367, 0.09225153177976608, 0.1450873464345932, -0.19075354933738708, 0.09305353462696075, -0.0038379912730306387, -0.0033802168909460306, 0.9984622597694397, -0.8008313775062561, -1.9960609674453735, 0.08759787678718567, 0.0, 0.0, 0.0, 0, 0, 0, 0, 0, 0, -0.8008313775062561, -1.9960609674453735, 0.08759787678718567
13715, 0.10904967039823532, -0.15244531631469727, 0.0910622626543045, 0.12091052532196045, -0.002716053044423461, -0.29788443446159363, -0.004073636140674353, -0.0028461129404604435, 1.0000979900360107, -0.8019028306007385, -2.0001351833343506, 0.08776438236236572, 0.0, 0.0, 0.0, 0, 0, 0, 0, 0, 0, -0.8019028306007385, -2.0001351833343506, 0.08776438236236572
13725, 0.10884831845760345, -0.15288114547729492, 0.08923263102769852, 0.09670919924974442, -0.1817542016506195, 0.30945518612861633, -0.003786182962357998, -0.0034089265391230583, 1.001682162284851, -0.8029753565788269, -2.004214286804199, 0.0879308357834816, 0.0, 0.0, 0.0, 0, 0, 0, 0, 0, 0, -0.8029753565788269, -2.004214286804199, 0.0879308357834816
13735, 0.1090957373380661, -0.1530158668756485, 0.09083029627799988, 0.03292451426386833, 0.48237380385398865, 0.024237241595983505, -0.0028095196466892958, -0.0032807467505335808, 0.9980079531669617, -0.8040490746498108, -2.008298397064209, 0.08809757977724075, 0.0, 0.0, 0.0, 0, 0, 0, 0, 0, 0, -0.8040490746498108, -2.008298397064209, 0.08809757977724075
13745, 0.10967431217432022, -0.15360061824321747, 0.09044715762138367, -0.148533895611763, -0.17221270501613617, 0.1402980387210846, -0.0017690249951556325, -0.0023193242959678173, 0.9990904927253723, -0.8051233291625977, -2.012387752532959, 0.08826354146003723, 0.0, 0.0, 0.0, 0, 0, 0, 0, 0, 0, -0.8051233291625977, -2.012387752532959, 0.08826354146003723
13755, 0.11084732413291931, -0.15270067751407623, 0.09072395414113998, 0.05544483661651611, -0.041322994977235794, -0.0396232083439827, -0.0016035238513723016, -0.0029484760016202927, 0.9986041784286499, -0.8061971068382263, -2.01648211479187, 0.08842809498310089, 0.0, 0.0, 0.0, 0, 0, 0, 0, 0, 0, -0.8061971068382263, -2.01648211479187, 0.08842809498310089
13765, 0.1113288551568985, -0.15232525765895844, 0.0898306593298912, -0.02864643558859825, -0.17415599524974823, -0.14292801916599274, -0.0012213458539918065, -0.005366070196032524, 0.9992039799690247, -0.8072697520256042, -2.0205814838409424, 0.08859147876501083, 0.0, 0.0, 0.0, 0, 0, 0, 0, 0, 0, -0.8072697520256042, -2.0205814838409424, 0.08859147876501083
13775, 0.11056231707334518, -0.15121348202228546, 0.08933233469724655, 0.03903409466147423, -0.3122275769710541, -0.16314196586608887, -0.0014862725511193275, -0.0039658271707594395, 0.9968560338020325, -0.8083412647247314, -2.0246870517730713, 0.0887535884976387, 0.0, 0.0, 0.0, 0, 0, 0, 0, 0, 0, -0.8083412647247314, -2.0246870517730713, 0.0887535884976387
13785, 0.11012715101242065, -0.15098020434379578, 0.08955743163824081, -0.1052091121673584, 0.12083317339420319, 0.1912805736064911, -0.0016186460852622986, -0.0025142007507383823, 0.9970226287841797, -0.8094115853309631, -2.028798818588257, 0.0889134332537651, 0.0, 0.0, 0.0, 0, 0, 0, 0, 0, 0, -0.8094115853309631, -2.028798818588257, 0.0889134332537651
13795, 0.11033955961465836, -0.15028835833072662, 0.0896487832069397, -0.00985071249306202, -0.027839407324790955, -0.06421158462762833, -0.0017197307897731662, -0.0021238576155155897, 0.9992837905883789, -0.8104807734489441, -2.0329151153564453, 0.08907054364681244, 0.0, 0.0, 0.0, 0, 0, 0, 0, 0, 0, -0.8104807734489441, -2.0329151153564453, 0.08907054364681244
13805, 0.11047666519880295, -0.15245291590690613, 0.09045606106519699, 0.0849418044090271, 0.01802649162709713, -0.027181871235370636, -0.002657830249518156, -0.0021508364006876945, 1.0000728368759155, -0.811549186706543, -2.0370354652404785, 0.08922635763883591, 0.0, 0.0, 0.0, 0, 0, 0, 0, 0, 0, -0.811549186706543, -2.0370354652404785, 0.08922635763883591
13815, 0.10990478098392487, -0.15181344747543335, 0.08931949734687805, 0.16631484031677246, -0.1303706020116806, 0.07338899374008179, -0.002625240944325924, -0.0009082545875571668, 1.0000141859054565, -0.8126174807548523, -2.0411596298217773, 0.08938215672969818, 0.0, 0.0, 0.0, 0, 0, 0, 0, 0, 0, -0.8126174807548523, -2.0411596298217773, 0.08938215672969818
13825, 0.11116393655538559, -0.15213696658611298, 0.09115184098482132, -0.021105201914906502, 0.24993541836738586, 0.2907175123691559, -0.0022560791112482548, -0.002140163676813245, 0.9991311430931091, -0.8136860132217407, -2.0452868938446045, 0.08953773230314255, 0.0, 0.0, 0.0, 0, 0, 0, 0, 0, 0, -0.8136860132217407, -2.0452868938446045, 0.08953773230314255
13835, 0.11091012507677078, -0.15298815071582794, 0.09140980243682861, 0.14232172071933746, -0.1412014216184616, -0.0545058399438858, -0.003463141620159149, -0.0023200849536806345, 0.997606098651886, -0.8147544264793396, -2.0494179725646973, 0.08969233185052872, 0.0, 0.0, 0.0, 0, 0, 0, 0, 0, 0, -0.8147544264793396, -2.0494179725646973, 0.08969233185052872
13845, 0.1110294833779335, -0.15300147235393524, 0.09245782345533371, -0.020448148250579834, -0.08865875750780106, -0.17480960488319397, -0.005011213012039661, -0.002336917445063591, 0.9992315173149109, -0.8158232569694519, -2.0535528659820557, 0.08984538167715073, 0.0, 0.0, 0.0, 0, 0, 0, 0, 0, 0, -0.8158232569694519, -2.0535528659820557, 0.08984538167715073
13855, 0.11207611113786697, -0.15244248509407043, 0.09244535118341446, 0.015032762661576271, -0.2116268426179886, 0.027453482151031494, -0.004085457883775234, -0.001633764011785388, 0.9996864795684814, -0.8168938159942627, -2.057691812515259, 0.0899970531463623, 0.0, 0.0, 0.0, 0, 0, 0, 0, 0, 0, -0.8168938159942627, -2.057691812515259, 0.0899970531463623
13865, 0.11225379258394241, -0.1521734595298767, 0.09113136678934097, 0.1587028056383133, -0.2929992079734802, -0.4239722192287445, -0.0013535558246076107, -0.003515213495120406, 0.9997701048851013, -0.8179659843444824, -2.0618350505828857, 0.09014850109815598, 0.0, 0.0, 0.0, 0, 0, 0, 0, 0, 0, -0.8179659843444824, -2.0618350505828857, 0.09014850109815598
13875, 0.11251045763492584, -0.14976990222930908, 0.09004124999046326, 0.09177384525537491, -0.22733405232429504, 0.05294032394886017, -0.0014348539989441633, -0.004164525307714939, 0.9979696869850159, -0.819037914276123, -2.0659830570220947, 0.09029971063137054, 0.0, 0.0, 0.0, 0, 0, 0, 0, 0, 0, -0.819037914276123, -2.0659830570220947, 0.09029971063137054
13885, 0.11215275526046753, -0.15137766301631927, 0.08987224102020264, -0.07327736169099808, 0.28602853417396545, -0.022324204444885254, -0.0020009884610772133, -0.004519301932305098, 0.9992834329605103, -0.8201085329055786, -2.0701370239257812, 0.09044981747865677, 0.0, 0.0, 0.0, 0, 0, 0, 0, 0, 0, -0.8201085329055786, -2.0701370239257812, 0.09044981747865677
13895, 0.1121552512049675, -0.1497270166873932, 0.09080436080694199, 0.11513124406337738, -0.2471613734960556, 0.21819312870502472, -0.002285243943333626, -0.0045705209486186504, 1.0005817413330078, -0.8211782574653625, -2.0742971897125244, 0.0905991643667221, 0.0, 0.0, 0.0, 0, 0, 0, 0, 0, 0, -0.8211782574653625, -2.0742971897125244, 0.0905991643667221
13905, 0.11337333172559738, -0.1494348794221878, 0.09172554314136505, -0.054518211632966995, 0.014101109467446804, 0.00356962694786489, -0.003601512173190713, -0.001972812693566084, 1.0002778768539429, -0.8222476243972778, -2.078463315963745, 0.09074889123439789, 0.0, 0.0, 0.0, 0, 0, 0, 0, 0, 0, -0.8222476243972778, -2.078463315963745, 0.09074889123439789
13915, 0.11349321901798248, -0.14879873394966125, 0.09293919801712036, 0.04733440279960632, 0.2627946436405182, 0.15841326117515564, -0.0011227461509406567, -0.00229900935664773, 0.9995929002761841, -0.8233172297477722, -2.082634210586548, 0.09089888632297516, 0.0, 0.0, 0.0, 0, 0, 0, 0, 0, 0, -0.8233172297477722, -2.082634210586548, 0.09089888632297516
13925, 0.11326463520526886, -0.15084481239318848, 0.09287948906421661, -0.02599918469786644, 0.13344651460647583, 0.13597434759140015, -0.00350064761005342, -0.003910386934876442, 1.002251148223877, -0.8243865966796875, -2.0868093967437744, 0.09104892611503601, 0.0, 0.0, 0.0, 0, 0, 0, 0, 0, 0, -0.8243865966796875, -2.0868093967437744, 0.09104892611503601
13935, 0.11313123255968094, -0.15030606091022491, 0.09182108938694, -0.0015564517816528678, -0.13775190711021423, 0.05163365229964256, -0.00385192409157753, -0.003782561980187893, 1.000348687171936, -0.8254558444023132, -2.0909900665283203, 0.09120011329650879, 0.0, 0.0, 0.0, 0, 0, 0, 0, 0, 0, -0.8254558444023132, -2.0909900665283203, 0.09120011329650879
13945, 0.11296308040618896, -0.15022428333759308, 0.0939069613814354, -0.07549997419118881, -0.1814405918121338, 0.1545209437608719, -0.0007945637917146087, -0.0020283996127545834, 0.9985585808753967, -0.8265257477760315, -2.0951759815216064, 0.09135216474533081, 0.0, 0.0, 0.0, 0, 0, 0, 0, 0, 0, -0.8265257477760315, -2.0951759815216064, 0.09135216474533081
13955, 0.11304518580436707, -0.14754265546798706, 0.09396019577980042, 0.05528932064771652, -0.37099701166152954, -0.3226841688156128, -0.00336604006588459, -0.003149953903630376, 0.9991397261619568, -0.8275954127311707, -2.0993661880493164, 0.09150329232215881, 0.0, 0.0, 0.0, 0, 0, 0, 0, 0, 0, -0.8275954127311707, -2.0993661880493164, 0.09150329232215881
13965, 0.11308737099170685, -0.1452140063047409, 0.09257960319519043, -0.0511060394346714, -0.04098323732614517, 0.014409019611775875, -0.0011806173715740442, -0.0030861094128340483, 1.001696228981018, -0.8286647200584412, -2.1035611629486084, 0.09165365248918533, 0.0, 0.0, 0.0, 0, 0, 0, 0, 0, 0, -0.8286647200584412, -2.1035611629486084, 0.09165365248918533
13975, 0.11413352191448212, -0.14495849609375, 0.09271351993083954, -0.07515334337949753, 0.23854809999465942, 0.017075052484869957, -0.005201417487114668, -0.0014106963062658906, 0.9992475509643555, -0.8297341465950012, -2.1077609062194824, 0.09180452674627304, 0.0, 0.0, 0.0, 0, 0, 0, 0, 0, 0, -0.8297341465950012, -2.1077609062194824, 0.09180452674627304
13985, 0.11468739062547684, -0.14646011590957642, 0.09268724173307419, 0.1468958854675293, 0.09800579398870468, -0.020679090172052383, -0.0038536530919373035, -0.002302722306922078, 1.0003206729888916, -0.8308046460151672, -2.111964464187622, 0.09195579588413239, 0.0, 0.0, 0.0, 0, 0, 0, 0, 0, 0, -0.8308046460151672, -2.111964464187622, 0.09195579588413239
13995, 0.11598719656467438, -0.14867302775382996, 0.09318306297063828, 0.04010352864861488, -0.1643671691417694, -0.08428104966878891, -0.0013718940317630768, -0.002051140647381544, 1.0012786388397217, -0.8318763971328735, -2.1161720752716064, 0.0921071246266365, 0.0, 0.0, 0.0, 0, 0, 0, 0, 0, 0, -0.8318763971328735, -2.1161720752716064, 0.0921071246266365
14005, 0.11520324647426605, -0.14642320573329926, 0.09240490198135376, 0.0019509195117279887, -0.23397257924079895, -0.12475529313087463, -0.0007120665977708995, -0.002740542171522975, 0.9996652007102966, -0.8329474925994873, -2.1203839778900146, 0.09225877374410629, 0.0, 0.0, 0.0, 0, 0, 0, 0, 0, 0, -0.8329474925994873, -2.1203839778900146, 0.09225877374410629
14015, 0.11528264731168747, -0.14618273079395294, 0.09220316261053085, -0.14301146566867828, 0.3770939111709595, -0.27349814772605896, -0.0021785779390484095, -0.0023333902936428785, 1.0003236532211304, -0.8340169191360474, -2.1246001720428467, 0.0924108549952507, 0.0, 0.0, 0.0, 0, 0, 0, 0, 0, 0, -0.8340169191360474, -2.1246001720428467, 0.0924108549952507
14025, 0.11403943598270416, -0.1471841186285019, 0.09264528006315231, -0.032872311770915985, 0.14940312504768372, 0.0645521953701973, -0.004468974191695452, -0.0008255716529674828, 0.9997023344039917, -0.835085928440094, -2.1288206577301025, 0.09256276488304138, 0.0, 0.0, 0.0, 0, 0, 0, 0, 0, 0, -0.835085928440094, -2.1288206577301025, 0.09256276488304138
14035, 0.11403243243694305, -0.14866593480110168, 0.09191323071718216, 0.1098250299692154, -0.07129725813865662, 0.026159504428505898, -0.004432894289493561, -0.0037825475446879864, 1.000022530555725, -0.8361559510231018, -2.133044958114624, 0.09271423518657684, 0.0, 0.0, 0.0, 0, 0, 0, 0, 0, 0, -0.8361559510231018, -2.133044958114624, 0.09271423518657684
14045, 0.11414594203233719, -0.1486249417066574, 0.093178391456604, -0.05443835258483887, -0.08526822179555893, 0.3657487630844116, -0.0031176272314041853, -0.003971376456320286, 1.0008264780044556, -0.8372276425361633, -2.1372737884521484, 0.09286577999591827, 0.0, 0.0, 0.0, 0, 0, 0, 0, 0, 0, -0.8372276425361633, -2.1372737884521484, 0.09286577999591827
14055, 0.11388915777206421, -0.14838391542434692, 0.09265299141407013, -0.07640154659748077, 0.001222923630848527, -0.1475170999765396, -0.004514360800385475, -0.003582324832677841, 1.0022052526474, -0.8383006453514099, -2.1415085792541504, 0.09301795810461044, 0.0, 0.0, 0.0, 0, 0, 0, 0, 0, 0, -0.8383006453514099, -2.1415085792541504, 0.09301795810461044
14065, 0.11334603279829025, -0.14729541540145874, 0.09175310283899307, -0.019367652013897896, -0.12916307151317596, -0.0013499343767762184, -0.0050194961950182915, -0.00021621643099933863, 1.001590371131897, -0.8393751978874207, -2.1457483768463135, 0.09317158907651901, 0.0, 0.0, 0.0, 0, 0, 0, 0, 0, 0, -0.8393751978874207, -2.1457483768463135, 0.09317158907651901
14075, 0.11354639381170273, -0.1458510458469391, 0.09152159839868546, -0.18772651255130768, -0.3660498857498169, -0.18020039796829224, -0.0039162109605968, -0.0015330177266150713, 1.0026341676712036, -0.8404520750045776, -2.149991512298584, 0.09332714229822159, 0.0, 0.0, 0.0, 0, 0, 0, 0, 0, 0, -0.8404520750045776, -2.149991512298584, 0.09332714229822159
14085, 0.11379127949476242, -0.1443244218826294, 0.08956616371870041, 0.10561642050743103, 0.0816478505730629, -0.1441202461719513, -0.002118741162121296, -0.0037437989376485348, 1.0011239051818848, -0.8415302634239197, -2.154237985610962, 0.09348493814468384, 0.0, 0.0, 0.0, 0, 0, 0, 0, 0, 0, -0.8415302634239197, -2.154237985610962, 0.09348493814468384
14095, 0.11305566132068634, -0.14362607896327972, 0.08987011015415192, 0.005512218456715345, -0.15694090723991394, 0.07996965944766998, -0.0014999062987044454, -0.0038197743706405163, 0.9994096755981445, -0.8426085114479065, -2.158489465713501, 0.09364387392997742, 0.0, 0.0, 0.0, 0, 0, 0, 0, 0, 0, -0.8426085114479065, -2.158489465713501, 0.09364387392997742
14105, 0.11263326555490494, -0.14468728005886078, 0.0887303352355957, -0.06828794628381729, 0.1785801351070404, 0.05030081793665886, -0.0022767651826143265, -0.004951276816427708, 0.9987155795097351, -0.8436861634254456, -2.1627469062805176, 0.09380236268043518, 0.0, 0.0, 0.0, 0, 0, 0, 0, 0, 0, -0.8436861634254456, -2.1627469062805176, 0.09380236268043518
14115, 0.11306136846542358, -0.1466151624917984, 0.08863561600446701, -0.028181295841932297, 0.2738386392593384, -0.07076352089643478, -0.001620887196622789, -0.0033211736008524895, 1.0017375946044922, -0.8447633385658264, -2.16701078414917, 0.09396060556173325, 0.0, 0.0, 0.0, 0, 0, 0, 0, 0, 0, -0.8447633385658264, -2.16701078414917, 0.09396060556173325
14125, 0.11319868266582489, -0.1481461077928543, 0.08852693438529968, -0.22659538686275482, -0.045705657452344894, -0.07929595559835434, -0.0033590150997042656, -0.0025137956254184246, 1.0013208389282227, -0.8458402752876282, -2.1712799072265625, 0.09411987662315369, 0.0, 0.0, 0.0, 0, 0, 0, 0, 0, 0, -0.8458402752876282, -2.1712799072265625, 0.09411987662315369
14135, 0.11256799101829529, -0.1454733908176422, 0.0869414210319519, 0.18453088402748108, -0.2662104368209839, 0.136893630027771, -0.0028872350230813026, -0.0032860045321285725, 0.9979096055030823, -0.8469173908233643, -2.175553798675537, 0.09428015351295471, 0.0, 0.0, 0.0, 0, 0, 0, 0, 0, 0, -0.8469173908233643, -2.175553798675537, 0.09428015351295471
14145, 0.11263813823461533, -0.14648255705833435, 0.08826948702335358, -0.0054116761311888695, 0.07822120934724808, -0.08327287435531616, -0.003702947637066245, -0.0020298350136727095, 0.9973809123039246, -0.8479951620101929, -2.179832935333252, 0.09443926066160202, 0.0, 0.0, 0.0, 0, 0, 0, 0, 0, 0, -0.8479951620101929, -2.179832935333252, 0.09443926066160202
14155, 0.113885298371315, -0.14591248333454132, 0.08654935657978058, 0.19046251475811005, -0.11167905479669571, 0.11487672477960587, -0.0028824913315474987, -0.002319823484867811, 0.998542845249176, -0.8490737080574036, -2.1841161251068115, 0.09459587931632996, 0.0, 0.0, 0.0, 0, 0, 0, 0, 0, 0, -0.8490737080574036, -2.1841161251068115, 0.09459587931632996
14165, 0.11431807279586792, -0.14656595885753632, 0.08785722404718399, 0.06935785710811615, -0.1108035147190094, 0.13109956681728363, -0.0007137928041629493, -0.0037716415245085955, 0.9983110427856445, -0.8501524329185486, -2.188403367996216, 0.09475063532590866, 0.0, 0.0, 0.0, 0, 0, 0, 0, 0, 0, -0.8501524329185486, -2.188403367996216, 0.09475063532590866
14175, 0.11480867117643356, -0.14502489566802979, 0.08753682672977448, 0.09262142330408096, 0.06496605277061462, 0.07225394248962402, -0.002334826858714223, -0.0032073722686618567, 0.9995570182800293, -0.851230263710022, -2.1926960945129395, 0.09490403532981873, 0.0, 0.0, 0.0, 0, 0, 0, 0, 0, 0, -0.851230263710022, -2.1926960945129395, 0.09490403532981873
14185, 0.11513517051935196, -0.145750492811203, 0.08655034750699997, 0.0012700113002210855, -0.08701758086681366, -0.07476279139518738, -0.005089473444968462, -0.002805121708661318, 0.9999918341636658, -0.8523076772689819, -2.1969943046569824, 0.0950566828250885, 0.0, 0.0, 0.0, 0, 0, 0, 0, 0, 0, -0.8523076772689819, -2.1969943046569824, 0.0950566828250885
14195, 0.11504332721233368, -0.14431887865066528, 0.08743876963853836, -0.019117571413517, 0.19561277329921722, 0.2323039472103119, -0.004382707178592682, -0.0007401714101433754, 1.000769853591919, -0.853386402130127, -2.2012972831726074, 0.09520931541919708, 0.0, 0.0, 0.0, 0, 0, 0, 0, 0, 0, -0.853386402130127, -2.2012972831726074, 0.09520931541919708
14205, 0.11490662395954132, -0.1462165117263794, 0.08729904890060425, -0.14244596660137177, 0.1308055818080902, 0.014500647783279419, -0.00510804308578372, -0.0020873842295259237, 1.0013624429702759, -0.8544672131538391, -2.205603837966919, 0.09536245465278625, 0.0, 0.0, 0.0, 0, 0, 0, 0, 0, 0, -0.8544672131538391, -2.205603837966919, 0.09536245465278625
14215, 0.1129441112279892, -0.14528509974479675, 0.08810374140739441, -0.024907784536480904, -0.23068058490753174, -0.1299295723438263, -0.0031798947602510452, -0.005084636155515909, 1.0012444257736206, -0.8555501103401184, -2.209914207458496, 0.09551704674959183, 0.0, 0.0, 0.0, 0, 0, 0, 0, 0, 0, -0.8555501103401184, -2.209914207458496, 0.09551704674959183
14225, 0.11337670683860779, -0.1436517983675003, 0.08693064004182816, -0.28067633509635925, -0.17115670442581177, -0.02177516184747219, -0.0011393323075026274, -0.002519708825275302, 0.9995843172073364, -0.8566343188285828, -2.214230537414551, 0.09567276388406754, 0.0, 0.0, 0.0, 0, 0, 0, 0, 0, 0, -0.8566343188285828, -2.214230537414551, 0.09567276388406754
14235, 0.1118524894118309, -0.14245545864105225, 0.08775579184293747, -0.06644392758607864, 0.11558734625577927, -0.09220997244119644, -0.000854521756991744, -0.003139976877719164, 1.0001871585845947, -0.8577178120613098, -2.218552350997925, 0.09582841396331787, 0.0, 0.0, 0.0, 0, 0, 0, 0, 0, 0, -0.8577178120613098, -2.218552350997925, 0.09582841396331787
14245, 0.11114786565303802, -0.1410309374332428, 0.08581051975488663, -0.009303760714828968, 0.059393126517534256, 0.12708337604999542, -0.0016276136739179492, -0.002443334786221385, 0.9989365339279175, -0.8587997555732727, -2.2228784561157227, 0.09598395973443985, 0.0, 0.0, 0.0, 0, 0, 0, 0, 0, 0, -0.8587997555732727, -2.2228784561157227, 0.09598395973443985
14255, 0.1110791563987732, -0.1423291116952896, 0.08607884496450424, 0.1622271090745926, 0.019849661737680435, 0.13815857470035553, -0.0026717178989201784, -0.0010910761775448918, 0.9985389113426208, -0.8599889278411865, -2.227642297744751, 0.09615423530340195, 0.0, 0.0, 0.0, 0, 0, 0, 0, 0, 0, -0.8599889278411865, -2.227642297744751, 0.09615423530340195
14265, 0.11239559948444366, -0.14152996242046356, 0.0863068625330925, 0.19937819242477417, -0.11488210409879684, 0.2588396668434143, -0.0010223427088931203, -2.960022902698256e-05, 0.9983292818069458, -0.8610694408416748, -2.2319767475128174, 0.0963074266910553, 0.0, 0.0, 0.0, 0, 0, 0, 0, 0, 0, -0.8610694408416748, -2.2319767475128174, 0.0963074266910553
14275, 0.1132485419511795, -0.13953976333141327, 0.0870671197772026, -0.13389211893081665, -0.07057120651006699, 0.01463773101568222, -0.0029389846604317427, -0.0023187382612377405, 1.0018515586853027, -0.8621492981910706, -2.236313581466675, 0.09645938128232956, 0.0, 0.0, 0.0, 0, 0, 0, 0, 0, 0, -0.8621492981910706, -2.236313581466675, 0.09645938128232956
14285, 0.1131938248872757, -0.1424064189195633, 0.08884812146425247, -0.060598503798246384, 0.2862407863140106, -0.18963894248008728, -0.0008095515077002347, -0.001301844255067408, 1.0011870861053467, -0.8632287383079529, -2.2406537532806396, 0.09661198407411575, 0.0, 0.0, 0.0, 0, 0, 0, 0, 0, 0, -0.8632287383079529, -2.2406537532806396, 0.09661198407411575
14295, 0.11322837322950363, -0.1433919221162796, 0.08767775446176529, 0.14618010818958282, 0.10903852432966232, -0.013272351585328579, -0.0033723164815455675, -0.0024633414577692747, 1.001023769378662, -0.864307701587677, -2.244997501373291, 0.09676620364189148, 0.0, 0.0, 0.0, 0, 0, 0, 0, 0, 0, -0.864307701587677, -2.244997501373291, 0.09676620364189148
14305, 0.11311005055904388, -0.1443246304988861, 0.08857811987400055, -0.017223764210939407, 0.21562476456165314, 0.2664356529712677, -0.003278615651652217, -0.0009441574802622199, 0.9995027184486389, -0.8653869032859802, -2.249345302581787, 0.09692114591598511, 0.0, 0.0, 0.0, 0, 0, 0, 0, 0, 0, -0.8653869032859802, -2.249345302581787, 0.09692114591598511
14315, 0.11228086054325104, -0.14396578073501587, 0.09038731455802917, 0.06234611198306084, -0.28114616870880127, 0.1597558706998825, -0.0052499184384942055, -0.0004266860487405211, 0.9991697072982788, -0.8664674162864685, -2.2536962032318115, 0.0970759466290474, 0.0, 0.0, 0.0, 0, 0, 0, 0, 0, 0, -0.8664674162864685, -2.2536962032318115, 0.0970759466290474
14325, 0.1134515032172203, -0.14325492084026337, 0.09050209075212479, 0.030378779396414757, 0.040431760251522064, 0.4031907320022583, -0.004645130597054958, -0.0012764112325385213, 1.0020571947097778, -0.867550253868103, -2.258049964904785, 0.09723050147294998, 0.0, 0.0, 0.0, 0, 0, 0, 0, 0, 0, -0.867550253868103, -2.258049964904785, 0.09723050147294998
14335, 0.11344296485185623, -0.14311838150024414, 0.09108866751194, -0.21942134201526642, -0.03436823934316635, -0.15885098278522491, -0.0035580771509557962, -0.0031952885910868645, 1.002052664756775, -0.8686351180076599, -2.2624073028564453, 0.09738614410161972, 0.0, 0.0, 0.0, 0, 0, 0, 0, 0, 0, -0.8686351180076599, -2.2624073028564453, 0.09738614410161972
14345, 0.1129143163561821, -0.14244884252548218, 0.09303046017885208, 0.10271631181240082, 0.11305426806211472, 0.08276888728141785, -0.003937905188649893, -0.004403684288263321, 1.0017874240875244, -0.8697214126586914, -2.2667694091796875, 0.09754368662834167, 0.0, 0.0, 0.0, 0, 0, 0, 0, 0, 0, -0.8697214126586914, -2.2667694091796875, 0.09754368662834167
14355, 0.11372070759534836, -0.14055109024047852, 0.09191539883613586, 0.12215010821819305, -0.2953600585460663, 0.16383403539657593, -0.002918008016422391, -0.004724820144474506, 1.0006858110427856, -0.8708091378211975, -2.2711379528045654, 0.09770280867815018, 0.0, 0.0, 0.0, 0, 0, 0, 0, 0, 0, -0.8708091378211975, -2.2711379528045654, 0.09770280867815018
14365, 0.11373788863420486, -0.13861966133117676, 0.09166102111339569, 0.0537344329059124, -0.41805019974708557, 0.07923098653554916, -0.0028624956030398607, -0.0023653563112020493, 0.9983742237091064, -0.8718973398208618, -2.275512933731079, 0.0978623703122139, 0.0, 0.0, 0.0, 0, 0, 0, 0, 0, 0, -0.8718973398208618, -2.275512933731079, 0.0978623703122139
14375, 0.11370521783828735, -0.13971702754497528, 0.09108079969882965, 0.015679555013775826, 0.3664638102054596, 0.13792547583580017, -0.0023474779445677996, -0.002192846965044737, 1.0012868642807007, -0.8729856610298157, -2.279892921447754, 0.09802157431840897, 0.0, 0.0, 0.0, 0, 0, 0, 0, 0, 0, -0.8729856610298157, -2.279892921447754, 0.09802157431840897
14385, 0.11414927989244461, -0.14112181961536407, 0.09109573811292648, 0.05978007614612579, -0.14270932972431183, -0.1377909630537033, -0.001048767357133329, -0.0029823321383446455, 0.9999552965164185, -0.87407386302948, -2.2842772006988525, 0.09818090498447418, 0.0, 0.0, 0.0, 0, 0, 0, 0, 0, 0, -0.87407386302948, -2.2842772006988525, 0.09818090498447418
14395, 0.1135958582162857, -0.14210596680641174, 0.09068524837493896, 0.0343628004193306, 0.2068513184785843, -0.04356307163834572, 0.0008167094783857465, -0.0009243145468644798, 0.999462366104126, -0.8751600980758667, -2.288665771484375, 0.0983404815196991, 0.0, 0.0, 0.0, 0, 0, 0, 0, 0, 0, -0.8751600980758667, -2.288665771484375, 0.0983404815196991
14405, 0.11488062888383865, -0.14296609163284302, 0.09136425703763962, 0.02221379242837429, 0.05323462188243866, 0.07319434732198715, -0.0036248096730560064, -0.002237746026366949, 0.9996805787086487, -0.8762443661689758, -2.293057918548584, 0.09849972277879715, 0.0, 0.0, 0.0, 0, 0, 0, 0, 0, 0, -0.8762443661689758, -2.293057918548584, 0.09849972277879715
14415, 0.11456171423196793, -0.14418964087963104, 0.09279946237802505, 0.20160622894763947, -0.11026160418987274, 0.07653533667325974, -0.004432275891304016, -0.0028003512416034937, 1.000197410583496, -0.8773291707038879, -2.297454357147217, 0.09865882992744446, 0.0, 0.0, 0.0, 0, 0, 0, 0, 0, 0, -0.8773291707038879, -2.297454357147217, 0.09865882992744446
14425, 0.11481844633817673, -0.142769455909729, 0.09275826066732407, -0.09970767050981522, -0.22124840319156647, 0.05683073773980141, -0.0029571475461125374, -0.0022690726909786463, 0.9994157552719116, -0.8784151673316956, -2.3018553256988525, 0.09881757199764252, 0.0, 0.0, 0.0, 0, 0, 0, 0, 0, 0, -0.8784151673316956, -2.3018553256988525, 0.09881757199764252
14435, 0.11626140773296356, -0.14070093631744385, 0.09271262586116791, 0.11165155470371246, -0.1539476364850998, -0.05849694833159447, -0.002968352288007736, -0.003091666381806135, 0.9987656474113464, -0.87950199842453, -2.306260585784912, 0.09897559881210327, 0.0, 0.0, 0.0, 0, 0, 0, 0, 0, 0, -0.87950199842453, -2.306260585784912, 0.09897559881210327
14445, 0.11545326560735703, -0.14075617492198944, 0.09181658178567886, -0.10289116948843002, 0.12802298367023468, -0.07217282801866531, -0.0020750786643475294, -0.0015768548473715782, 1.0032402276992798, -0.8805894255638123, -2.3106701374053955, 0.0991336852312088, 0.0, 0.0, 0.0, 0, 0, 0, 0, 0, 0, -0.8805894255638123, -2.3106701374053955, 0.0991336852312088
14455, 0.11471366137266159, -0.14113210141658783, 0.0916043296456337, -0.04037152975797653, -0.24906742572784424, -0.0557088777422905, -0.002629114082083106, -0.0033093979582190514, 1.0000510215759277, -0.8816767334938049, -2.3150839805603027, 0.09929298609495163, 0.0, 0.0, 0.0, 0, 0, 0, 0, 0, 0, -0.8816767334938049, -2.3150839805603027, 0.09929298609495163
14465, 0.11517087370157242, -0.14018452167510986, 0.09257018566131592, 0.18740376830101013, -0.04399724304676056, 0.3013364374637604, -0.003576392075046897, -0.0008554704254493117, 0.999958336353302, -0.8827639818191528, -2.3195018768310547, 0.09945332258939743, 0.0, 0.0, 0.0, 0, 0, 0, 0, 0, 0, -0.8827639818191528, -2.3195018768310547, 0.09945332258939743
14475, 0.11612328141927719, -0.13884936273097992, 0.09238450974225998, 0.051828693598508835, 0.08903302252292633, 0.018560905009508133, -0.004124523606151342, -0.0019570402801036835, 0.999346137046814, -0.8838523030281067, -2.323923349380493, 0.09961337596178055, 0.0, 0.0, 0.0, 0, 0, 0, 0, 0, 0, -0.8838523030281067, -2.323923349380493, 0.09961337596178055
14485, 0.11655223369598389, -0.1396792083978653, 0.09261301159858704, 0.1626264750957489, 0.053652916103601456, 0.16621649265289307, -0.0033231538254767656, -0.0038045148830860853, 1.0004327297210693, -0.8849421143531799, -2.3283486366271973, 0.0997728705406189, 0.0, 0.0, 0.0, 0, 0, 0, 0, 0, 0, -0.8849421143531799, -2.3283486366271973, 0.0997728705406189
14495, 0.11624456942081451, -0.13925914466381073, 0.09114588052034378, 0.11393371969461441, -0.04312242940068245, -0.26943665742874146, -0.001223323168233037, -0.004039733204990625, 1.0010746717453003, -0.8860327005386353, -2.3327794075012207, 0.09993265569210052, 0.0, 0.0, 0.0, 0, 0, 0, 0, 0, 0, -0.8860327005386353, -2.3327794075012207, 0.09993265569210052
14505, 0.11699147522449493, -0.14003847539424896, 0.09094265103340149, -0.028809169307351112, 0.3453216254711151, -0.11033369600772858, 0.0008647031500004232, -0.00037947652162984014, 0.9984769225120544, -0.8871219158172607, -2.3372154235839844, 0.10009258985519409, 0.0, 0.0, 0.0, 0, 0, 0, 0, 0, 0, -0.8871219158172607, -2.3372154235839844, 0.10009258985519409
14515, 0.11635685712099075, -0.14094702899456024, 0.09081821143627167, -0.06796722859144211, 0.28316640853881836, 0.004357224330306053, -0.0016732057556509972, -0.0004426211817190051, 1.001538634300232, -0.88820880651474, -2.3416545391082764, 0.10025212913751602, 0.0, 0.0, 0.0, 0, 0, 0, 0, 0, 0, -0.88820880651474, -2.3416545391082764, 0.10025212913751602
14525, 0.11540194600820541, -0.14159439504146576, 0.09106030315160751, 0.022768698632717133, -0.01743529550731182, -0.13875742256641388, -0.003155105048790574, -0.003978609573096037, 1.003469467163086, -0.8892948627471924, -2.346096992492676, 0.10041282325983047, 0.0, 0.0, 0.0, 0, 0, 0, 0, 0, 0, -0.8892948627471924, -2.346096992492676, 0.10041282325983047
14535, 0.11530288308858871, -0.14310406148433685, 0.09031201153993607, 0.022711407393217087, 0.13558362424373627, -0.16239868104457855, -0.0030395789071917534, -0.005077090114355087, 1.000073790550232, -0.8903814554214478, -2.3505449295043945, 0.10057557374238968, 0.0, 0.0, 0.0, 0, 0, 0, 0, 0, 0, -0.8903814554214478, -2.3505449295043945, 0.10057557374238968
14545, 0.11576961725950241, -0.1447456032037735, 0.09025619179010391, 0.12412681430578232, -0.06094195321202278, -0.09180460125207901, -0.0009405219461768866, -0.003190593793988228, 0.9979080557823181, -0.8914679884910583, -2.354999303817749, 0.10073892772197723, 0.0, 0.0, 0.0, 0, 0, 0, 0, 0, 0, -0.8914679884910583, -2.354999303817749, 0.10073892772197723
14555, 0.11498171836137772, -0.14440712332725525, 0.09028434008359909, 0.025887394323945045, -0.11722754687070847, 0.33466777205467224, -0.0024203353095799685, -0.0021565963979810476, 0.9981828927993774, -0.8925535082817078, -2.359459161758423, 0.10090063512325287, 0.0, 0.0, 0.0, 0, 0, 0, 0, 0, 0, -0.8925535082817078, -2.359459161758423, 0.10090063512325287
14565, 0.1156260147690773, -0.14617414772510529, 0.09145537763834, 0.11258629709482193, 0.14115329086780548, -0.005191164091229439, -0.0018339718226343393, -0.0018734335899353027, 1.0001624822616577, -0.8936383128166199, -2.3639233112335205, 0.10106080025434494, 0.0, 0.0, 0.0, 0, 0, 0, 0, 0, 0, -0.8936383128166199, -2.3639233112335205, 0.10106080025434494
14575, 0.11572480946779251, -0.14508898556232452, 0.08988051861524582, -0.005037855356931686, -0.03501627594232559, 0.04878544062376022, -0.004566006828099489, -0.0036499849520623684, 1.0007022619247437, -0.8947232365608215, -2.368391513824463, 0.10122078657150269, 0.0, 0.0, 0.0, 0, 0, 0, 0, 0, 0, -0.8947232365608215, -2.368391513824463, 0.10122078657150269
14585, 0.11627167463302612, -0.14550194144248962, 0.08922334015369415, 0.039925433695316315, -0.026144148781895638, -0.20060430467128754, -0.004659556318074465, -0.006255387328565121, 1.000233769416809, -0.8958094716072083, -2.372865676879883, 0.1013810858130455, 0.0, 0.0, 0.0, 0, 0, 0, 0, 0, 0, -0.8958094716072083, -2.372865676879883, 0.1013810858130455
14595, 0.11747002601623535, -0.145766019821167, 0.09047234803438187, 0.07517088949680328, 0.2983710765838623, 0.122580885887146, -0.003221570048481226, -0.0029895687475800514, 1.0010820627212524, -0.8968978524208069, -2.3773467540740967, 0.10154163837432861, 0.0, 0.0, 0.0, 0, 0, 0, 0, 0, 0, -0.8968978524208069, -2.3773467540740967, 0.10154163837432861
14605, 0.11772792041301727, -0.14686565101146698, 0.09077029675245285, 0.1924559473991394, -0.06695208698511124, 0.16647851467132568, -0.0022521240171045065, -0.00308170635253191, 0.999552309513092, -0.8979872465133667, -2.381833791732788, 0.10170236229896545, 0.0, 0.0, 0.0, 0, 0, 0, 0, 0, 0, -0.8979872465133667, -2.381833791732788, 0.10170236229896545
14615, 0.11878865212202072, -0.1455962359905243, 0.09013892710208893, 0.3604116141796112, 0.02014126628637314, -0.09741836786270142, -0.0018587158992886543, -0.001669007819145918, 1.0027943849563599, -0.8990761637687683, -2.3863255977630615, 0.10186387598514557, 0.0, 0.0, 0.0, 0, 0, 0, 0, 0, 0, -0.8990761637687683, -2.3863255977630615, 0.10186387598514557
14625, 0.11855179071426392, -0.14442047476768494, 0.09047611057758331, 0.022621721029281616, -0.2361888736486435, -0.05305284261703491, -0.004951372276991606, -0.005150597542524338, 1.0013903379440308, -0.9001651406288147, -2.390822172164917, 0.10202696174383163, 0.0, 0.0, 0.0, 0, 0, 0, 0, 0, 0, -0.9001651406288147, -2.390822172164917, 0.10202696174383163
14635, 0.11876092106103897, -0.14449171721935272, 0.09019984304904938, 0.07054483890533447, 0.08871863782405853, -0.003148965537548065, -0.0037953860592097044, -0.0037462401669472456, 1.0004609823226929, -0.9012554287910461, -2.395324468612671, 0.10219179838895798, 0.0, 0.0, 0.0, 0, 0, 0, 0, 0, 0, -0.9012554287910461, -2.395324468612671, 0.10219179838895798
14645, 0.11809277534484863, -0.14351730048656464, 0.09022165834903717, 0.09307098388671875, 0.1664559543132782, 0.02336275205016136, -0.0034000175073742867, -0.0041391667909920216, 1.0008608102798462, -0.9023472666740417, -2.3998329639434814, 0.10235748440027237, 0.0, 0.0, 0.0, 0, 0, 0, 0, 0, 0, -0.9023472666740417, -2.3998329639434814, 0.10235748440027237
14655, 0.11868921667337418, -0.1457049399614334, 0.0898420587182045, -0.2435305416584015, -0.06414825469255447, 0.12663236260414124, -0.003341370029374957, -0.0013127594720572233, 1.0006294250488281, -0.9034401774406433, -2.4043471813201904, 0.10252338647842407, 0.0, 0.0, 0.0, 0, 0, 0, 0, 0, 0, -0.9034401774406433, -2.4043471813201904, 0.10252338647842407
14665, 0.11821446567773819, -0.14656993746757507, 0.0891035720705986, 0.013688294216990471, 0.4703320860862732, -0.06679851561784744, -0.004465328995138407, -0.002038044622167945, 1.0002340078353882, -0.904533863067627, -2.408865451812744, 0.10268961638212204, 0.0, 0.0, 0.0, 0, 0, 0, 0, 0, 0, -0.904533863067627, -2.408865451812744, 0.10268961638212204
14675, 0.11829598993062973, -0.14836661517620087, 0.08979853987693787, 0.049342263489961624, -0.06066117808222771, 0.016214892268180847, -0.004329008050262928, -0.0034200071822851896, 1.0026962757110596, -0.9056291580200195, -2.4133880138397217, 0.10285692662000656, 0.0, 0.0, 0.0, 0, 0, 0, 0, 0, 0, -0.9056291580200195, -2.4133880138397217, 0.10285692662000656
14685, 0.11816935241222382, -0.14827591180801392, 0.08929124474525452, -0.0521300807595253, 0.026075441390275955, -0.3324868083000183, -0.005043528974056244, -0.003142343834042549, 0.9993686079978943, -0.9067268371582031, -2.4179155826568604, 0.10302577912807465, 0.0, 0.0, 0.0, 0, 0, 0, 0, 0, 0, -0.9067268371582031, -2.4179155826568604, 0.10302577912807465
14695, 0.11766775697469711, -0.14948886632919312, 0.0878322646021843, 0.04423801228404045, 0.07551572471857071, 0.03408725932240486, -0.0032757145818322897, -0.0033381811808794737, 0.9984666705131531, -0.9078265428543091, -2.422447919845581, 0.1031946986913681, 0.0, 0.0, 0.0, 0, 0, 0, 0, 0, 0, -0.9078265428543091, -2.422447919845581, 0.1031946986913681
14705, 0.11822109669446945, -0.15063051879405975, 0.08855324983596802, -0.00029968665330670774, -0.03600563481450081, -0.044637247920036316, -0.0032210417557507753, -0.0036741718649864197, 1.0023008584976196, -0.9089273810386658, -2.426985502243042, 0.10336295515298843, 0.0, 0.0, 0.0, 0, 0, 0, 0, 0, 0, -0.9089273810386658, -2.426985502243042, 0.10336295515298843
14715, 0.11819674074649811, -0.14986218512058258, 0.0898255705833435, 0.15123771131038666, -0.11634236574172974, 0.11754103004932404, -0.00356825883500278, -0.00432378938421607, 1.0021896362304688, -0.9100287556648254, -2.4315290451049805, 0.103532575070858, 0.0, 0.0, 0.0, 0, 0, 0, 0, 0, 0, -0.9100287556648254, -2.4315290451049805, 0.103532575070858
14725, 0.11822509765625, -0.1511967033147812, 0.09006766974925995, 0.020517755299806595, 0.24385985732078552, 0.1335923671722412, -0.004678189754486084, -0.004025350324809551, 1.000964879989624, -0.9111313819885254, -2.4360785484313965, 0.10370440036058426, 0.0, 0.0, 0.0, 0, 0, 0, 0, 0, 0, -0.9111313819885254, -2.4360785484313965, 0.10370440036058426
14735, 0.11883570998907089, -0.1510373055934906, 0.09062565118074417, 0.15516388416290283, -0.3455265462398529, 0.014970493502914906, -0.002948539797216654, -0.0023180190473794937, 0.9992489218711853, -0.9122353792190552, -2.440633773803711, 0.10387702286243439, 0.0, 0.0, 0.0, 0, 0, 0, 0, 0, 0, -0.9122353792190552, -2.440633773803711, 0.10387702286243439
14745, 0.11808325350284576, -0.15334777534008026, 0.08994481712579727, -0.1125323697924614, 0.28197863698005676, 0.0665021538734436, -0.0025937519967556, -0.003733987919986248, 1.0000807046890259, -0.9133399128913879, -2.4451940059661865, 0.10404946655035019, 0.0, 0.0, 0.0, 0, 0, 0, 0, 0, 0, -0.9133399128913879, -2.4451940059661865, 0.10404946655035019
14755, 0.11833343654870987, -0.1526845395565033, 0.08897797018289566, -0.13096976280212402, -0.1310247927904129, -0.3180248737335205, -0.002019894542172551, -0.003731686156243086, 0.9973647594451904, -0.9144442677497864, -2.4497597217559814, 0.10422106832265854, 0.0, 0.0, 0.0, 0, 0, 0, 0, 0, 0, -0.9144442677497864, -2.4497597217559814, 0.10422106832265854
14765, 0.11854200810194016, -0.15107865631580353, 0.08808769285678864, 0.18491089344024658, -0.19970673322677612, -0.03327612951397896, -0.0027899262495338917, -0.002359100617468357, 0.999451756477356, -0.9155482649803162, -2.454331159591675, 0.1043912023305893, 0.0, 0.0, 0.0, 0, 0, 0, 0, 0, 0, -0.9155482649803162, -2.454331159591675, 0.1043912023305893
14775, 0.11938045173883438, -0.15168914198875427, 0.08744019269943237, -0.08931189030408859, 0.2459452897310257, 0.2439194917678833, -0.003759060287848115, -0.00381833384744823, 1.0010265111923218, -0.9166525602340698, -2.4589076042175293, 0.10456076264381409, 0.0, 0.0, 0.0, 0, 0, 0, 0, 0, 0, -0.9166525602340698, -2.4589076042175293, 0.10456076264381409
14785, 0.11879388242959976, -0.15222908556461334, 0.08874350786209106, -0.14764434099197388, 0.16142450273036957, 0.018397275358438492, -0.004121503792703152, -0.0022353690583258867, 1.0008842945098877, -0.9177579283714294, -2.463489055633545, 0.10473105311393738, 0.0, 0.0, 0.0, 0, 0, 0, 0, 0, 0, -0.9177579283714294, -2.463489055633545, 0.10473105311393738
14795, 0.1198219358921051, -0.15309222042560577, 0.08922544121742249, 0.09853959828615189, -0.06333760172128677, 0.012925385497510433, -0.0032435189932584763, -0.0025518485344946384, 1.0013868808746338, -0.9188644289970398, -2.4680750370025635, 0.10490232706069946, 0.0, 0.0, 0.0, 0, 0, 0, 0, 0, 0, -0.9188644289970398, -2.4680750370025635, 0.10490232706069946
14805, 0.11959976702928543, -0.15242542326450348, 0.08917379379272461, -0.035945914685726166, -0.0047734822146594524, -0.17880059778690338, -0.003363558789715171, -0.004714831244200468, 1.0007542371749878, -0.9199718236923218, -2.472666025161743, 0.10507486015558243, 0.0, 0.0, 0.0, 0, 0, 0, 0, 0, 0, -0.9199718236923218, -2.472666025161743, 0.10507486015558243
14815, 0.11951729655265808, -0.1508558839559555, 0.08854154497385025, 0.21724194288253784, 0.07304762303829193, 0.0975005254149437, -0.0020856305491179228, -0.0035148155875504017, 1.000056505203247, -0.9210795164108276, -2.4772627353668213, 0.1052481159567833, 0.0, 0.0, 0.0, 0, 0, 0, 0, 0, 0, -0.9210795164108276, -2.4772627353668213, 0.1052481159567833
14825, 0.11919078230857849, -0.15262755751609802, 0.08828455954790115, 0.018794378265738487, -0.027958888560533524, -0.11945869773626328, -0.0014299886533990502, -0.002712718676775694, 1.0017526149749756, -0.9221867918968201, -2.481865167617798, 0.10542166978120804, 0.0, 0.0, 0.0, 0, 0, 0, 0, 0, 0, -0.9221867918968201, -2.481865167617798, 0.10542166978120804
14835, 0.11984375864267349, -0.15494376420974731, 0.08862148970365524, 0.05490360036492348, 0.12379907816648483, 0.07754261046648026, -0.0029074186459183693, -0.0008319300250150263, 1.0000563859939575, -0.9232932925224304, -2.4864718914031982, 0.10559634119272232, 0.0, 0.0, 0.0, 0, 0, 0, 0, 0, 0, -0.9232932925224304, -2.4864718914031982, 0.10559634119272232
14845, 0.1196460872888565, -0.1568411886692047, 0.08934959769248962, -0.06631331890821457, 0.03781696781516075, 0.10510022938251495, -0.0013184379786252975, -0.0026785756926983595, 0.9986004829406738, -0.9243994951248169, -2.491081953048706, 0.10577140748500824, 0.0, 0.0, 0.0, 0, 0, 0, 0, 0, 0, -0.9243994951248169, -2.491081953048706, 0.10577140748500824
14855, 0.11959493905305862, -0.15799488127231598, 0.0903930515050888, -0.006800064817070961, 0.5147240161895752, 0.10296159982681274, -0.0017971189226955175, -0.004833921790122986, 1.0002402067184448, -0.9255048632621765, -2.495696783065796, 0.10594583302736282, 0.0, 0.0, 0.0, 0, 0, 0, 0, 0, 0, -0.9255048632621765, -2.495696783065796, 0.10594583302736282
14865, 0.11852258443832397, -0.15926562249660492, 0.08972467482089996, 0.05723971500992775, -0.06005801260471344, -0.1737767457962036, -0.002484191907569766, -0.0032162133138626814, 0.9995559453964233, -0.926609218120575, -2.5003178119659424, 0.10612007230520248, 0.0, 0.0, 0.0, 0, 0, 0, 0, 0, 0, -0.926609218120575, -2.5003178119659424, 0.10612007230520248
14875, 0.11812115460634232, -0.16152556240558624, 0.08987629413604736, -0.08030854165554047, 0.3138304352760315, 0.04792901128530502, -0.0031776719260960817, -0.0024723175447434187, 1.0002580881118774, -0.9277133345603943, -2.5049445629119873, 0.10629460215568542, 0.0, 0.0, 0.0, 0, 0, 0, 0, 0, 0, -0.9277133345603943, -2.5049445629119873, 0.10629460215568542
14885, 0.11815927922725677, -0.16186964511871338, 0.0902121365070343, 0.009129495359957218, 0.19157758355140686, -0.037339407950639725, -0.0022481996566057205, -0.0029304034542292356, 1.0016214847564697, -0.9288176894187927, -2.509575843811035, 0.10646972060203552, 0.0, 0.0, 0.0, 0, 0, 0, 0, 0, 0, -0.9288176894187927, -2.509575843811035, 0.10646972060203552
14895, 0.11870754510164261, -0.16303300857543945, 0.09042342752218246, -0.0705915316939354, -0.11344275623559952, -0.011078507639467716, 8.553403313271701e-05, 0.0002067371824523434, 0.9994635581970215, -0.9299214482307434, -2.514211416244507, 0.10664547234773636, 0.0, 0.0, 0.0, 0, 0, 0, 0, 0, 0, -0.9299214482307434, -2.514211416244507, 0.10664547234773636
14905, 0.11983276903629303, -0.1638769805431366, 0.08984645456075668, 0.0202336423099041, 0.06140640750527382, 0.009379623457789421, -0.0027648997493088245, -0.0033812045585364103, 0.9986974000930786, -0.9310231804847717, -2.518850564956665, 0.10682128369808197, 0.0, 0.0, 0.0, 0, 0, 0, 0, 0, 0, -0.9310231804847717, -2.518850564956665, 0.10682128369808197
14915, 0.12048719823360443, -0.16438482701778412, 0.09045936167240143, 0.08603846281766891, -0.011641101911664009, -0.2109091579914093, -0.0003901020099874586, -0.004664548672735691, 0.9975171089172363, -0.9321231842041016, -2.523494243621826, 0.10699593275785446, 0.0, 0.0, 0.0, 0, 0, 0, 0, 0, 0, -0.9321231842041016, -2.523494243621826, 0.10699593275785446
14925, 0.12092112749814987, -0.1640952229499817, 0.0905066579580307, -0.011112751439213753, -0.08650457859039307, 0.05604593828320503, -0.002078806981444359, -0.00252419407479465, 0.9971064329147339, -0.9332218766212463, -2.5281436443328857, 0.10716786980628967, 0.0, 0.0, 0.0, 0, 0, 0, 0, 0, 0, -0.9332218766212463, -2.5281436443328857, 0.10716786980628967
14935, 0.12127535045146942, -0.16418617963790894, 0.090077705681324, 0.04347441345453262, -0.31573686003685, 0.08749363571405411, -0.0019871292170137167, -0.0018787665758281946, 0.9996400475502014, -0.934319257736206, -2.5327980518341064, 0.1073373407125473, 0.0, 0.0, 0.0, 0, 0, 0, 0, 0, 0, -0.934319257736206, -2.5327980518341064, 0.1073373407125473
14945, 0.12007645517587662, -0.16219104826450348, 0.09014344215393066, 0.06116705760359764, -0.18077954649925232, 0.1526046246290207, -0.0018149926327168941, -0.003111910540610552, 1.0007190704345703, -0.9354157447814941, -2.537456750869751, 0.1075061708688736, 0.0, 0.0, 0.0, 0, 0, 0, 0, 0, 0, -0.9354157447814941, -2.537456750869751, 0.1075061708688736
14955, 0.1211315467953682, -0.16031239926815033, 0.08992936462163925, 0.010446136817336082, -0.13085755705833435, -0.0794445127248764, -0.00503262085840106, -0.003859113436192274, 0.9981368184089661, -0.9365119338035583, -2.5421204566955566, 0.10767462849617004, 0.0, 0.0, 0.0, 0, 0, 0, 0, 0, 0, -0.9365119338035583, -2.5421204566955566, 0.10767462849617004
14965, 0.12222687155008316, -0.16167128086090088, 0.09002470225095749, 0.038975510746240616, 0.21614359319210052, 0.14845775067806244, -0.001909573096781969, -0.002738859737291932, 1.000140905380249, -0.9376088380813599, -2.5467898845672607, 0.1078423336148262, 0.0, 0.0, 0.0, 0, 0, 0, 0, 0, 0, -0.9376088380813599, -2.5467898845672607, 0.1078423336148262
14975, 0.1228959858417511, -0.16192734241485596, 0.09155040979385376, 0.243553027510643, 0.007631067652255297, 0.05271730199456215, -0.00240582344122231, -0.0013662073761224747, 1.0002353191375732, -0.9387059807777405, -2.551464080810547, 0.1080099567770958, 0.0, 0.0, 0.0, 0, 0, 0, 0, 0, 0, -0.9387059807777405, -2.551464080810547, 0.1080099567770958
14985, 0.12289638817310333, -0.16288606822490692, 0.09193100035190582, -0.1372828185558319, 0.21841396391391754, 0.16633003950119019, -0.00245677656494081, -0.0033350966405123472, 1.0003052949905396, -0.9398025274276733, -2.5561423301696777, 0.10817831754684448, 0.0, 0.0, 0.0, 0, 0, 0, 0, 0, 0, -0.9398025274276733, -2.5561423301696777, 0.10817831754684448
14995, 0.12201514840126038, -0.16115544736385345, 0.09139607846736908, -0.0672760158777237, -0.08090771734714508, -0.15711073577404022, -0.002843264490365982, -0.0036711308639496565, 0.9988992810249329, -0.9408986568450928, -2.5608253479003906, 0.10834699124097824, 0.0, 0.0, 0.0, 0, 0, 0, 0, 0, 0, -0.9408986568450928, -2.5608253479003906, 0.10834699124097824
15005, 0.12132628262042999, -0.1634211540222168, 0.0907009020447731, 0.01145972777158022, 0.1177193820476532, -0.14701621234416962, -0.0026882358361035585, -0.0040857065469026566, 1.0003409385681152, -0.9419946670532227, -2.56551456451416, 0.10851510614156723, 0.0, 0.0, 0.0, 0, 0, 0, 0, 0, 0, -0.9419946670532227, -2.56551456451416, 0.10851510614156723
15015, 0.12106301635503769, -0.16303054988384247, 0.09011407941579819, -0.014658468775451183, 0.10029981285333633, 0.0685650035738945, -0.0022286116145551205, -0.0011997694382444024, 1.000319242477417, -0.9430906176567078, -2.57020902633667, 0.10868316143751144, 0.0, 0.0, 0.0, 0, 0, 0, 0, 0, 0, -0.9430906176567078, -2.57020902633667, 0.10868316143751144
15025, 0.12122360616922379, -0.16420027613639832, 0.0913105234503746, 0.02114715613424778, -0.047103699296712875, 0.18301621079444885, -0.0016619071830064058, -0.0011474068742245436, 1.0007498264312744, -0.9441860914230347, -2.574907064437866, 0.10885155946016312, 0.0, 0.0, 0.0, 0, 0, 0, 0, 0, 0, -0.9441860914230347, -2.574907064437866, 0.10885155946016312
15035, 0.12039875239133835, -0.16384868323802948, 0.09130624681711197, -0.0578005313873291, 0.03221355378627777, 0.08877881616353989, -0.0033107593189924955, -0.00485907681286335, 0.9999159574508667, -0.9452807307243347, -2.5796091556549072, 0.10902027785778046, 0.0, 0.0, 0.0, 0, 0, 0, 0, 0, 0, -0.9452807307243347, -2.5796091556549072, 0.10902027785778046
15045, 0.12041410803794861, -0.1635010838508606, 0.09142322838306427, -0.09991705417633057, 0.14481621980667114, 0.13049660623073578, -0.004584011156111956, -0.004653293639421463, 1.0013201236724854, -0.9463757276535034, -2.584317207336426, 0.10918959975242615, 0.0, 0.0, 0.0, 0, 0, 0, 0, 0, 0, -0.9463757276535034, -2.584317207336426, 0.10918959975242615
15055, 0.11966434866189957, -0.16424648463726044, 0.09097085893154144, -0.11968721449375153, 0.12149105966091156, -0.19021393358707428, -0.0035610178019851446, -0.0052397907711565495, 1.002508521080017, -0.9474720358848572, -2.5890324115753174, 0.10936003178358078, 0.0, 0.0, 0.0, 0, 0, 0, 0, 0, 0, -0.9474720358848572, -2.5890324115753174, 0.10936003178358078
15065, 0.11881820112466812, -0.16399751603603363, 0.090586818754673, -0.12771692872047424, 0.05896005779504776, -0.09536083042621613, -0.0036861877888441086, -0.002785090822726488, 0.9990603923797607, -0.9485694766044617, -2.593754291534424, 0.10953190177679062, 0.0, 0.0, 0.0, 0, 0, 0, 0, 0, 0, -0.9485694766044617, -2.593754291534424, 0.10953190177679062
15075, 0.11897475272417068, -0.16547667980194092, 0.08886486291885376, -0.054261960089206696, 0.044674791395664215, -0.13474300503730774, -0.0028461432084441185, -0.003387740347534418, 0.9996486902236938, -0.9496676921844482, -2.5984816551208496, 0.10970376431941986, 0.0, 0.0, 0.0, 0, 0, 0, 0, 0, 0, -0.9496676921844482, -2.5984816551208496, 0.10970376431941986
15085, 0.11945637315511703, -0.16683107614517212, 0.0913974791765213, 0.012868191115558147, 0.3371075987815857, 0.2633283734321594, -0.002531062811613083, -0.0019492548890411854, 1.0002607107162476, -0.9507661461830139, -2.6032140254974365, 0.10987521708011627, 0.0, 0.0, 0.0, 0, 0, 0, 0, 0, 0, -0.9507661461830139, -2.6032140254974365, 0.10987521708011627
15095, 0.11923354864120483, -0.16648995876312256, 0.09099379181861877, -0.003899420378729701, -0.06302513927221298, -0.08969242125749588, -0.0013419684255495667, -0.0006674709147773683, 1.001719355583191, -0.9518638849258423, -2.607950448989868, 0.11004727333784103, 0.0, 0.0, 0.0, 0, 0, 0, 0, 0, 0, -0.9518638849258423, -2.607950448989868, 0.11004727333784103
15105, 0.11976413428783417, -0.16586564481258392, 0.09085740149021149, 0.1103556752204895, -0.07796885818243027, 0.05014456436038017, -0.004264499992132187, -0.0017088506137952209, 1.000020146369934, -0.952960729598999, -2.6126902103424072, 0.11022008955478668, 0.0, 0.0, 0.0, 0, 0, 0, 0, 0, 0, -0.952960729598999, -2.6126902103424072, 0.11022008955478668
15115, 0.11989327520132065, -0.16590562462806702, 0.0910956859588623, 0.15190082788467407, 0.26640909910202026, -0.03575076535344124, -0.0033609068486839533, -0.0014330297708511353, 1.001021146774292, -0.9540578126907349, -2.6174328327178955, 0.11039355397224426, 0.0, 0.0, 0.0, 0, 0, 0, 0, 0, 0, -0.9540578126907349, -2.6174328327178955, 0.11039355397224426
15125, 0.11941205710172653, -0.1660400927066803, 0.09171822667121887, -0.07186733186244965, -0.14252746105194092, 0.029385633766651154, -0.002136180642992258, -0.00220285402610898, 1.000653624534607, -0.9551553130149841, -2.6221790313720703, 0.11056764423847198, 0.0, 0.0, 0.0, 0, 0, 0, 0, 0, 0, -0.9551553130149841, -2.6221790313720703, 0.11056764423847198
15135, 0.1190909743309021, -0.16442717611789703, 0.09092912077903748, -0.039355114102363586, -0.26200392842292786, 0.03616558387875557, -0.004601289518177509, -0.002606261521577835, 1.0007493495941162, -0.9562526345252991, -2.626929521560669, 0.11074227839708328, 0.0, 0.0, 0.0, 0, 0, 0, 0, 0, 0, -0.9562526345252991, -2.626929521560669, 0.11074227839708328
15145, 0.1193915382027626, -0.16413794457912445, 0.09222117811441422, 0.18076123297214508, -0.18566595017910004, 0.11295681446790695, -0.0023224405013024807, -0.0002457306254655123, 1.0000628232955933, -0.9562526345252991, -2.626929521560669, 0.11074227839708328, 0.0, 0.0, 0.0, 0, 0, 0, 0, 0, 0, -0.9574602842330933, -2.63215970993042, 0.11093506962060928
15155, 0.11970679461956024, -0.1640363484621048, 0.09134388715028763, -0.010188359767198563, 0.1829044371843338, -0.0977335274219513, -0.003941263072192669, -0.0039520119316875935, 1.000119686126709, -0.9585587978363037, -2.636918544769287, 0.11111071705818176, 0.0, 0.0, 0.0, 0, 0, 0, 0, 0, 0, -0.9585587978363037, -2.636918544769287, 0.11111071705818176
15165, 0.1201750636100769, -0.16408152878284454, 0.09292567521333694, -0.11619871854782104, -0.18672391772270203, 0.03242688626050949, -0.0029693536926060915, -0.0025043829809874296, 1.0022850036621094, -0.9585587978363037, -2.636918544769287, 0.11111071705818176, 0.0, 0.0, 0.0, 0, 0, 0, 0, 0, 0, -0.9596577882766724, -2.6416821479797363, 0.11128703504800797
15175, 0.11982792615890503, -0.1641693115234375, 0.0919642299413681, 0.08710927516222, -0.15209780633449554, 0.016575414687395096, -0.0013971349690109491, -0.0021975995041429996, 1.0015122890472412, -0.9607568383216858, -2.6464505195617676, 0.11146493256092072, 0.0, 0.0, 0.0, 0, 0, 0, 0, 0, 0, -0.9607568383216858, -2.6464505195617676, 0.11146493256092072
15185, 0.11927119642496109, -0.1629304587841034, 0.09135903418064117, -0.024195469915866852, 0.15537555515766144, -0.060891781002283096, -0.002604040550068021, -0.005031092092394829, 1.0003570318222046, -0.9607568383216858, -2.6464505195617676, 0.11146493256092072, 0.0, 0.0, 0.0, 0, 0, 0, 0, 0, 0, -0.9618548154830933, -2.651223659515381, 0.11164410412311554
15195, 0.11864717304706573, -0.1637372225522995, 0.09237050265073776, -0.203370600938797, 0.23368805646896362, 0.11044302582740784, -0.001974764047190547, -0.00354979420080781, 1.0006670951843262, -0.9618548154830933, -2.651223659515381, 0.11164410412311554, 0.0, 0.0, 0.0, 0, 0, 0, 0, 0, 0, -0.9629520773887634, -2.6560025215148926, 0.11182380467653275
15205, 0.11845128238201141, -0.1636953502893448, 0.09190694242715836, -0.12918104231357574, 0.12407021224498749, 0.26519259810447693, -0.002856313018128276, -0.00425870344042778, 0.9998025894165039, -0.9629520773887634, -2.6560025215148926, 0.11182380467653275, 0.0, 0.0, 0.0, 0, 0, 0, 0, 0, 0, -0.9641582369804382, -2.661266326904297, 0.11202149093151093
15215, 0.11890608817338943, -0.1648792177438736, 0.09314059466123581, 0.06963086873292923, 0.21410484611988068, 0.16538967192173004, -0.0021652982104569674, -0.0038703365717083216, 1.0012202262878418, -0.9641582369804382, -2.661266326904297, 0.11202149093151093, 0.0, 0.0, 0.0, 0, 0, 0, 0, 0, 0, -0.9652540683746338, -2.666057825088501, 0.11220162361860275
15225, 0.11853960901498795, -0.1660667359828949, 0.09336719661951065, -0.00639125844463706, 0.011813322082161903, -0.11688342690467834, -0.001214293879456818, -0.0030910540372133255, 0.998863160610199, -0.9652540683746338, -2.666057825088501, 0.11220162361860275, 0.0, 0.0, 0.0, 0, 0, 0, 0, 0, 0, -0.966349184513092, -2.6708550453186035, 0.11238209903240204
15235, 0.12040607631206512, -0.16508451104164124, 0.09311790764331818, 0.1363234519958496, -0.0818309560418129, 0.10547681152820587, -0.003087906399741769, -0.00333665800280869, 1.0011974573135376, -0.966349184513092, -2.6708550453186035, 0.11238209903240204, 0.0, 0.0, 0.0, 0, 0, 0, 0, 0, 0, -0.9674432873725891, -2.6756575107574463, 0.11256270855665207
15245, 0.12107091397047043, -0.16384978592395782, 0.09350305050611496, 0.351582795381546, -0.15974093973636627, -0.06016125902533531, -0.002655144315212965, -0.002526606898754835, 1.0013010501861572, -0.9674432873725891, -2.6756575107574463, 0.11256270855665207, 0.0, 0.0, 0.0, 0, 0, 0, 0, 0, 0, -0.9685370326042175, -2.68046498298645, 0.11274424195289612
15255, 0.12100035697221756, -0.16448251903057098, 0.09284252673387527, -0.09906437993049622, 0.05821322277188301, -0.05133170634508133, -0.0014737319434061646, -0.004039364401251078, 0.999173641204834, -0.9685370326042175, -2.68046498298645, 0.11274424195289612, 0.0, 0.0, 0.0, 0, 0, 0, 0, 0, 0, -0.9696303606033325, -2.6852777004241943, 0.11292661726474762
15265, 0.1221529096364975, -0.16363143920898438, 0.09251132607460022, 0.1676388829946518, 0.1067018136382103, -0.1258203536272049, -0.0012200436322018504, -0.000674736627843231, 0.9982333779335022, -0.9696303606033325, -2.6852777004241943, 0.11292661726474762, 0.0, 0.0, 0.0, 0, 0, 0, 0, 0, 0, -0.9707223773002625, -2.6900954246520996, 0.11310803890228271
15275, 0.12284203618764877, -0.1638503223657608, 0.09364771097898483, 0.04620886221528053, 0.009186580777168274, -0.03266677260398865, -0.0019342865562066436, -3.634286986198276e-05, 1.0008262395858765, -0.9707223773002625, -2.6900954246520996, 0.11310803890228271, 0.0, 0.0, 0.0, 0, 0, 0, 0, 0, 0, -0.9718131422996521, -2.694916248321533, 0.11328844726085663
15285, 0.12341485172510147, -0.16324090957641602, 0.09269849210977554, 0.1047283187508583, -0.2673437297344208, 0.06596966832876205, -0.003243284998461604, -0.0021791779436171055, 1.0003972053527832, -0.9718131422996521, -2.694916248321533, 0.11328844726085663, 0.0, 0.0, 0.0, 0, 0, 0, 0, 0, 0, -0.9729034304618835, -2.699739933013916, 0.11346926540136337
15295, 0.12360669672489166, -0.16307592391967773, 0.09275973588228226, 0.09463446587324142, -0.04762863740324974, 0.00594601035118103, -0.0012644946109503508, -0.0025361166335642338, 1.001721739768982, -0.9729034304618835, -2.699739933013916, 0.11346926540136337, 0.0, 0.0, 0.0, 0, 0, 0, 0, 0, 0, -0.9739930629730225, -2.7045679092407227, 0.11365071684122086
15305, 0.12491033226251602, -0.16217973828315735, 0.09373757988214493, 0.19319255650043488, -0.21986328065395355, 0.15494517982006073, -0.002308550290763378, -0.004034941550344229, 1.0007259845733643, -0.9739930629730225, -2.7045679092407227, 0.11365071684122086, 0.0, 0.0, 0.0, 0, 0, 0, 0, 0, 0, -0.9750815629959106, -2.7094008922576904, 0.11383308470249176
15315, 0.1239832267165184, -0.16365361213684082, 0.09321721643209457, -0.07002190500497818, 0.120029978454113, -0.0966850221157074, -0.003694812534376979, -0.004205137025564909, 0.9969395399093628, -0.9750815629959106, -2.7094008922576904, 0.11383308470249176, 0.0, 0.0, 0.0, 0, 0, 0, 0, 0, 0, -0.9761696457862854, -2.7142398357391357, 0.11401531845331192
15325, 0.12376867979764938, -0.16387541592121124, 0.09310135990381241, 0.028919722884893417, 0.13237585127353668, 0.06853777915239334, -0.00259377365000546, -0.006312621291726828, 0.9992777109146118, -0.9761696457862854, -2.7142398357391357, 0.11401531845331192, 0.0, 0.0, 0.0, 0, 0, 0, 0, 0, 0, -0.9772580862045288, -2.719085454940796, 0.11419568955898285
15335, 0.1238025650382042, -0.16614440083503723, 0.09351737797260284, 0.1352284699678421, 0.18768011033535004, 0.017950376495718956, -0.0019284628797322512, -0.002568418625742197, 1.0010303258895874, -0.9772580862045288, -2.719085454940796, 0.11419568955898285, 0.0, 0.0, 0.0, 0, 0, 0, 0, 0, 0, -0.9783462285995483, -2.72393798828125, 0.11437538266181946
15345, 0.12496653199195862, -0.1666385382413864, 0.09378646314144135, 0.13182197511196136, -0.00877480860799551, 0.003998999483883381, -0.0018343536648899317, -0.0007812246913090348, 1.0003612041473389, -0.9783462285995483, -2.72393798828125, 0.11437538266181946, 0.0, 0.0, 0.0, 0, 0, 0, 0, 0, 0, -0.979433536529541, -2.7287955284118652, 0.11455599963665009
15355, 0.1246420219540596, -0.16812469065189362, 0.09396293759346008, 0.023738622665405273, 0.32257163524627686, 0.16843117773532867, -0.004901723936200142, -0.0032104295678436756, 0.9995799660682678, -0.979433536529541, -2.7287955284118652, 0.11455599963665009, 0.0, 0.0, 0.0, 0, 0, 0, 0, 0, 0, -0.9805208444595337, -2.733657121658325, 0.1147368848323822
15365, 0.12523940205574036, -0.1688319742679596, 0.09405864775180817, 0.1819525957107544, 0.21292603015899658, -0.10925920307636261, -0.002916585421189666, -0.000968826119787991, 0.9990161061286926, -0.9805208444595337, -2.733657121658325, 0.1147368848323822, 0.0, 0.0, 0.0, 0, 0, 0, 0, 0, 0, -0.981609046459198, -2.738523006439209, 0.11491726338863373
15375, 0.12402375787496567, -0.1684771329164505, 0.09452682733535767, 0.01364529225975275, -0.0547032356262207, 0.1702447533607483, -0.0023295909631997347, -0.0035433343145996332, 0.9990039467811584, -0.981609046459198, -2.738523006439209, 0.11491726338863373, 0.0, 0.0, 0.0, 0, 0, 0, 0, 0, 0, -0.9826976656913757, -2.7433929443359375, 0.11509691923856735
15385, 0.12395718693733215, -0.16780135035514832, 0.09382539987564087, 0.04856473207473755, 0.09682092815637589, -0.17452487349510193, -0.0019721908029168844, -0.004507455509155989, 0.9984264969825745, -0.9826976656913757, -2.7433929443359375, 0.11509691923856735, 0.0, 0.0, 0.0, 0, 0, 0, 0, 0, 0, -0.9837858080863953, -2.7482683658599854, 0.11527550220489502
15395, 0.12410154193639755, -0.16703641414642334, 0.09348658472299576, 0.11380806565284729, -0.3320755660533905, -0.07180582731962204, -0.004997723735868931, -0.0022133521270006895, 1.0002418756484985, -0.9837858080863953, -2.7482683658599854, 0.11527550220489502, 0.0, 0.0, 0.0, 0, 0, 0, 0, 0, 0, -0.9848740696907043, -2.7531497478485107, 0.11545338481664658
15405, 0.1242857575416565, -0.16783607006072998, 0.0954623892903328, -0.05353489890694618, 0.214241623878479, 0.26793864369392395, -0.004129810258746147, -0.004004440736025572, 1.0002039670944214, -0.9848740696907043, -2.7531497478485107, 0.11545338481664658, 0.0, 0.0, 0.0, 0, 0, 0, 0, 0, 0, -0.9859637022018433, -2.7580363750457764, 0.11563119292259216
15415, 0.12342195212841034, -0.16713227331638336, 0.09526058286428452, -0.01654883660376072, -0.09038624167442322, -0.0612434558570385, -0.0019520825007930398, -0.0025967168621718884, 1.0015019178390503, -0.9859637022018433, -2.7580363750457764, 0.11563119292259216, 0.0, 0.0, 0.0, 0, 0, 0, 0, 0, 0, -0.9870540499687195, -2.7629282474517822, 0.1158096194267273
15425, 0.12303981930017471, -0.16699227690696716, 0.09679901599884033, -0.1015121340751648, 0.11324500292539597, 0.3057937026023865, -0.002539572073146701, -0.0016303686425089836, 0.9993615746498108, -0.9870540499687195, -2.7629282474517822, 0.1158096194267273, 0.0, 0.0, 0.0, 0, 0, 0, 0, 0, 0, -0.988144040107727, -2.767824649810791, 0.11598868668079376
15435, 0.12347768992185593, -0.16751201450824738, 0.09734881669282913, 0.10106343030929565, 0.09794574230909348, 0.03341607004404068, -0.00342409685254097, -0.0024749161675572395, 0.9989781975746155, -0.988144040107727, -2.767824649810791, 0.11598868668079376, 0.0, 0.0, 0.0, 0, 0, 0, 0, 0, 0, -0.989233672618866, -2.7727253437042236, 0.11616706848144531
15445, 0.12347516417503357, -0.16658222675323486, 0.09691306203603745, 0.0013359858421608806, -0.19975683093070984, -0.07885342836380005, -0.002891028765588999, -0.0034761521965265274, 1.0000522136688232, -0.989233672618866, -2.7727253437042236, 0.11616706848144531, 0.0, 0.0, 0.0, 0, 0, 0, 0, 0, 0, -0.9903233051300049, -2.7776308059692383, 0.11634480953216553
15455, 0.1236649826169014, -0.16720376908779144, 0.09720589965581894, -0.05747117102146149, 0.18641388416290283, 0.1695086658000946, -0.002327471971511841, -0.0039061096031218767, 1.0005178451538086, -0.9903233051300049, -2.7776308059692383, 0.11634480953216553, 0.0, 0.0, 0.0, 0, 0, 0, 0, 0, 0, -0.9914128184318542, -2.7825419902801514, 0.11652279645204544
15465, 0.12295881658792496, -0.16857469081878662, 0.09809364378452301, -0.08364346623420715, 0.3125259578227997, 0.11594214290380478, -0.00016652607882861048, -0.002023836597800255, 0.9995962977409363, -0.9914128184318542, -2.7825419902801514, 0.11652279645204544, 0.0, 0.0, 0.0, 0, 0, 0, 0, 0, 0, -0.992500901222229, -2.787458896636963, 0.11670111864805222
15475, 0.12257281690835953, -0.1695227175951004, 0.09805796295404434, 0.04005459323525429, -0.0911804735660553, 0.07856105268001556, -0.002092007314786315, -0.001686032279394567, 1.0007514953613281, -0.992500901222229, -2.787458896636963, 0.11670111864805222, 0.0, 0.0, 0.0, 0, 0, 0, 0, 0, 0, -0.9935874342918396, -2.7923800945281982, 0.11687969416379929
