timeTick, roll, pitch, yaw, gyroX, gyroY, gyroZ, accX, accY, accZ, stateX, stateY, stateZ, target_x, target_y, target_z, otX, otY, otZ, otRoll, otPitch, otYaw, kalX, kalY, kalZ
24045, 0.040639739483594894, -0.19328142702579498, 0.0207508597522974, 0, 0, 0, 0, 0, 0, 0, 0, 0, 0, 0, 0, 0, 0, 0, 0, 0, 0, 0, 0, 0
24055, 0.040206313133239746, -0.1938769668340683, 0.022774090990424156, -0.105099618434906, 0.2609941065311432, 0.1865568310022354, -0.0003415738174226135, -0.00479098130017519, 1.0010141134262085, 0.724220871925354, -6.700939655303955, -0.10475371778011322, 0.0, 0.0, 0.0, 0, 0, 0, 0, 0, 0, 0.7259454727172852, -6.707558631896973, -0.10485498607158661
24065, 0.03987259417772293, -0.19436225295066833, 0.02222144976258278, -0.022206593304872513, -0.05269259959459305, -0.057567667216062546, -0.001598482602275908, -0.003824658924713731, 1.0008127689361572, 0.7259454727172852, -6.707558631896973, -0.10485498607158661, 0.0, 0.0, 0.0, 0, 0, 0, 0, 0, 0, 0.7276725769042969, -6.714182376861572, -0.10495518893003464
24075, 0.04040660709142685, -0.19572575390338898, 0.02304365485906601, -0.07765282690525055, 0.19261614978313446, -0.09983643144369125, -0.0020715794526040554, -0.003194992197677493, 1.0010700225830078, 0.7276725769042969, -6.714182376861572, -0.10495518893003464, 0.0, 0.0, 0.0, 0, 0, 0, 0, 0, 0, 0.7294016480445862, -6.720810890197754, -0.10505443811416626
24085, 0.040057819336652756, -0.19589674472808838, 0.023974701762199402, 0.03134605288505554, -0.10036290436983109, -0.12979328632354736, -0.0027176712173968554, -0.0018151290714740753, 1.00150465965271, 0.7294016480445862, -6.720810890197754, -0.10505443811416626, 0.0, 0.0, 0.0, 0, 0, 0, 0, 0, 0, 0.7311320304870605, -6.727442741394043, -0.10515257716178894
24095, 0.03965597599744797, -0.1966502070426941, 0.0246135164052248, 0.09093045443296432, 0.05000598356127739, 0.12190517783164978, -0.0011594052193686366, -0.0018072088714689016, 0.9994301199913025, 0.7311320304870605, -6.727442741394043, -0.10515257716178894, 0.0, 0.0, 0.0, 0, 0, 0, 0, 0, 0, 0.7328636646270752, -6.734076976776123, -0.10524970293045044
24105, 0.03879162669181824, -0.1981947124004364, 0.024800194427371025, -0.13563722372055054, 0.19784164428710938, 0.05539630725979805, -0.0008274971623905003, -0.00284009613096714, 0.9983051419258118, 0.7328636646270752, -6.734076976776123, -0.10524970293045044, 0.0, 0.0, 0.0, 0, 0, 0, 0, 0, 0, 0.7345975637435913, -6.7407145500183105, -0.10534720122814178
24115, 0.03916982561349869, -0.19842372834682465, 0.025121355429291725, 0.07080154865980148, 0.17727923393249512, -0.008338572457432747, 0.0009254910401068628, -0.0037635399494320154, 0.9997138381004333, 0.7345975637435913, -6.7407145500183105, -0.10534720122814178, 0.0, 0.0, 0.0, 0, 0, 0, 0, 0, 0, 0.7363348603248596, -6.7473554611206055, -0.10544579476118088
24125, 0.03872976824641228, -0.19835638999938965, 0.024296153336763382, -0.0479980930685997, 0.059638772159814835, -0.26764464378356934, -0.0018021537689492106, -0.0039387051947414875, 1.0010026693344116, 0.7363348603248596, -6.7473554611206055, -0.10544579476118088, 0.0, 0.0, 0.0, 0, 0, 0, 0, 0, 0, 0.7380753755569458, -6.754000663757324, -0.10554436594247818
24135, 0.0387866273522377, -0.19794130325317383, 0.02202465571463108, -0.0076976134441792965, -0.025406302884221077, -0.1411706507205963, -0.0006397669785656035, -0.0016923407092690468, 0.9984890818595886, 0.7380753755569458, -6.754000663757324, -0.10554436594247818, 0.0, 0.0, 0.0, 0, 0, 0, 0, 0, 0, 0.7398182153701782, -6.760649681091309, -0.10564296692609787
24145, 0.039744216948747635, -0.19624684751033783, 0.021535996347665787, 0.04679807648062706, -0.28444793820381165, -0.015356432646512985, -0.0012935816776007414, -0.001637629116885364, 0.9986564517021179, 0.7398182153701782, -6.760649681091309, -0.10564296692609787, 0.0, 0.0, 0.0, 0, 0, 0, 0, 0, 0, 0.7415631413459778, -6.767301559448242, -0.10574287176132202
24155, 0.039981670677661896, -0.1970866471529007, 0.020799588412046432, -0.029702022671699524, 0.15644101798534393, -0.0618838295340538, -0.0023378776386380196, -0.0037788425106555223, 0.9995394349098206, 0.7415631413459778, -6.767301559448242, -0.10574287176132202, 0.0, 0.0, 0.0, 0, 0, 0, 0, 0, 0, 0.7433097958564758, -6.773956298828125, -0.10584384202957153
24165, 0.03934324160218239, -0.1988024115562439, 0.02189602330327034, -0.08121966570615768, 0.25926461815834045, 0.006349845789372921, -0.0009707227000035346, -0.0028468372765928507, 0.9986945986747742, 0.7433097958564758, -6.773956298828125, -0.10584384202957153, 0.0, 0.0, 0.0, 0, 0, 0, 0, 0, 0, 0.7450581789016724, -6.780614376068115, -0.10594567656517029
24175, 0.03958079218864441, -0.19662706553936005, 0.0224614217877388, 0.02212628349661827, -0.2969633936882019, -0.005165192764252424, -0.0013002029154449701, -0.0026943949051201344, 1.0000754594802856, 0.7450581789016724, -6.780614376068115, -0.10594567656517029, 0.0, 0.0, 0.0, 0, 0, 0, 0, 0, 0, 0.7468087077140808, -6.787275791168213, -0.10604832321405411
24185, 0.04000496491789818, -0.1954844892024994, 0.023402629420161247, 0.1866808384656906, -0.03974311798810959, 0.2737753987312317, -0.0020236230921000242, -0.003912769258022308, 0.9988608360290527, 0.7468087077140808, -6.787275791168213, -0.10604832321405411, 0.0, 0.0, 0.0, 0, 0, 0, 0, 0, 0, 0.7485611438751221, -6.793940544128418, -0.10615166276693344
24195, 0.04005895555019379, -0.19765794277191162, 0.024056673049926758, -0.07491575181484222, 0.2719288766384125, 0.1800859421491623, -0.0017297409940510988, -0.0026100818067789078, 0.9982221126556396, 0.7485611438751221, -6.793940544128418, -0.10615166276693344, 0.0, 0.0, 0.0, 0, 0, 0, 0, 0, 0, 0.7503151297569275, -6.800609588623047, -0.10625617951154709
24205, 0.03889235109090805, -0.19830121099948883, 0.022537633776664734, -0.2971619665622711, -0.33145052194595337, -0.2287757843732834, -0.0008932668715715408, -0.002018257277086377, 0.9986532330513, 0.7503151297569275, -6.800609588623047, -0.10625617951154709, 0.0, 0.0, 0.0, 0, 0, 0, 0, 0, 0, 0.7520710825920105, -6.807281494140625, -0.10636219382286072
24215, 0.03953935578465462, -0.1992555558681488, 0.023270349949598312, 0.0941738486289978, 0.18028271198272705, 0.1767001897096634, -0.0016263138968497515, -0.002487087855115533, 1.0002124309539795, 0.7520710825920105, -6.807281494140625, -0.10636219382286072, 0.0, 0.0, 0.0, 0, 0, 0, 0, 0, 0, 0.7538293600082397, -6.813956260681152, -0.10646896809339523
24225, 0.03960549458861351, -0.19819748401641846, 0.022672586143016815, -0.052594926208257675, -0.10947071760892868, -0.06750856339931488, -0.0016424487112089992, -0.002773677697405219, 1.0027556419372559, 0.7538293600082397, -6.813956260681152, -0.10646896809339523, 0.0, 0.0, 0.0, 0, 0, 0, 0, 0, 0, 0.7555895447731018, -6.820633888244629, -0.10657475888729095
24235, 0.04009723290801048, -0.1983305662870407, 0.022053780034184456, 0.06503558903932571, -0.027097754180431366, -0.04626946896314621, -0.0012720690574496984, -0.002137575065717101, 1.0024181604385376, 0.7555895447731018, -6.820633888244629, -0.10657475888729095, 0.0, 0.0, 0.0, 0, 0, 0, 0, 0, 0, 0.7573516368865967, -6.827314853668213, -0.1066783219575882
24245, 0.040394142270088196, -0.19861245155334473, 0.022581079974770546, 0.0354241319000721, -0.017399929463863373, -0.14977186918258667, -0.0006661165971308947, -0.0036727904807776213, 1.0011587142944336, 0.7573516368865967, -6.827314853668213, -0.1066783219575882, 0.0, 0.0, 0.0, 0, 0, 0, 0, 0, 0, 0.7591161727905273, -6.833999156951904, -0.10678000003099442
24255, 0.04091792553663254, -0.1961362361907959, 0.0214056596159935, 0.08185747265815735, -0.14342939853668213, -0.10989244282245636, -0.0017455604393035173, -0.004206624813377857, 0.9988669753074646, 0.7591161727905273, -6.833999156951904, -0.10678000003099442, 0.0, 0.0, 0.0, 0, 0, 0, 0, 0, 0, 0.7608831524848938, -6.8406877517700195, -0.10688114166259766
24265, 0.0411282479763031, -0.19752521812915802, 0.021522896364331245, -0.051399100571870804, 0.44536063075065613, -0.054535191506147385, -0.003403987269848585, -0.0014859514776617289, 0.9978046417236328, 0.7608831524848938, -6.8406877517700195, -0.10688114166259766, 0.0, 0.0, 0.0, 0, 0, 0, 0, 0, 0, 0.762651264667511, -6.8473801612854, -0.10698354989290237
24275, 0.040156371891498566, -0.19561223685741425, 0.02133040875196457, -0.0645461156964302, -0.148359477519989, -0.009974481537938118, -0.0013141690287739038, -0.002682307967916131, 0.9983425736427307, 0.762651264667511, -6.8473801612854, -0.10698354989290237, 0.0, 0.0, 0.0, 0, 0, 0, 0, 0, 0, 0.7644202709197998, -6.854075908660889, -0.10708789527416229
24285, 0.040322158485651016, -0.19409795105457306, 0.021351324394345284, 0.07821610569953918, -0.24146243929862976, -0.06950141489505768, -0.0006890638615004718, -0.0038085011765360832, 1.0004653930664062, 0.7644202709197998, -6.854075908660889, -0.10708789527416229, 0.0, 0.0, 0.0, 0, 0, 0, 0, 0, 0, 0.766191303730011, -6.860775470733643, -0.10719306766986847
24295, 0.03996501490473747, -0.19407373666763306, 0.021801743656396866, -0.02014174684882164, 0.005776082165539265, -0.07632692903280258, -0.0002945279411505908, -0.005476758815348148, 0.9996498823165894, 0.766191303730011, -6.860775470733643, -0.10719306766986847, 0.0, 0.0, 0.0, 0, 0, 0, 0, 0, 0, 0.7679651975631714, -6.8674798011779785, -0.10729827731847763
24305, 0.039776042103767395, -0.19183668494224548, 0.019670216366648674, -0.05997607484459877, -0.28903213143348694, -0.31183385848999023, -0.0017360278870910406, -0.0037829778157174587, 1.000617504119873, 0.7679651975631714, -6.8674798011779785, -0.10729827731847763, 0.0, 0.0, 0.0, 0, 0, 0, 0, 0, 0, 0.7697412967681885, -6.874189376831055, -0.10740330815315247
24315, 0.039744533598423004, -0.1913602352142334, 0.020299376919865608, 0.03715850040316582, 0.03431449085474014, 0.05563899502158165, -0.0016950241988524795, -0.0026452511083334684, 0.9990282654762268, 0.7697412967681885, -6.874189376831055, -0.10740330815315247, 0.0, 0.0, 0.0, 0, 0, 0, 0, 0, 0, 0.771518886089325, -6.8809027671813965, -0.10750856250524521
24325, 0.03937217965722084, -0.1917411834001541, 0.01881060190498829, 0.06742770224809647, -0.004465862177312374, -0.12107821553945541, -0.00102707848418504, -0.004890101496130228, 1.0010796785354614, 0.771518886089325, -6.8809027671813965, -0.10750856250524521, 0.0, 0.0, 0.0, 0, 0, 0, 0, 0, 0, 0.7732985019683838, -6.887620449066162, -0.10761407017707825
24335, 0.04011314734816551, -0.1930936723947525, 0.01885637454688549, 0.030413873493671417, 0.3107524812221527, -0.07089311629533768, -0.0032444759272038937, -0.0024977729190140963, 0.9977506399154663, 0.7732985019683838, -6.887620449066162, -0.10761407017707825, 0.0, 0.0, 0.0, 0, 0, 0, 0, 0, 0, 0.7750793695449829, -6.894342422485352, -0.10772000253200531
24345, 0.04036114364862442, -0.1915927678346634, 0.01795853115618229, -0.05113697424530983, -0.09246112406253815, -0.12086129933595657, -0.0015343806007876992, -0.0037846120540052652, 0.9990238547325134, 0.7750793695449829, -6.894342422485352, -0.10772000253200531, 0.0, 0.0, 0.0, 0, 0, 0, 0, 0, 0, 0.7768611311912537, -6.901068210601807, -0.10782741755247116
24355, 0.04043919965624809, -0.18959389626979828, 0.01710095815360546, 0.0012280236696824431, -0.05391650274395943, -0.22095122933387756, -0.002196533838286996, -0.004537570755928755, 1.0000555515289307, 0.7768611311912537, -6.901068210601807, -0.10782741755247116, 0.0, 0.0, 0.0, 0, 0, 0, 0, 0, 0, 0.7786443829536438, -6.9077982902526855, -0.10793549567461014
24365, 0.040774401277303696, -0.1891249418258667, 0.017406418919563293, 0.10589516907930374, -0.10140382498502731, -0.03632611781358719, -0.0033544707112014294, -0.003025444457307458, 1.001279354095459, 0.7786443829536438, -6.9077982902526855, -0.10793549567461014, 0.0, 0.0, 0.0, 0, 0, 0, 0, 0, 0, 0.7804285287857056, -6.9145331382751465, -0.108042873442173
24375, 0.04069983586668968, -0.190525621175766, 0.01712667942047119, 0.019622618332505226, 0.1422879695892334, -0.045655444264411926, -0.0018612055573612452, -0.0024796519428491592, 1.0012277364730835, 0.7804285287857056, -6.9145331382751465, -0.108042873442173, 0.0, 0.0, 0.0, 0, 0, 0, 0, 0, 0, 0.7822132706642151, -6.921271800994873, -0.10814884305000305
24385, 0.03975570946931839, -0.1907176524400711, 0.017446622252464294, -0.0707191452383995, -0.07695038616657257, 0.07726015895605087, -0.0018033082596957684, -0.0031610431615263224, 1.0012060403823853, 0.7822132706642151, -6.921271800994873, -0.10814884305000305, 0.0, 0.0, 0.0, 0, 0, 0, 0, 0, 0, 0.7839993238449097, -6.928013801574707, -0.10825338959693909
24395, 0.04084670916199684, -0.19004571437835693, 0.018024589866399765, 0.09039019793272018, -0.10583092272281647, -0.04115039482712746, -0.0030555548146367073, -0.00464759673923254, 1.001240611076355, 0.7839993238449097, -6.928013801574707, -0.10825338959693909, 0.0, 0.0, 0.0, 0, 0, 0, 0, 0, 0, 0.7857862710952759, -6.934760093688965, -0.10835670679807663
24405, 0.041392453014850616, -0.1907711774110794, 0.019955193623900414, 0.01895948313176632, 0.16595621407032013, 0.22809822857379913, -8.044340211199597e-05, -0.0039670332334935665, 0.9992402195930481, 0.7857862710952759, -6.934760093688965, -0.10835670679807663, 0.0, 0.0, 0.0, 0, 0, 0, 0, 0, 0, 0.7875744700431824, -6.941511154174805, -0.10845959931612015
24415, 0.040663160383701324, -0.19064195454120636, 0.019504506140947342, -0.03704608604311943, 0.1104532778263092, -0.18188051879405975, 0.0012967997463420033, -0.0028295612428337336, 1.0008865594863892, 0.7875744700431824, -6.941511154174805, -0.10845959931612015, 0.0, 0.0, 0.0, 0, 0, 0, 0, 0, 0, 0.7893660068511963, -6.94826602935791, -0.10856255888938904
24425, 0.04045357555150986, -0.19080789387226105, 0.018897170200943947, -0.06392955034971237, 0.30191636085510254, -0.10967857390642166, -0.0006261726375669241, -0.003594704670831561, 1.0012143850326538, 0.7893660068511963, -6.94826602935791, -0.10856255888938904, 0.0, 0.0, 0.0, 0, 0, 0, 0, 0, 0, 0.7911611199378967, -6.955024719238281, -0.10866466909646988
24435, 0.0398581400513649, -0.19066256284713745, 0.01784333772957325, -0.2116313874721527, 0.08580119907855988, -0.233916237950325, -0.001340618822723627, -0.0032228566706180573, 1.0003584623336792, 0.7911611199378967, -6.955024719238281, -0.10866466909646988, 0.0, 0.0, 0.0, 0, 0, 0, 0, 0, 0, 0.7929586172103882, -6.961787700653076, -0.10876590758562088
24445, 0.041277818381786346, -0.1896771937608719, 0.018628574907779694, 0.1572154313325882, -0.22439585626125336, 0.15785998106002808, -0.00213022343814373, -0.0022289403714239597, 0.9996989369392395, 0.7929586172103882, -6.961787700653076, -0.10876590758562088, 0.0, 0.0, 0.0, 0, 0, 0, 0, 0, 0, 0.7947577238082886, -6.9685540199279785, -0.10886719822883606
24455, 0.04180390387773514, -0.18996714055538177, 0.01908399909734726, 0.0479181632399559, 0.23502840101718903, 0.24981340765953064, -0.0019159229705110192, -0.0027530216611921787, 1.0000284910202026, 0.7947577238082886, -6.9685540199279785, -0.10886719822883606, 0.0, 0.0, 0.0, 0, 0, 0, 0, 0, 0, 0.7965579628944397, -6.97532320022583, -0.10896856337785721
24465, 0.041014693677425385, -0.19071462750434875, 0.01836775243282318, -0.18443113565444946, 0.24623794853687286, 0.007620284333825111, -0.0010254106018692255, -0.004296979401260614, 1.0002365112304688, 0.7965579628944397, -6.97532320022583, -0.10896856337785721, 0.0, 0.0, 0.0, 0, 0, 0, 0, 0, 0, 0.7983596324920654, -6.982096195220947, -0.10906952619552612
24475, 0.04056559130549431, -0.19015167653560638, 0.016368336975574493, 0.030181586742401123, -0.010621410794556141, -0.23817473649978638, -0.0004501675721257925, -0.0005310852429829538, 0.999753475189209, 0.7983596324920654, -6.982096195220947, -0.10906952619552612, 0.0, 0.0, 0.0, 0, 0, 0, 0, 0, 0, 0.800163745880127, -6.98887300491333, -0.10917042940855026
24485, 0.040431346744298935, -0.192835733294487, 0.016845867037773132, -0.014133771881461143, 0.3048233091831207, 0.037289202213287354, -0.0002356190379941836, -0.001532232854515314, 1.0008251667022705, 0.800163745880127, -6.98887300491333, -0.10917042940855026, 0.0, 0.0, 0.0, 0, 0, 0, 0, 0, 0, 0.801970899105072, -6.995651721954346, -0.10927139222621918
24495, 0.039972975850105286, -0.19110344350337982, 0.017645718529820442, 0.041221894323825836, -0.1617051512002945, 0.04398006573319435, 0.0001323829492321238, -0.0032168193720281124, 0.9996113181114197, 0.801970899105072, -6.995651721954346, -0.10927139222621918, 0.0, 0.0, 0.0, 0, 0, 0, 0, 0, 0, 0.8037810921669006, -7.002432823181152, -0.10937222838401794
24505, 0.041506003588438034, -0.18987829983234406, 0.018804147839546204, 0.19765852391719818, -0.1277460753917694, 0.21180708706378937, -0.002787231467664242, -0.002004162408411503, 0.9994861483573914, 0.8037810921669006, -7.002432823181152, -0.10937222838401794, 0.0, 0.0, 0.0, 0, 0, 0, 0, 0, 0, 0.8055936098098755, -7.009217739105225, -0.10947349667549133
24515, 0.04070683568716049, -0.1890840083360672, 0.01854298822581768, -0.19109155237674713, -0.06792200356721878, -0.021493125706911087, -0.002522072521969676, -0.002325646113604307, 1.001711368560791, 0.8055936098098755, -7.009217739105225, -0.10947349667549133, 0.0, 0.0, 0.0, 0, 0, 0, 0, 0, 0, 0.8074070811271667, -7.016005039215088, -0.10957470536231995
24525, 0.04068910703063011, -0.18765811622142792, 0.01701626554131508, -0.02880842238664627, 0.002444152720272541, -0.2430928647518158, -0.001005376921966672, -0.0023502917028963566, 0.9995594024658203, 0.8074070811271667, -7.016005039215088, -0.10957470536231995, 0.0, 0.0, 0.0, 0, 0, 0, 0, 0, 0, 0.8092219233512878, -7.0227952003479, -0.10967517644166946
24535, 0.04118635132908821, -0.18606646358966827, 0.018647629767656326, 0.09799857437610626, -0.03510119020938873, 0.22862005233764648, -0.0002185265184380114, -0.0012978232698515058, 0.9990056157112122, 0.8092219233512878, -7.0227952003479, -0.10967517644166946, 0.0, 0.0, 0.0, 0, 0, 0, 0, 0, 0, 0.8110394477844238, -7.029588222503662, -0.10977598279714584
24545, 0.04042460024356842, -0.1864948719739914, 0.017709506675601006, -0.25754234194755554, 0.08567718416452408, -0.17013296484947205, -0.003237660275772214, -0.0016252151690423489, 1.001599907875061, 0.8110394477844238, -7.029588222503662, -0.10977598279714584, 0.0, 0.0, 0.0, 0, 0, 0, 0, 0, 0, 0.8128589987754822, -7.036383152008057, -0.10987677425146103
24555, 0.03982912749052048, -0.18789541721343994, 0.016955886036157608, -0.19742451608181, 0.16003678739070892, -0.18374206125736237, -0.0025784915778785944, -0.0029599478002637625, 0.9988393783569336, 0.8128589987754822, -7.036383152008057, -0.10987677425146103, 0.0, 0.0, 0.0, 0, 0, 0, 0, 0, 0, 0.8146792054176331, -7.043180465698242, -0.109977126121521
24565, 0.03988095372915268, -0.1863650381565094, 0.016505425795912743, -0.08438105881214142, -0.1435864269733429, -0.04532035067677498, -0.0027617455925792456, -0.0023327372036874294, 0.9998236298561096, 0.8146792054176331, -7.043180465698242, -0.109977126121521, 0.0, 0.0, 0.0, 0, 0, 0, 0, 0, 0, 0.8164997100830078, -7.049981117248535, -0.11007776111364365
24575, 0.03918934985995293, -0.18644477427005768, 0.015265529975295067, -0.24749305844306946, -0.01483406126499176, -0.0975724384188652, -0.0022463886998593807, -0.0009364041616208851, 0.998202383518219, 0.8164997100830078, -7.049981117248535, -0.11007776111364365, 0.0, 0.0, 0.0, 0, 0, 0, 0, 0, 0, 0.8183208107948303, -7.056784629821777, -0.11017920821905136
24585, 0.03900264576077461, -0.1863725781440735, 0.015425649471580982, -0.0174795463681221, 0.061677247285842896, -0.02854381501674652, -0.0017302318010479212, 0.00030343717662617564, 0.9984378218650818, 0.8183208107948303, -7.056784629821777, -0.11017920821905136, 0.0, 0.0, 0.0, 0, 0, 0, 0, 0, 0, 0.8201430439949036, -7.063589572906494, -0.11028208583593369
24595, 0.03875008225440979, -0.18784411251544952, 0.015990080311894417, -0.10366525501012802, 0.11368007957935333, -0.09540272504091263, 4.487446858547628e-05, -0.00020595981914084405, 0.9998041987419128, 0.8201430439949036, -7.063589572906494, -0.11028208583593369, 0.0, 0.0, 0.0, 0, 0, 0, 0, 0, 0, 0.8219670653343201, -7.070394992828369, -0.110385961830616
24605, 0.039753157645463943, -0.18654488027095795, 0.015220600180327892, 0.16042619943618774, -0.20136627554893494, -0.030307915061712265, 0.0010600360110402107, -0.001156247453764081, 1.001344084739685, 0.8219670653343201, -7.070394992828369, -0.110385961830616, 0.0, 0.0, 0.0, 0, 0, 0, 0, 0, 0, 0.8237943053245544, -7.0772013664245605, -0.11048950999975204
24615, 0.03928273543715477, -0.18727409839630127, 0.015148662962019444, -0.04593322053551674, 0.1686718612909317, 0.1227138340473175, -1.0721329090301879e-05, -0.0020119505934417248, 1.000868797302246, 0.8237943053245544, -7.0772013664245605, -0.11048950999975204, 0.0, 0.0, 0.0, 0, 0, 0, 0, 0, 0, 0.8256255388259888, -7.084010124206543, -0.11059176921844482
24625, 0.03919258713722229, -0.1875145435333252, 0.015407305210828781, 0.05884645879268646, 0.05145442858338356, 0.1402990072965622, -0.00403233990073204, -0.003122523194178939, 0.9995670914649963, 0.8256255388259888, -7.084010124206543, -0.11059176921844482, 0.0, 0.0, 0.0, 0, 0, 0, 0, 0, 0, 0.8274587392807007, -7.090821743011475, -0.11069349199533463
24635, 0.03864838555455208, -0.18806977570056915, 0.01501987874507904, 0.00015654005983378738, 0.2546430826187134, -0.07216902822256088, -0.0027004459407180548, -0.004554196260869503, 1.0006037950515747, 0.8274587392807007, -7.090821743011475, -0.11069349199533463, 0.0, 0.0, 0.0, 0, 0, 0, 0, 0, 0, 0.8292919397354126, -7.09763765335083, -0.11079513281583786
24645, 0.03934924677014351, -0.18769387900829315, 0.015840008854866028, 0.0351361408829689, -0.14578495919704437, 0.05042649433016777, -0.002214049454778433, -0.004497796297073364, 0.9993942975997925, 0.8292919397354126, -7.09763765335083, -0.11079513281583786, 0.0, 0.0, 0.0, 0, 0, 0, 0, 0, 0, 0.8311255574226379, -7.104458332061768, -0.11089656502008438
24655, 0.03947068378329277, -0.1891402006149292, 0.014972484670579433, 0.05278199166059494, 0.1140645369887352, -0.0951349139213562, -0.000624495733063668, -0.003016201313585043, 0.997972846031189, 0.8311255574226379, -7.104458332061768, -0.11089656502008438, 0.0, 0.0, 0.0, 0, 0, 0, 0, 0, 0, 0.832960844039917, -7.111283779144287, -0.11099894344806671
24665, 0.04039661958813667, -0.1890610158443451, 0.013911374844610691, 0.08913721144199371, -0.04141029343008995, -0.21115416288375854, -0.0009434535750187933, -0.004402197431772947, 0.9974489808082581, 0.832960844039917, -7.111283779144287, -0.11099894344806671, 0.0, 0.0, 0.0, 0, 0, 0, 0, 0, 0, 0.8347984552383423, -7.1181135177612305, -0.11110345274209976
24675, 0.04037768393754959, -0.18759068846702576, 0.01438166294246912, 0.002951384522020817, -0.06545315682888031, 0.03818667680025101, -0.0012591193662956357, -0.004098146688193083, 0.9986869096755981, 0.8347984552383423, -7.1181135177612305, -0.11110345274209976, 0.0, 0.0, 0.0, 0, 0, 0, 0, 0, 0, 0.8366382718086243, -7.124948024749756, -0.11121010780334473
24685, 0.04021651670336723, -0.18721182644367218, 0.013089513406157494, -0.061156682670116425, 0.03034483827650547, -0.23712214827537537, -0.002218285109847784, -0.0017697176663205028, 0.9999098777770996, 0.8366382718086243, -7.124948024749756, -0.11121010780334473, 0.0, 0.0, 0.0, 0, 0, 0, 0, 0, 0, 0.8384795188903809, -7.131786823272705, -0.1113176941871643
24695, 0.03996158391237259, -0.1861824244260788, 0.013720928691327572, -0.022462550550699234, 0.06322509795427322, 0.15443140268325806, -0.0014038484077900648, -0.0023588077165186405, 0.9996092319488525, 0.8384795188903809, -7.131786823272705, -0.1113176941871643, 0.0, 0.0, 0.0, 0, 0, 0, 0, 0, 0, 0.8403223156929016, -7.1386284828186035, -0.1114257201552391
24705, 0.039719127118587494, -0.1860208958387375, 0.01462724432349205, -0.1444779932498932, 0.08521375060081482, 0.1065734326839447, -0.003005038481205702, -0.0038113053888082504, 1.0010186433792114, 0.8403223156929016, -7.1386284828186035, -0.1114257201552391, 0.0, 0.0, 0.0, 0, 0, 0, 0, 0, 0, 0.8421662449836731, -7.145473480224609, -0.11153357475996017
24715, 0.039067592471838, -0.18548035621643066, 0.01487237773835659, -0.024095948785543442, -0.01007102057337761, -0.02196805737912655, -0.004546226933598518, -0.0024872508365660906, 0.9974300861358643, 0.8421662449836731, -7.145473480224609, -0.11153357475996017, 0.0, 0.0, 0.0, 0, 0, 0, 0, 0, 0, 0.8440099358558655, -7.152322292327881, -0.11164183914661407
24725, 0.03872890770435333, -0.1818266361951828, 0.01436095591634512, -0.06714313477277756, -0.33351370692253113, -0.16529689729213715, -0.003268315689638257, -0.002108511747792363, 1.0006226301193237, 0.8440099358558655, -7.152322292327881, -0.11164183914661407, 0.0, 0.0, 0.0, 0, 0, 0, 0, 0, 0, 0.8458528518676758, -7.15917444229126, -0.11175116151571274
24735, 0.03746389225125313, -0.18141452968120575, 0.014468432404100895, -0.17332197725772858, 0.1670740246772766, -0.11425836384296417, -0.0005002534599043429, -0.004546506330370903, 0.9992108345031738, 0.8458528518676758, -7.15917444229126, -0.11175116151571274, 0.0, 0.0, 0.0, 0, 0, 0, 0, 0, 0, 0.8476962447166443, -7.166029930114746, -0.11186081171035767
24745, 0.037584464997053146, -0.17977792024612427, 0.013295128010213375, 0.04174882173538208, -0.24503770470619202, -0.19235411286354065, -0.0006666163681074977, -0.0031201564706861973, 0.999872624874115, 0.8476962447166443, -7.166029930114746, -0.11186081171035767, 0.0, 0.0, 0.0, 0, 0, 0, 0, 0, 0, 0.8495418429374695, -7.172889709472656, -0.11197076737880707
24755, 0.038014691323041916, -0.18084166944026947, 0.012194514274597168, 0.18684270977973938, 0.3089417517185211, -0.16273733973503113, -0.0010047464165836573, -0.0020676199346780777, 1.0002411603927612, 0.8495418429374695, -7.172889709472656, -0.11197076737880707, 0.0, 0.0, 0.0, 0, 0, 0, 0, 0, 0, 0.8513898253440857, -7.179752826690674, -0.11208056658506393
24765, 0.037648458033800125, -0.1814243197441101, 0.01294921524822712, -0.010330021381378174, 0.06719587743282318, 0.016014207154512405, 0.0005744824884459376, -0.0013501126086339355, 1.000056266784668, 0.8513898253440857, -7.179752826690674, -0.11208056658506393, 0.0, 0.0, 0.0, 0, 0, 0, 0, 0, 0, 0.8532403111457825, -7.186618328094482, -0.11219025403261185
24775, 0.0369177982211113, -0.18227088451385498, 0.011694077402353287, 0.0614214725792408, -0.1144210621714592, -0.20769259333610535, -0.0007091714069247246, -0.0019432355184108019, 0.9994863867759705, 0.8532403111457825, -7.186618328094482, -0.11219025403261185, 0.0, 0.0, 0.0, 0, 0, 0, 0, 0, 0, 0.8550935387611389, -7.193485736846924, -0.11229995638132095
24785, 0.03648427873849869, -0.18297718465328217, 0.011619540862739086, -0.05048280209302902, 0.04068798944354057, 0.01774543896317482, -0.0013023449573665857, -0.002775895642116666, 0.9978891611099243, 0.8550935387611389, -7.193485736846924, -0.11229995638132095, 0.0, 0.0, 0.0, 0, 0, 0, 0, 0, 0, 0.8569492697715759, -7.2003560066223145, -0.11241058260202408
24795, 0.034795649349689484, -0.1838664412498474, 0.011823984794318676, -0.1147499606013298, 0.20592427253723145, 0.14524638652801514, -0.002291848650202155, -0.001785552129149437, 0.9992907643318176, 0.8569492697715759, -7.2003560066223145, -0.11241058260202408, 0.0, 0.0, 0.0, 0, 0, 0, 0, 0, 0, 0.8588066697120667, -7.2072296142578125, -0.112522654235363
24805, 0.034779950976371765, -0.1827481985092163, 0.010531267151236534, 0.0399777926504612, -0.16450807452201843, -0.0785946324467659, 3.698761065606959e-05, -0.003600646276026964, 0.9988476634025574, 0.8588066697120667, -7.2072296142578125, -0.112522654235363, 0.0, 0.0, 0.0, 0, 0, 0, 0, 0, 0, 0.8606657981872559, -7.214106559753418, -0.1126357764005661
24815, 0.03454311192035675, -0.17989861965179443, 0.0086226100102067, 0.013386094942688942, -0.18072956800460815, -0.2552098035812378, -0.0008674935670569539, -0.002637226600199938, 1.000380516052246, 0.8606657981872559, -7.214106559753418, -0.1126357764005661, 0.0, 0.0, 0.0, 0, 0, 0, 0, 0, 0, 0.86252760887146, -7.220987319946289, -0.11274963617324829
24825, 0.034361016005277634, -0.1789552867412567, 0.007951570674777031, -0.12587526440620422, -0.09791994839906693, 0.049305275082588196, -0.00034183711977675557, -0.0026835028547793627, 1.0010986328125, 0.86252760887146, -7.220987319946289, -0.11274963617324829, 0.0, 0.0, 0.0, 0, 0, 0, 0, 0, 0, 0.8643921613693237, -7.227871417999268, -0.11286322772502899
24835, 0.03336791694164276, -0.1795283406972885, 0.007743786554783583, -0.03398434445261955, -0.003530278103426099, 0.05883729085326195, -0.0012008678168058395, -0.003861159086227417, 1.0006521940231323, 0.8643921613693237, -7.227871417999268, -0.11286322772502899, 0.0, 0.0, 0.0, 0, 0, 0, 0, 0, 0, 0.8662592172622681, -7.234759330749512, -0.11297574639320374
24845, 0.03398693725466728, -0.18061508238315582, 0.007682777009904385, 0.08112020790576935, 0.0604606531560421, 0.1153746247291565, -0.002100973157212138, -0.0018873319495469332, 1.0018301010131836, 0.8662592172622681, -7.234759330749512, -0.11297574639320374, 0.0, 0.0, 0.0, 0, 0, 0, 0, 0, 0, 0.8681277632713318, -7.241650581359863, -0.1130870059132576
24855, 0.033800654113292694, -0.1778167188167572, 0.005852538626641035, -0.04562113806605339, -0.2791955769062042, -0.2003278285264969, -0.000837464933283627, -0.003423917107284069, 1.000014305114746, 0.8681277632713318, -7.241650581359863, -0.1130870059132576, 0.0, 0.0, 0.0, 0, 0, 0, 0, 0, 0, 0.8699977993965149, -7.248545169830322, -0.11319737136363983
24865, 0.033100541681051254, -0.1776936650276184, 0.005547710228711367, -0.01328083872795105, 0.00025655803619883955, -0.03557658940553665, -0.0011820739600807428, -0.0035153357312083244, 1.0002790689468384, 0.8699977993965149, -7.248545169830322, -0.11319737136363983, 0.0, 0.0, 0.0, 0, 0, 0, 0, 0, 0, 0.8718700408935547, -7.255443572998047, -0.11330731213092804
24875, 0.033213816583156586, -0.1784646362066269, 0.006421361584216356, -0.04602491855621338, 0.23702503740787506, 0.12923459708690643, -0.0005645258934237063, -0.0033505188766866922, 1.000779151916504, 0.8718700408935547, -7.255443572998047, -0.11330731213092804, 0.0, 0.0, 0.0, 0, 0, 0, 0, 0, 0, 0.8737446665763855, -7.262346267700195, -0.11341705173254013
24885, 0.03308447077870369, -0.17902889847755432, 0.006133458577096462, 0.023047786206007004, 0.002575825434178114, -0.15740042924880981, -0.0014441157691180706, -0.001426210394129157, 0.9991545081138611, 0.8737446665763855, -7.262346267700195, -0.11341705173254013, 0.0, 0.0, 0.0, 0, 0, 0, 0, 0, 0, 0.8756214380264282, -7.269252300262451, -0.11352667957544327
24895, 0.03310588002204895, -0.17879311740398407, 0.008064418099820614, 0.06005522608757019, 0.07893717288970947, 0.14938877522945404, -0.000562680303119123, -0.003057784866541624, 1.0027285814285278, 0.8756214380264282, -7.269252300262451, -0.11352667957544327, 0.0, 0.0, 0.0, 0, 0, 0, 0, 0, 0, 0.8775002956390381, -7.276160717010498, -0.11363550275564194
24905, 0.0326869934797287, -0.17863263189792633, 0.008232997730374336, 0.04014107584953308, -0.22121092677116394, -0.07251313328742981, -0.0003368771867826581, -0.0020511390175670385, 1.0021324157714844, 0.8775002956390381, -7.276160717010498, -0.11363550275564194, 0.0, 0.0, 0.0, 0, 0, 0, 0, 0, 0, 0.879381537437439, -7.283071517944336, -0.11374261230230331
24915, 0.032386861741542816, -0.17944647371768951, 0.0077859158627688885, -0.1294517070055008, 0.17937155067920685, -0.30997568368911743, -0.0009346564766019583, -0.0018532786052674055, 0.9989380836486816, 0.879381537437439, -7.283071517944336, -0.11374261230230331, 0.0, 0.0, 0.0, 0, 0, 0, 0, 0, 0, 0.8812653422355652, -7.289985179901123, -0.11384832859039307
24925, 0.03238711133599281, -0.1797061413526535, 0.007430804427713156, 0.0867442861199379, 0.04773114249110222, -0.09209965169429779, -0.0021213004365563393, -0.0039017428644001484, 0.996525764465332, 0.8812653422355652, -7.289985179901123, -0.11384832859039307, 0.0, 0.0, 0.0, 0, 0, 0, 0, 0, 0, 0.883151113986969, -7.296902179718018, -0.11395520716905594
24935, 0.03182877227663994, -0.17755411565303802, 0.0071150800213217735, 0.0156631488353014, -0.3206091821193695, 0.014019683934748173, -0.0015543104382231832, -0.0027359535451978445, 0.9995437860488892, 0.883151113986969, -7.296902179718018, -0.11395520716905594, 0.0, 0.0, 0.0, 0, 0, 0, 0, 0, 0, 0.8850379586219788, -7.303822994232178, -0.11406467109918594
24945, 0.03139391168951988, -0.1760302037000656, 0.005443520378321409, -0.20255151391029358, -0.1685112863779068, -0.14003701508045197, -0.001700063468888402, -0.00404608529061079, 1.000963568687439, 0.8850379586219788, -7.303822994232178, -0.11406467109918594, 0.0, 0.0, 0.0, 0, 0, 0, 0, 0, 0, 0.8869259357452393, -7.3107476234436035, -0.11417459696531296
24955, 0.03221830725669861, -0.17560233175754547, 0.006045888643711805, 0.13258224725723267, -0.11888324469327927, -0.1385166049003601, -0.001478138961829245, -0.0026397849433124065, 0.9997721910476685, 0.8869259357452393, -7.3107476234436035, -0.11417459696531296, 0.0, 0.0, 0.0, 0, 0, 0, 0, 0, 0, 0.8888153433799744, -7.317676067352295, -0.11428391188383102
24965, 0.032336845993995667, -0.17601662874221802, 0.006158280652016401, 0.1561257541179657, -0.06684946268796921, -0.04624662175774574, -0.00011566856846911833, -0.0011905557475984097, 1.000712513923645, 0.8888153433799744, -7.317676067352295, -0.11428391188383102, 0.0, 0.0, 0.0, 0, 0, 0, 0, 0, 0, 0.8907068371772766, -7.3246073722839355, -0.11439308524131775
24975, 0.03220900893211365, -0.17645594477653503, 0.006942694075405598, 0.04218905419111252, 0.006291620433330536, 0.06789926439523697, -0.0006507392972707748, -0.0015503496397286654, 1.0005704164505005, 0.8907068371772766, -7.3246073722839355, -0.11439308524131775, 0.0, 0.0, 0.0, 0, 0, 0, 0, 0, 0, 0.8926010131835938, -7.331541061401367, -0.11450190097093582
24985, 0.03197591379284859, -0.17531941831111908, 0.005722051952034235, -0.00754232332110405, -0.04144633188843727, -0.09179292619228363, -0.0028191462624818087, -0.003505566855892539, 0.998975396156311, 0.8926010131835938, -7.331541061401367, -0.11450190097093582, 0.0, 0.0, 0.0, 0, 0, 0, 0, 0, 0, 0.8944970369338989, -7.33847713470459, -0.11461057513952255
24995, 0.03166372328996658, -0.17813539505004883, 0.005937605164945126, -0.11516344547271729, 0.4485190212726593, 0.16141994297504425, -0.0033294949680566788, -0.004928800277411938, 1.0000905990600586, 0.8944970369338989, -7.33847713470459, -0.11461057513952255, 0.0, 0.0, 0.0, 0, 0, 0, 0, 0, 0, 0.896393358707428, -7.345417499542236, -0.11471954733133316
25005, 0.031947217881679535, -0.1793450564146042, 0.00542218703776598, -0.03807226940989494, 0.18840111792087555, -0.031969040632247925, 0.0009999454487115145, -0.0034074231516569853, 0.9997500777244568, 0.896393358707428, -7.345417499542236, -0.11471954733133316, 0.0, 0.0, 0.0, 0, 0, 0, 0, 0, 0, 0.8982909321784973, -7.352362632751465, -0.11482854932546616
25015, 0.031896669417619705, -0.17996874451637268, 0.005094742868095636, -0.17953726649284363, 0.16351181268692017, -0.1420009583234787, -0.00037516100564971566, -0.0027653775177896023, 0.9992614388465881, 0.8982909321784973, -7.352362632751465, -0.11482854932546616, 0.0, 0.0, 0.0, 0, 0, 0, 0, 0, 0, 0.9001915454864502, -7.359311580657959, -0.11493761092424393
25025, 0.032446328550577164, -0.1794295758008957, 0.004343091975897551, -0.061523374170064926, 0.09348038583993912, -0.09922084212303162, 0.00031590377329848707, -0.003352294210344553, 0.9992954730987549, 0.9001915454864502, -7.359311580657959, -0.11493761092424393, 0.0, 0.0, 0.0, 0, 0, 0, 0, 0, 0, 0.9020954370498657, -7.3662638664245605, -0.11504723131656647
25035, 0.03231797739863396, -0.18017850816249847, 0.003535387571901083, -0.02026578038930893, 0.06763938814401627, -0.23369644582271576, -0.0013700947165489197, -0.002197864232584834, 0.9988235235214233, 0.9020954370498657, -7.3662638664245605, -0.11504723131656647, 0.0, 0.0, 0.0, 0, 0, 0, 0, 0, 0, 0.9040018320083618, -7.3732194900512695, -0.11515772342681885
25045, 0.032549649477005005, -0.18033331632614136, 0.0033243708312511444, -0.02119029127061367, -0.044750481843948364, -0.14558835327625275, -0.0028658153023570776, -0.001792772556655109, 0.998462975025177, 0.9040018320083618, -7.3732194900512695, -0.11515772342681885, 0.0, 0.0, 0.0, 0, 0, 0, 0, 0, 0, 0.9059094190597534, -7.380177974700928, -0.11526935547590256
25055, 0.03250937908887863, -0.18345703184604645, 0.003938707523047924, 0.05793675035238266, 0.312977135181427, -0.04477918893098831, -0.002454823814332485, -0.0033131930977106094, 0.9996116757392883, 0.9059094190597534, -7.380177974700928, -0.11526935547590256, 0.0, 0.0, 0.0, 0, 0, 0, 0, 0, 0, 0.907817542552948, -7.387139320373535, -0.11538209021091461
25065, 0.032573845237493515, -0.18440622091293335, 0.005088172387331724, 0.08204636722803116, 0.06558957695960999, 0.26762017607688904, -0.00307481549680233, -0.0015661334618926048, 0.9999628067016602, 0.907817542552948, -7.387139320373535, -0.11538209021091461, 0.0, 0.0, 0.0, 0, 0, 0, 0, 0, 0, 0.9097259044647217, -7.39410400390625, -0.11549513787031174
25075, 0.03225115314126015, -0.185149148106575, 0.004793491214513779, 0.05768508091568947, 0.26077497005462646, -0.02511010132730007, -0.0020131224300712347, -0.004218947142362595, 0.9995058178901672, 0.9097259044647217, -7.39410400390625, -0.11549513787031174, 0.0, 0.0, 0.0, 0, 0, 0, 0, 0, 0, 0.9116347432136536, -7.401072025299072, -0.11560829728841782
25085, 0.03168044239282608, -0.18481101095676422, 0.005739394575357437, 0.032165151089429855, -0.20438280701637268, 0.34554150700569153, -0.00026900795637629926, -0.006978878751397133, 0.9993072152137756, 0.9116347432136536, -7.401072025299072, -0.11560829728841782, 0.0, 0.0, 0.0, 0, 0, 0, 0, 0, 0, 0.9135453701019287, -7.408044815063477, -0.11572190374135971
25095, 0.03181714937090874, -0.1832837611436844, 0.005323090590536594, 0.029479803517460823, -0.3197564482688904, 0.006810171529650688, -0.002466790145263076, -0.001562825171276927, 0.9989559650421143, 0.9135453701019287, -7.408044815063477, -0.11572190374135971, 0.0, 0.0, 0.0, 0, 0, 0, 0, 0, 0, 0.9154580235481262, -7.415022850036621, -0.11583612859249115
25105, 0.03267475217580795, -0.18309779465198517, 0.005090317223221064, 0.08761533349752426, -0.01719755306839943, 0.04552614316344261, -0.0014162546722218394, -4.1675055399537086e-05, 0.9982774257659912, 0.9154580235481262, -7.415022850036621, -0.11583612859249115, 0.0, 0.0, 0.0, 0, 0, 0, 0, 0, 0, 0.9173721075057983, -7.422003269195557, -0.1159517839550972
25115, 0.032654400914907455, -0.18226101994514465, 0.006396944634616375, 0.0004151613684371114, 0.006247155833989382, 0.25949469208717346, 5.913913992117159e-05, -0.0020444814581424, 1.00169038772583, 0.9173721075057983, -7.422003269195557, -0.1159517839550972, 0.0, 0.0, 0.0, 0, 0, 0, 0, 0, 0, 0.9192883372306824, -7.428985118865967, -0.11606799066066742
25125, 0.03307337313890457, -0.18156558275222778, 0.006723498925566673, 0.042729251086711884, -0.16207611560821533, 0.0717502236366272, 0.00015935635019559413, -0.003976535517722368, 1.002252459526062, 0.9192883372306824, -7.428985118865967, -0.11606799066066742, 0.0, 0.0, 0.0, 0, 0, 0, 0, 0, 0, 0.9212077260017395, -7.435969829559326, -0.11618258059024811
25135, 0.03326336294412613, -0.18457473814487457, 0.0069219088181853294, -0.043881047517061234, 0.46196839213371277, 0.07606036216020584, -0.003917507361620665, -0.0038067130371928215, 0.9994115233421326, 0.9212077260017395, -7.435969829559326, -0.11618258059024811, 0.0, 0.0, 0.0, 0, 0, 0, 0, 0, 0, 0.9231288433074951, -7.442958354949951, -0.11629606038331985
25145, 0.03243061900138855, -0.18550558388233185, 0.005593997426331043, -0.11870069801807404, 0.08911748975515366, -0.13563616573810577, -0.0037213920149952173, -0.0021182831842452288, 0.9980305433273315, 0.9231288433074951, -7.442958354949951, -0.11629606038331985, 0.0, 0.0, 0.0, 0, 0, 0, 0, 0, 0, 0.9250497221946716, -7.449950695037842, -0.11641033738851547
25155, 0.03185522183775902, -0.18547415733337402, 0.006722564809024334, -0.20181377232074738, 0.10900793224573135, 0.13028323650360107, -0.0031728900503367186, -0.00392299797385931, 1.0006420612335205, 0.9250497221946716, -7.449950695037842, -0.11641033738851547, 0.0, 0.0, 0.0, 0, 0, 0, 0, 0, 0, 0.9269703030586243, -7.456946849822998, -0.11652534455060959
25165, 0.030851352959871292, -0.18616627156734467, 0.006498181261122227, -0.14948469400405884, -0.01046036183834076, -0.07900040596723557, -0.0016187777509912848, -0.001864562975242734, 0.9985644817352295, 0.9269703030586243, -7.456946849822998, -0.11652534455060959, 0.0, 0.0, 0.0, 0, 0, 0, 0, 0, 0, 0.9288914203643799, -7.463946342468262, -0.11664080619812012
25175, 0.03169932961463928, -0.18509984016418457, 0.005435326602309942, 0.0782950296998024, -0.012174166738986969, 0.08311665058135986, -0.0006770783802494407, -0.0021766142453998327, 0.998832106590271, 0.9288914203643799, -7.463946342468262, -0.11664080619812012, 0.0, 0.0, 0.0, 0, 0, 0, 0, 0, 0, 0.9308143854141235, -7.470948696136475, -0.11675745993852615
25185, 0.031389057636260986, -0.18534016609191895, 0.006218208000063896, -0.04439997673034668, 0.24524228274822235, 0.07877948135137558, -0.0010320842266082764, -0.001283639925532043, 0.9993313550949097, 0.9308143854141235, -7.470948696136475, -0.11675745993852615, 0.0, 0.0, 0.0, 0, 0, 0, 0, 0, 0, 0.932739794254303, -7.4779534339904785, -0.11687522381544113
25195, 0.0313388891518116, -0.185166135430336, 0.006130297668278217, -0.06741511821746826, -0.033907074481248856, 0.18052881956100464, 0.0001282378361793235, -0.003199785714969039, 1.0002923011779785, 0.932739794254303, -7.4779534339904785, -0.11687522381544113, 0.0, 0.0, 0.0, 0, 0, 0, 0, 0, 0, 0.9346676468849182, -7.484960556030273, -0.1169932633638382
25205, 0.032173559069633484, -0.1854872703552246, 0.006180956494063139, 0.07620600610971451, 0.06704244017601013, 0.06219902262091637, -0.0012378133833408356, -0.005363478325307369, 0.9999041557312012, 0.9346676468849182, -7.484960556030273, -0.1169932633638382, 0.0, 0.0, 0.0, 0, 0, 0, 0, 0, 0, 0.936598002910614, -7.491971969604492, -0.11711075156927109
25215, 0.03268633782863617, -0.18383221328258514, 0.006283556576818228, 0.0035002189688384533, -0.12852413952350616, -0.02356400527060032, -0.0002196092827944085, -0.004272541031241417, 1.002071738243103, 0.936598002910614, -7.491971969604492, -0.11711075156927109, 0.0, 0.0, 0.0, 0, 0, 0, 0, 0, 0, 0.9385307431221008, -7.498988628387451, -0.11722727119922638
25225, 0.03315599262714386, -0.18535076081752777, 0.005452596582472324, -0.04074724018573761, 0.35204023122787476, -0.1274825930595398, 0.0003139022155664861, -0.0029517519287765026, 1.0015084743499756, 0.9385307431221008, -7.498988628387451, -0.11722727119922638, 0.0, 0.0, 0.0, 0, 0, 0, 0, 0, 0, 0.9404663443565369, -7.506009101867676, -0.11734231561422348
25235, 0.03322427347302437, -0.18572428822517395, 0.005495490971952677, 0.043498445302248, -0.0657758042216301, -0.0338115394115448, -0.0008145269239321351, -0.001404734910465777, 0.9995972514152527, 0.9404663443565369, -7.506009101867676, -0.11734231561422348, 0.0, 0.0, 0.0, 0, 0, 0, 0, 0, 0, 0.9424048662185669, -7.513032913208008, -0.11745642125606537
25245, 0.033907946199178696, -0.18461033701896667, 0.005858253687620163, -0.08702266961336136, -0.09912049770355225, 0.023233842104673386, -0.0010620058747008443, -0.0025052616838365793, 1.0013295412063599, 0.9424048662185669, -7.513032913208008, -0.11745642125606537, 0.0, 0.0, 0.0, 0, 0, 0, 0, 0, 0, 0.9443456530570984, -7.520059108734131, -0.11757007241249084
25255, 0.03446207940578461, -0.1871592402458191, 0.006345862988382578, 0.04332597553730011, 0.4078494906425476, 0.12056156247854233, -0.000979999778792262, -0.0015752911567687988, 1.0004287958145142, 0.9443456530570984, -7.520059108734131, -0.11757007241249084, 0.0, 0.0, 0.0, 0, 0, 0, 0, 0, 0, 0.9462885856628418, -7.527088165283203, -0.11768295615911484
25265, 0.03342166170477867, -0.18865197896957397, 0.0054342132061719894, -0.07247356325387955, 0.1924082338809967, -0.1942555457353592, -0.0022653723135590553, -0.0030767822172492743, 0.9993095993995667, 0.9462885856628418, -7.527088165283203, -0.11768295615911484, 0.0, 0.0, 0.0, 0, 0, 0, 0, 0, 0, 0.9482332468032837, -7.534119606018066, -0.11779539287090302
25275, 0.03352200984954834, -0.18743497133255005, 0.0036036549136042595, -0.01237643975764513, -0.13239778578281403, -0.24666176736354828, -0.002836422063410282, -0.0043748789466917515, 0.9978213310241699, 0.9482332468032837, -7.534119606018066, -0.11779539287090302, 0.0, 0.0, 0.0, 0, 0, 0, 0, 0, 0, 0.9501787424087524, -7.541154861450195, -0.11790863424539566
25285, 0.03343886882066727, -0.18545186519622803, 0.0033575829584151506, 0.06168967857956886, -0.19374632835388184, 0.0011181519366800785, -0.0015370899345725775, -0.003031715750694275, 0.9992239475250244, 0.9501787424087524, -7.541154861450195, -0.11790863424539566, 0.0, 0.0, 0.0, 0, 0, 0, 0, 0, 0, 0.9521252512931824, -7.548194885253906, -0.11802338063716888
25295, 0.03348877280950546, -0.18742193281650543, 0.002819199115037918, 0.06722188740968704, 0.12554043531417847, 0.021286603063344955, -0.001044106436893344, -0.002635188400745392, 1.000090479850769, 0.9521252512931824, -7.548194885253906, -0.11802338063716888, 0.0, 0.0, 0.0, 0, 0, 0, 0, 0, 0, 0.9540736079216003, -7.555238246917725, -0.11813859641551971
25305, 0.03287593275308609, -0.1864083707332611, 0.002570192562416196, -0.06097088009119034, -0.18274615705013275, 0.005625683814287186, 0.0012000886490568519, -0.0034340419806540012, 0.999433696269989, 0.9540736079216003, -7.555238246917725, -0.11813859641551971, 0.0, 0.0, 0.0, 0, 0, 0, 0, 0, 0, 0.9560248851776123, -7.56228494644165, -0.1182539239525795
25315, 0.03349638357758522, -0.1875389814376831, 0.0024724709801375866, 0.08882807195186615, 0.255647212266922, 0.029401900246739388, -0.0005516332457773387, -0.0029043718241155148, 1.0002338886260986, 0.9560248851776123, -7.56228494644165, -0.1182539239525795, 0.0, 0.0, 0.0, 0, 0, 0, 0, 0, 0, 0.9579795002937317, -7.569335460662842, -0.11836954206228256
25325, 0.0340077169239521, -0.18731102347373962, 0.003912488464266062, 0.01620137132704258, 0.03347793221473694, 0.04781230539083481, 3.465662302915007e-05, -0.0031397915445268154, 1.0019891262054443, 0.9579795002937317, -7.569335460662842, -0.11836954206228256, 0.0, 0.0, 0.0, 0, 0, 0, 0, 0, 0, 0.9599371552467346, -7.576389312744141, -0.11848430335521698
25335, 0.03453092277050018, -0.18839821219444275, 0.005219676531851292, 0.10481410473585129, 0.20230725407600403, 0.0039695855230093, -0.0018994370475411415, -0.001260872115381062, 1.0000689029693604, 0.9599371552467346, -7.576389312744141, -0.11848430335521698, 0.0, 0.0, 0.0, 0, 0, 0, 0, 0, 0, 0.9618971347808838, -7.583446025848389, -0.11859770119190216
25345, 0.033711060881614685, -0.1881413757801056, 0.0037705451250076294, -0.1371481716632843, -0.04654371365904808, -0.28451788425445557, -0.0016243604477494955, -0.0011554373195394874, 0.9984683394432068, 0.9618971347808838, -7.583446025848389, -0.11859770119190216, 0.0, 0.0, 0.0, 0, 0, 0, 0, 0, 0, 0.9638586640357971, -7.5905046463012695, -0.11871125549077988
25355, 0.03490642458200455, -0.18651852011680603, 0.005051217507570982, 0.2136816382408142, -0.10419485718011856, 0.12479009479284286, -0.0018111516255885363, -0.0021037044934928417, 0.9995958805084229, 0.9638586640357971, -7.5905046463012695, -0.11871125549077988, 0.0, 0.0, 0.0, 0, 0, 0, 0, 0, 0, 0.9658218026161194, -7.597565650939941, -0.11882580071687698
25365, 0.034350667148828506, -0.1875341832637787, 0.005189436487853527, -0.14155304431915283, -0.07126794010400772, 0.1278979629278183, -0.0016030712286010385, -0.00389984343200922, 1.0007266998291016, 0.9658218026161194, -7.597565650939941, -0.11882580071687698, 0.0, 0.0, 0.0, 0, 0, 0, 0, 0, 0, 0.9677863717079163, -7.6046295166015625, -0.11894028633832932
25375, 0.034442972391843796, -0.1855592131614685, 0.0046689510345458984, -0.014600205235183239, -0.3905346393585205, 0.09767711162567139, -0.001389544690027833, -0.0032157953828573227, 0.99836266040802, 0.9677863717079163, -7.6046295166015625, -0.11894028633832932, 0.0, 0.0, 0.0, 0, 0, 0, 0, 0, 0, 0.9697527289390564, -7.611697196960449, -0.11905480921268463
25385, 0.035624824464321136, -0.18804588913917542, 0.005267519038170576, 0.1943603754043579, 0.30505457520484924, 0.07806789129972458, -0.0002430939202895388, -0.0034329898189753294, 0.99815833568573, 0.9697527289390564, -7.611697196960449, -0.11905480921268463, 0.0, 0.0, 0.0, 0, 0, 0, 0, 0, 0, 0.9717217087745667, -7.618768215179443, -0.11917075514793396
25395, 0.03464072197675705, -0.18691079318523407, 0.0051743341609835625, -0.22517329454421997, -0.13647861778736115, -0.022640075534582138, -0.002981097437441349, -0.004610124044120312, 1.000353455543518, 0.9717217087745667, -7.618768215179443, -0.11917075514793396, 0.0, 0.0, 0.0, 0, 0, 0, 0, 0, 0, 0.9736927151679993, -7.6258440017700195, -0.11928774416446686
25405, 0.03326220065355301, -0.18538086116313934, 0.004534488078206778, -0.22301727533340454, -0.11540886014699936, -0.08730054646730423, -0.001335205975919962, -0.002100645797327161, 1.0005090236663818, 0.9736927151679993, -7.6258440017700195, -0.11928774416446686, 0.0, 0.0, 0.0, 0, 0, 0, 0, 0, 0, 0.9756648540496826, -7.632923603057861, -0.11940465867519379
25415, 0.03286556899547577, -0.18470734357833862, 0.004533593077212572, -0.05512210726737976, 0.11196710169315338, -0.1702125519514084, -0.0008816982735879719, -0.0010427871020510793, 1.0004197359085083, 0.9756648540496826, -7.632923603057861, -0.11940465867519379, 0.0, 0.0, 0.0, 0, 0, 0, 0, 0, 0, 0.9776387810707092, -7.640006065368652, -0.11952127516269684
25425, 0.03232768177986145, -0.18411514163017273, 0.004291039891541004, -0.1773723065853119, -0.14415305852890015, -0.1429397314786911, -0.00237953569740057, -0.004843949805945158, 1.0024902820587158, 0.9776387810707092, -7.640006065368652, -0.11952127516269684, 0.0, 0.0, 0.0, 0, 0, 0, 0, 0, 0, 0.9796144962310791, -7.647091388702393, -0.11963667720556259
25435, 0.032914888113737106, -0.185015469789505, 0.0024836023803800344, -0.01693296991288662, 0.06973887979984283, -0.17772610485553741, -0.00011557125253602862, -0.0049019623547792435, 1.000984787940979, 0.9796144962310791, -7.647091388702393, -0.11963667720556259, 0.0, 0.0, 0.0, 0, 0, 0, 0, 0, 0, 0.9815919399261475, -7.654181480407715, -0.11975040286779404
25445, 0.03411800041794777, -0.1840941607952118, 0.0022966789547353983, 0.2118779867887497, 0.03542278707027435, 0.1551114022731781, -0.0033636505249887705, -0.004055390600115061, 0.9995157718658447, 0.9815919399261475, -7.654181480407715, -0.11975040286779404, 0.0, 0.0, 0.0, 0, 0, 0, 0, 0, 0, 0.9835708141326904, -7.6612772941589355, -0.11986346542835236
25455, 0.0326676107943058, -0.1847204715013504, 0.0024501411244273186, -0.21288445591926575, 0.14031904935836792, -0.0530683696269989, -0.002695345086976886, -0.00240355939604342, 0.9995692372322083, 0.9835708141326904, -7.6612772941589355, -0.11986346542835236, 0.0, 0.0, 0.0, 0, 0, 0, 0, 0, 0, 0.9855502843856812, -7.668376922607422, -0.11997662484645844
25465, 0.032512638717889786, -0.18417060375213623, 0.0034874442499130964, -0.05792193114757538, -0.19122935831546783, 0.009950250387191772, 4.7289254325733054e-06, -0.0028897072188556194, 0.998853325843811, 0.9855502843856812, -7.668376922607422, -0.11997662484645844, 0.0, 0.0, 0.0, 0, 0, 0, 0, 0, 0, 0.9875310659408569, -7.675479888916016, -0.12009038031101227
25475, 0.03267326578497887, -0.1821793168783188, 0.0047677201218903065, -0.009882389567792416, -0.17676103115081787, 0.13538821041584015, -0.0012336635263636708, -0.0029208618216216564, 1.0000900030136108, 0.9875310659408569, -7.675479888916016, -0.12009038031101227, 0.0, 0.0, 0.0, 0, 0, 0, 0, 0, 0, 0.9895142912864685, -7.682586193084717, -0.12020479142665863
25485, 0.03278053551912308, -0.18134959042072296, 0.0038242770824581385, -0.037054937332868576, 0.04104798659682274, -0.09826409816741943, -0.0019112539011985064, -0.0022137886844575405, 1.0016158819198608, 0.9895142912864685, -7.682586193084717, -0.12020479142665863, 0.0, 0.0, 0.0, 0, 0, 0, 0, 0, 0, 0.9914995431900024, -7.689695835113525, -0.120318703353405
25495, 0.032266274094581604, -0.1793096363544464, 0.0031801178120076656, -0.04357309639453888, -0.22186020016670227, -0.05394717678427696, -0.0016656621592119336, -0.0008261023904196918, 1.0005124807357788, 0.9914995431900024, -7.689695835113525, -0.120318703353405, 0.0, 0.0, 0.0, 0, 0, 0, 0, 0, 0, 0.9934861660003662, -7.696807861328125, -0.12043152004480362
25505, 0.032697346061468124, -0.17874982953071594, 0.0032954937778413296, 0.01486127357929945, -0.0611359104514122, 0.10041417181491852, -0.00040010936209000647, -0.001426968490704894, 1.000038981437683, 0.9934861660003662, -7.696807861328125, -0.12043152004480362, 0.0, 0.0, 0.0, 0, 0, 0, 0, 0, 0, 0.9954744577407837, -7.703921794891357, -0.12054403126239777
25515, 0.03247443959116936, -0.17816156148910522, 0.003113600192591548, -0.020033853128552437, -0.1438484489917755, 0.1722589135169983, -0.00015535236161667854, -0.003144672140479088, 0.9995037913322449, 0.9954744577407837, -7.703921794891357, -0.12054403126239777, 0.0, 0.0, 0.0, 0, 0, 0, 0, 0, 0, 0.9974654316902161, -7.711038112640381, -0.12065691500902176
25525, 0.03261371701955795, -0.17811426520347595, 0.0040940409526228905, -0.1862030029296875, -0.029576290398836136, 0.04684295132756233, -0.001277552219107747, -0.002758028917014599, 1.0005890130996704, 0.9974654316902161, -7.711038112640381, -0.12065691500902176, 0.0, 0.0, 0.0, 0, 0, 0, 0, 0, 0, 0.9994589686393738, -7.718157768249512, -0.12077004462480545
25535, 0.03371737524867058, -0.18014666438102722, 0.003173303557559848, 0.09152372926473618, 0.11892145127058029, -0.02658691816031933, -0.0014377485495060682, -0.0028749152552336454, 0.9994181394577026, 0.9994589686393738, -7.718157768249512, -0.12077004462480545, 0.0, 0.0, 0.0, 0, 0, 0, 0, 0, 0, 1.00145423412323, -7.72528076171875, -0.12088316679000854
25545, 0.033629048615694046, -0.1806638389825821, 0.0027741172816604376, 0.052420929074287415, 0.09835152328014374, 0.01572471298277378, -0.0012872453080490232, -0.003974290564656258, 1.001313328742981, 1.00145423412323, -7.72528076171875, -0.12088316679000854, 0.0, 0.0, 0.0, 0, 0, 0, 0, 0, 0, 1.0034511089324951, -7.732407569885254, -0.12099593877792358
25555, 0.03368246182799339, -0.18142612278461456, 0.003764066845178604, 0.04796735569834709, 0.1345493197441101, 0.1569988876581192, -0.0007237260579131544, -0.004444099497050047, 1.001267433166504, 1.0034511089324951, -7.732407569885254, -0.12099593877792358, 0.0, 0.0, 0.0, 0, 0, 0, 0, 0, 0, 1.0054501295089722, -7.73953914642334, -0.12110750377178192
25565, 0.033673468977212906, -0.18249455094337463, 0.0031742278952151537, 0.09408354759216309, 0.3150534927845001, -0.07224033027887344, -0.000539178668987006, -0.0031493068672716618, 0.9998947381973267, 1.0054501295089722, -7.73953914642334, -0.12110750377178192, 0.0, 0.0, 0.0, 0, 0, 0, 0, 0, 0, 1.0074515342712402, -7.74667501449585, -0.12121820449829102
25575, 0.033798106014728546, -0.18133153021335602, 0.0025328861083835363, -0.1250113695859909, -0.029997695237398148, -0.16331976652145386, -0.0006358637474477291, -0.0032054921612143517, 0.999443769454956, 1.0074515342712402, -7.74667501449585, -0.12121820449829102, 0.0, 0.0, 0.0, 0, 0, 0, 0, 0, 0, 1.0094553232192993, -7.753814697265625, -0.12132897973060608
25585, 0.03292176127433777, -0.18151050806045532, 0.0028269272297620773, -0.0486697219312191, 0.03077860176563263, 0.006893793120980263, 0.00019101642828900367, -0.004301705397665501, 0.9994872212409973, 1.0094553232192993, -7.753814697265625, -0.12132897973060608, 0.0, 0.0, 0.0, 0, 0, 0, 0, 0, 0, 1.011461615562439, -7.760958671569824, -0.12144017219543457
25595, 0.03356903791427612, -0.18166518211364746, 0.002616893732920289, 0.08030880242586136, 0.11943650245666504, 0.021249014884233475, -0.0005946645978838205, -0.0033240513876080513, 1.0011893510818481, 1.011461615562439, -7.760958671569824, -0.12144017219543457, 0.0, 0.0, 0.0, 0, 0, 0, 0, 0, 0, 1.0134706497192383, -7.768106937408447, -0.12155132740736008
25605, 0.03445719927549362, -0.18244892358779907, 0.0020894366316497326, 0.1480630487203598, -0.1506563425064087, 0.03137208893895149, -0.0008751333807595074, -0.0022169137373566628, 0.9992713332176208, 1.0134706497192383, -7.768106937408447, -0.12155132740736008, 0.0, 0.0, 0.0, 0, 0, 0, 0, 0, 0, 1.0154820680618286, -7.775258541107178, -0.12166214734315872
25615, 0.03444404900074005, -0.18256178498268127, 0.0020542312413454056, 0.081551693379879, -0.0693080946803093, -0.028647318482398987, 6.263880641199648e-05, -0.0028676630463451147, 1.000329613685608, 1.0154820680618286, -7.775258541107178, -0.12166214734315872, 0.0, 0.0, 0.0, 0, 0, 0, 0, 0, 0, 1.0174962282180786, -7.782413005828857, -0.12177305668592453
25625, 0.033234089612960815, -0.18124662339687347, 0.0014817959163337946, -0.15465384721755981, 0.026883479207754135, 0.01145214308053255, -0.0035493355244398117, -0.001523652346804738, 1.0016043186187744, 1.0174962282180786, -7.782413005828857, -0.12177305668592453, 0.0, 0.0, 0.0, 0, 0, 0, 0, 0, 0, 1.0195122957229614, -7.789570331573486, -0.12188330292701721
25635, 0.03416562080383301, -0.18340004980564117, 0.0018714404432103038, 0.08356723189353943, 0.17606493830680847, 0.09127353876829147, -0.0017640764126554132, -0.0026827130932360888, 0.9976781010627747, 1.0195122957229614, -7.789570331573486, -0.12188330292701721, 0.0, 0.0, 0.0, 0, 0, 0, 0, 0, 0, 1.0215288400650024, -7.7967305183410645, -0.12199333310127258
25645, 0.033665213733911514, -0.18453168869018555, 0.0022103211376816034, -0.03394262120127678, 0.019251884892582893, 0.15002982318401337, -0.0005028204759582877, -0.0035053894389420748, 1.000192642211914, 1.0215288400650024, -7.7967305183410645, -0.12199333310127258, 0.0, 0.0, 0.0, 0, 0, 0, 0, 0, 0, 1.023546814918518, -7.80389404296875, -0.12210429459810257
25655, 0.033987972885370255, -0.18690858781337738, 0.0018273992463946342, 0.08616475015878677, 0.14148962497711182, -0.05665542557835579, -0.0011934393551200628, -0.004223874770104885, 1.0014845132827759, 1.023546814918518, -7.80389404296875, -0.12210429459810257, 0.0, 0.0, 0.0, 0, 0, 0, 0, 0, 0, 1.0255671739578247, -7.811061859130859, -0.12221477925777435
25665, 0.032685719430446625, -0.18728767335414886, 0.0008935710065998137, -0.21350523829460144, 0.1084991917014122, -0.10037654638290405, -0.0015940741868689656, -0.0022562132216989994, 1.000072956085205, 1.0255671739578247, -7.811061859130859, -0.12221477925777435, 0.0, 0.0, 0.0, 0, 0, 0, 0, 0, 0, 1.0275895595550537, -7.818233489990234, -0.1223241314291954
25675, 0.033137738704681396, -0.19059693813323975, 0.0009357543895021081, 0.0948677659034729, 0.4553740918636322, -0.10663928836584091, -0.0011701964540407062, -0.003421577624976635, 1.000538945198059, 1.0275895595550537, -7.818233489990234, -0.1223241314291954, 0.0, 0.0, 0.0, 0, 0, 0, 0, 0, 0, 1.0296138525009155, -7.825408458709717, -0.12243310362100601
25685, 0.03368378430604935, -0.18998777866363525, 0.0007141473470255733, 0.22750404477119446, -0.003972851671278477, -0.08857277780771255, -0.002348591573536396, -0.0007775488193146884, 0.9999872446060181, 1.0296138525009155, -7.825408458709717, -0.12243310362100601, 0.0, 0.0, 0.0, 0, 0, 0, 0, 0, 0, 1.0316400527954102, -7.832586288452148, -0.1225421279668808
25695, 0.03386343643069267, -0.19095683097839355, -0.00017383054364472628, 0.034245580434799194, 0.04060690850019455, -0.26769909262657166, 0.0006755600916221738, -0.0017651256639510393, 1.0020112991333008, 1.0316400527954102, -7.832586288452148, -0.1225421279668808, 0.0, 0.0, 0.0, 0, 0, 0, 0, 0, 0, 1.0336685180664062, -7.839766502380371, -0.12265027314424515
25705, 0.03297297656536102, -0.18969422578811646, 5.503873398993164e-05, -0.16393089294433594, -0.12493061274290085, -0.07860884070396423, -0.0005474528297781944, -0.00328362756408751, 1.0005751848220825, 1.0336685180664062, -7.839766502380371, -0.12265027314424515, 0.0, 0.0, 0.0, 0, 0, 0, 0, 0, 0, 1.0357002019882202, -7.846949577331543, -0.12275710701942444
25715, 0.033013686537742615, -0.19005349278450012, -0.0010533422464504838, -0.1129314973950386, -0.05644632875919342, -0.1301567256450653, -0.0027621465269476175, -0.0027705051470547915, 0.9993700385093689, 1.0357002019882202, -7.846949577331543, -0.12275710701942444, 0.0, 0.0, 0.0, 0, 0, 0, 0, 0, 0, 1.0377343893051147, -7.854135513305664, -0.12286358326673508
25725, 0.03257785364985466, -0.18962015211582184, -0.0004533252795226872, -0.05344574898481369, -0.10398617386817932, -0.08276302367448807, -0.0026619359850883484, -0.0013468853430822492, 0.999417245388031, 1.0377343893051147, -7.854135513305664, -0.12286358326673508, 0.0, 0.0, 0.0, 0, 0, 0, 0, 0, 0, 1.0397694110870361, -7.861324310302734, -0.12297042459249496
25735, 0.03296433016657829, -0.18947163224220276, -5.664420314133167e-05, 0.13245844841003418, -0.047013018280267715, -0.03148612007498741, -0.0013783875619992614, -3.387842752999859e-07, 1.0012692213058472, 1.0397694110870361, -7.861324310302734, -0.12297042459249496, 0.0, 0.0, 0.0, 0, 0, 0, 0, 0, 0, 1.0418052673339844, -7.8685150146484375, -0.12307745963335037
25745, 0.03271658718585968, -0.19036854803562164, -0.00018358477973379195, 0.0013603249099105597, 0.17987781763076782, 0.10148918628692627, 0.0007780577871017158, -0.0017621160950511694, 1.000698447227478, 1.0418052673339844, -7.8685150146484375, -0.12307745963335037, 0.0, 0.0, 0.0, 0, 0, 0, 0, 0, 0, 1.0438436269760132, -7.875707149505615, -0.12318344414234161
25755, 0.03331607207655907, -0.19021305441856384, -0.00023045222042128444, 0.05993654578924179, -0.04967726394534111, -0.013050733134150505, -0.0013342282036319375, -0.0008748715627007186, 1.0005173683166504, 1.0438436269760132, -7.875707149505615, -0.12318344414234161, 0.0, 0.0, 0.0, 0, 0, 0, 0, 0, 0, 1.0458853244781494, -7.882900714874268, -0.12328848987817764
25765, 0.03386996313929558, -0.19003838300704956, 0.00034935466828756034, 0.10430530458688736, -0.022904638200998306, 0.07411070913076401, -0.0009409955819137394, -0.0012743169208988547, 1.0009095668792725, 1.0458853244781494, -7.882900714874268, -0.12328848987817764, 0.0, 0.0, 0.0, 0, 0, 0, 0, 0, 0, 1.047929286956787, -7.8900957107543945, -0.12339317053556442
25775, 0.03372259438037872, -0.189274400472641, 0.0005705799558199942, 0.08225679397583008, -0.11260630935430527, -0.055228378623723984, -0.000538744090590626, -0.0025873088743537664, 0.9995056986808777, 1.047929286956787, -7.8900957107543945, -0.12339317053556442, 0.0, 0.0, 0.0, 0, 0, 0, 0, 0, 0, 1.0499756336212158, -7.897292613983154, -0.12349744886159897
25785, 0.032950710505247116, -0.18940989673137665, -7.441085472237319e-05, 0.01681036502122879, -0.006746435072273016, -0.039106253534555435, -0.003288407577201724, -0.0014317777240648866, 0.9991198778152466, 1.0499756336212158, -7.897292613983154, -0.12349744886159897, 0.0, 0.0, 0.0, 0, 0, 0, 0, 0, 0, 1.052024006843567, -7.904492378234863, -0.12360214442014694
25795, 0.033132463693618774, -0.1863320916891098, 0.0005578970303758979, -0.026491152122616768, -0.37622109055519104, 0.16087277233600616, -0.0034391353838145733, -0.0008093374199233949, 1.0003119707107544, 1.052024006843567, -7.904492378234863, -0.12360214442014694, 0.0, 0.0, 0.0, 0, 0, 0, 0, 0, 0, 1.0540728569030762, -7.911694526672363, -0.12370751798152924
25805, 0.03338253125548363, -0.18472738564014435, 6.761790427844971e-05, 0.010827773250639439, -0.07222893834114075, -0.18498757481575012, -0.0015114620327949524, -0.002121858298778534, 1.0008820295333862, 1.0540728569030762, -7.911694526672363, -0.12370751798152924, 0.0, 0.0, 0.0, 0, 0, 0, 0, 0, 0, 1.0561221837997437, -7.918898582458496, -0.12381250411272049
25815, 0.03295417129993439, -0.18712858855724335, 0.0009059251751750708, -0.019031133502721786, 0.3549589514732361, -0.008281162939965725, -0.0014847895363345742, -0.0033758413046598434, 0.999652624130249, 1.0561221837997437, -7.918898582458496, -0.12381250411272049, 0.0, 0.0, 0.0, 0, 0, 0, 0, 0, 0, 1.0583778619766235, -7.926826000213623, -0.12392762303352356
25825, 0.03339996561408043, -0.18804889917373657, -0.000412423542002216, -0.0793539509177208, 0.22714857757091522, -0.1477263867855072, -0.0013830772368237376, -0.002401551930233836, 1.0001435279846191, 1.0583778619766235, -7.926826000213623, -0.12392762303352356, 0.0, 0.0, 0.0, 0, 0, 0, 0, 0, 0, 1.0583778619766235, -7.926826000213623, -0.12392762303352356
25835, 0.03249400109052658, -0.18933159112930298, 0.0011846935376524925, -0.025527415797114372, 0.2212655395269394, 0.20459873974323273, -0.0018065090989694, -0.004329337738454342, 1.0015208721160889, 1.0604302883148193, -7.9340362548828125, -0.12403231114149094, 0.0, 0.0, 0.0, 0, 0, 0, 0, 0, 0, 1.0604302883148193, -7.9340362548828125, -0.12403231114149094
25845, 0.031600385904312134, -0.18998901546001434, 0.0021606613881886005, 0.12077917158603668, -0.004534883890300989, 0.1681051254272461, -0.005260322242975235, -0.004579175263643265, 1.0006744861602783, 1.0626897811889648, -7.941971778869629, -0.12414644658565521, 0.0, 0.0, 0.0, 0, 0, 0, 0, 0, 0, 1.0626897811889648, -7.941971778869629, -0.12414644658565521
25855, 0.030508268624544144, -0.18946464359760284, 0.0026322086341679096, -0.0361427403986454, -0.05865371227264404, 0.027126530185341835, -0.0044855112209916115, -0.00533655658364296, 1.0001006126403809, 1.064743995666504, -7.949191093444824, -0.12424885481595993, 0.0, 0.0, 0.0, 0, 0, 0, 0, 0, 0, 1.064743995666504, -7.949191093444824, -0.12424885481595993
25865, 0.030925294384360313, -0.18920013308525085, 0.0023888819850981236, 0.11302304267883301, 0.081264927983284, -0.13710126280784607, -0.0011806529946625233, -0.005057141650468111, 1.000218152999878, 1.0667970180511475, -7.95641565322876, -0.1243506595492363, 0.0, 0.0, 0.0, 0, 0, 0, 0, 0, 0, 1.0667970180511475, -7.95641565322876, -0.1243506595492363
25875, 0.03054160624742508, -0.18900734186172485, 0.0037230339366942644, -0.04039978235960007, -0.0007396275759674609, 0.21075065433979034, -0.001676069339737296, -0.003125979797914624, 0.9996315240859985, 1.0688502788543701, -7.9636454582214355, -0.12445248663425446, 0.0, 0.0, 0.0, 0, 0, 0, 0, 0, 0, 1.0688502788543701, -7.9636454582214355, -0.12445248663425446
25885, 0.03069429099559784, -0.18986999988555908, 0.004146710969507694, 0.0031773746013641357, 0.0749831274151802, -0.03173140436410904, -0.0023881366942077875, -0.0030279764905571938, 0.9994508624076843, 1.070905089378357, -7.970880031585693, -0.12455449253320694, 0.0, 0.0, 0.0, 0, 0, 0, 0, 0, 0, 1.070905089378357, -7.970880031585693, -0.12455449253320694
25895, 0.031563326716423035, -0.18824343383312225, 0.004500307142734528, 0.10981741547584534, -0.19298593699932098, 0.009550567716360092, -0.0001754645345499739, -0.003771847812458873, 1.0005706548690796, 1.0729612112045288, -7.978118419647217, -0.1246568039059639, 0.0, 0.0, 0.0, 0, 0, 0, 0, 0, 0, 1.0729612112045288, -7.978118419647217, -0.1246568039059639
25905, 0.031009100377559662, -0.18766416609287262, 0.004626159556210041, -0.1203153133392334, -0.09220968931913376, 0.01611909084022045, -0.001738854218274355, -0.0030931367073208094, 1.0006808042526245, 1.0750194787979126, -7.985360622406006, -0.12475896626710892, 0.0, 0.0, 0.0, 0, 0, 0, 0, 0, 0, 1.0750194787979126, -7.985360622406006, -0.12475896626710892
25915, 0.030737387016415596, -0.1887747347354889, 0.004357681144028902, 0.013077878393232822, 0.029470713809132576, -0.019176745787262917, -0.0020858345087617636, -0.0040328665636479855, 1.0009331703186035, 1.0770801305770874, -7.9926066398620605, -0.12486051023006439, 0.0, 0.0, 0.0, 0, 0, 0, 0, 0, 0, 1.0770801305770874, -7.9926066398620605, -0.12486051023006439
25925, 0.030329206958413124, -0.18892568349838257, 0.0039125909097492695, -0.0711759477853775, 0.05870281904935837, -0.25194624066352844, -0.0020424446556717157, -0.0030804427806288004, 0.9987713694572449, 1.079142451286316, -7.999856472015381, -0.12496142834424973, 0.0, 0.0, 0.0, 0, 0, 0, 0, 0, 0, 1.079142451286316, -7.999856472015381, -0.12496142834424973
25935, 0.030484292656183243, -0.19073162972927094, 0.006641855463385582, 0.019278598949313164, 0.2903408706188202, 0.4481911361217499, 4.55549597973004e-05, -0.0019213496707379818, 0.9995142817497253, 1.0812060832977295, -8.007110595703125, -0.12506230175495148, 0.0, 0.0, 0.0, 0, 0, 0, 0, 0, 0, 1.0812060832977295, -8.007110595703125, -0.12506230175495148
25945, 0.030688535422086716, -0.1893969476222992, 0.00585492979735136, -0.010423005558550358, -0.11410686373710632, -0.02089713141322136, -0.0004950703005306423, -0.0020708118099719286, 1.0022494792938232, 1.083271861076355, -8.014368057250977, -0.12516358494758606, 0.0, 0.0, 0.0, 0, 0, 0, 0, 0, 0, 1.083271861076355, -8.014368057250977, -0.12516358494758606
25955, 0.031136272475123405, -0.18731652200222015, 0.006468282081186771, 0.02589666098356247, -0.1571013331413269, 0.12013998627662659, 0.0003359827969688922, -0.00397137738764286, 0.9992476105690002, 1.0853407382965088, -8.021627426147461, -0.1252640038728714, 0.0, 0.0, 0.0, 0, 0, 0, 0, 0, 0, 1.0853407382965088, -8.021627426147461, -0.1252640038728714
25965, 0.03067086637020111, -0.18804772198200226, 0.006027672905474901, -0.0833309069275856, 0.16981038451194763, -0.06976152956485748, -0.0018450034549459815, -0.0028695689979940653, 0.9991529583930969, 1.0874128341674805, -8.028889656066895, -0.12536363303661346, 0.0, 0.0, 0.0, 0, 0, 0, 0, 0, 0, 1.0874128341674805, -8.028889656066895, -0.12536363303661346
25975, 0.03107166290283203, -0.18554088473320007, 0.005891053471714258, 0.0799560546875, -0.3346923589706421, 0.05921948701143265, -0.0028279824182391167, -0.0016059589106589556, 0.9998626112937927, 1.0894874334335327, -8.036155700683594, -0.12546388804912567, 0.0, 0.0, 0.0, 0, 0, 0, 0, 0, 0, 1.0894874334335327, -8.036155700683594, -0.12546388804912567
25985, 0.03079625405371189, -0.18521878123283386, 0.006073974072933197, -0.08356200158596039, -0.10013841092586517, 0.010421479120850563, -0.0023202579468488693, 0.0005476274527609348, 1.0006834268569946, 1.0915629863739014, -8.043425559997559, -0.12556470930576324, 0.0, 0.0, 0.0, 0, 0, 0, 0, 0, 0, 1.0915629863739014, -8.043425559997559, -0.12556470930576324
25995, 0.031407684087753296, -0.1859675645828247, 0.008030472323298454, 0.03208222985267639, 0.2889222502708435, 0.380470335483551, -0.0011311492417007685, 0.00033121780143119395, 1.000763177871704, 1.0936391353607178, -8.05069637298584, -0.12566544115543365, 0.0, 0.0, 0.0, 0, 0, 0, 0, 0, 0, 1.0936391353607178, -8.05069637298584, -0.12566544115543365
26005, 0.03153747692704201, -0.18637289106845856, 0.006377084646373987, 0.03153453394770622, 0.04740447178483009, -0.09027057141065598, -0.00022234508651308715, -0.0024418295361101627, 1.0009689331054688, 1.0957168340682983, -8.057967185974121, -0.1257656365633011, 0.0, 0.0, 0.0, 0, 0, 0, 0, 0, 0, 1.0957168340682983, -8.057967185974121, -0.1257656365633011
26015, 0.032014619559049606, -0.18590813875198364, 0.006521629635244608, -0.028358854353427887, -0.18461738526821136, 0.1513742357492447, -0.00269189546816051, -0.0036312262527644634, 1.000260829925537, 1.09779691696167, -8.065239906311035, -0.1258651167154312, 0.0, 0.0, 0.0, 0, 0, 0, 0, 0, 0, 1.09779691696167, -8.065239906311035, -0.1258651167154312
26025, 0.03223155811429024, -0.18493635952472687, 0.00577688030898571, -0.04521160572767258, -0.06014803797006607, -0.07823176681995392, -0.0015869946219027042, -0.002440058160573244, 1.0003169775009155, 1.0998787879943848, -8.072515487670898, -0.12596414983272552, 0.0, 0.0, 0.0, 0, 0, 0, 0, 0, 0, 1.0998787879943848, -8.072515487670898, -0.12596414983272552
26035, 0.03199266269803047, -0.18443384766578674, 0.003879901487380266, -0.030322423204779625, -0.06383778899908066, -0.2380174845457077, -0.0011002920800819993, -0.0017360622296109796, 0.9993170499801636, 1.1019618511199951, -8.079794883728027, -0.1260630190372467, 0.0, 0.0, 0.0, 0, 0, 0, 0, 0, 0, 1.1019618511199951, -8.079794883728027, -0.1260630190372467
26045, 0.031070983037352562, -0.18428178131580353, 0.0033540786243975163, -0.07469163835048676, -0.11529261618852615, 0.04067669436335564, -0.0018100397428497672, -0.00041266175685450435, 0.9986351132392883, 1.1040467023849487, -8.087076187133789, -0.1261620670557022, 0.0, 0.0, 0.0, 0, 0, 0, 0, 0, 0, 1.1040467023849487, -8.087076187133789, -0.1261620670557022
26055, 0.03065401315689087, -0.18516632914543152, 0.002859376836568117, 0.03422277793288231, 0.02231949009001255, -0.2138296514749527, -0.0014962784480303526, -0.0030989099759608507, 1.000698208808899, 1.1061333417892456, -8.094359397888184, -0.12626194953918457, 0.0, 0.0, 0.0, 0, 0, 0, 0, 0, 0, 1.1061333417892456, -8.094359397888184, -0.12626194953918457
26065, 0.03158536180853844, -0.18451057374477386, 0.0023506798315793276, 0.12917380034923553, 0.014408784918487072, -0.044165752828121185, -0.0022798057179898024, -0.00464807590469718, 1.0003035068511963, 1.1082215309143066, -8.101644515991211, -0.1263621300458908, 0.0, 0.0, 0.0, 0, 0, 0, 0, 0, 0, 1.1082215309143066, -8.101644515991211, -0.1263621300458908
26075, 0.03130432218313217, -0.18512199819087982, 0.003177118021994829, -0.07679148018360138, 0.048394445329904556, 0.1616806983947754, -0.0009454492828808725, -0.0023320310283452272, 1.0019649267196655, 1.1103112697601318, -8.108933448791504, -0.12646183371543884, 0.0, 0.0, 0.0, 0, 0, 0, 0, 0, 0, 1.1103112697601318, -8.108933448791504, -0.12646183371543884
26085, 0.031195932999253273, -0.18330539762973785, 0.004030162468552589, 0.09465380012989044, -0.308003693819046, 0.14244478940963745, -0.0007317306008189917, -0.0020756435114890337, 1.0005840063095093, 1.1124026775360107, -8.116226196289062, -0.12656040489673615, 0.0, 0.0, 0.0, 0, 0, 0, 0, 0, 0, 1.1124026775360107, -8.116226196289062, -0.12656040489673615
26095, 0.031169530004262924, -0.18261981010437012, 0.0036213137209415436, -0.027838656678795815, 0.00913398340344429, -0.04257122054696083, 0.00019272405188530684, -0.002995341084897518, 1.0014671087265015, 1.1144964694976807, -8.12352180480957, -0.12665759027004242, 0.0, 0.0, 0.0, 0, 0, 0, 0, 0, 0, 1.1144964694976807, -8.12352180480957, -0.12665759027004242
26105, 0.03015035018324852, -0.18250437080860138, 0.0033458119723945856, -0.15663324296474457, 0.09247848391532898, -0.03573116287589073, 0.001945686643011868, -0.0034792900551110506, 0.9993208646774292, 1.116593360900879, -8.130821228027344, -0.12675367295742035, 0.0, 0.0, 0.0, 0, 0, 0, 0, 0, 0, 1.116593360900879, -8.130821228027344, -0.12675367295742035
26115, 0.030782053247094154, -0.18227402865886688, 0.003455444471910596, 0.11000144481658936, -0.17309947311878204, -0.024244248867034912, -0.0028088768012821674, -0.003657026682049036, 0.998012125492096, 1.1186941862106323, -8.138123512268066, -0.12684938311576843, 0.0, 0.0, 0.0, 0, 0, 0, 0, 0, 0, 1.1186941862106323, -8.138123512268066, -0.12684938311576843
26125, 0.03149748966097832, -0.18159113824367523, 0.0028575491160154343, 0.18853145837783813, -0.14789386093616486, -0.06029660254716873, -0.002466599689796567, -0.004008125048130751, 0.9967029690742493, 1.1207976341247559, -8.145429611206055, -0.12694625556468964, 0.0, 0.0, 0.0, 0, 0, 0, 0, 0, 0, 1.1207976341247559, -8.145429611206055, -0.12694625556468964
26135, 0.0320807546377182, -0.1825040578842163, 0.002738033188506961, 0.008557717315852642, 0.2585165202617645, 0.019101759418845177, -0.0031067756935954094, -0.003594488836824894, 0.9992350339889526, 1.1229016780853271, -8.152740478515625, -0.127045676112175, 0.0, 0.0, 0.0, 0, 0, 0, 0, 0, 0, 1.1229016780853271, -8.152740478515625, -0.127045676112175
26145, 0.03173653408885002, -0.18150322139263153, 0.0024999212473630905, -0.12129499018192291, 0.0005577633855864406, -0.08602269738912582, -0.003048588987439871, -0.002465844852849841, 1.002700924873352, 1.1250061988830566, -8.160056114196777, -0.12714716792106628, 0.0, 0.0, 0.0, 0, 0, 0, 0, 0, 0, 1.1250061988830566, -8.160056114196777, -0.12714716792106628
26155, 0.03180655464529991, -0.17904004454612732, 0.0023458010982722044, 0.08802507072687149, -0.11889956891536713, -0.054647296667099, -0.0012533386470749974, -0.0006914552068337798, 1.000949740409851, 1.1271109580993652, -8.167374610900879, -0.12724800407886505, 0.0, 0.0, 0.0, 0, 0, 0, 0, 0, 0, 1.1271109580993652, -8.167374610900879, -0.12724800407886505
26165, 0.03139742463827133, -0.18023712933063507, 0.0023947134613990784, -0.09286114573478699, 0.3104138672351837, -0.022182563319802284, 0.0003299614763818681, -0.001335862441919744, 0.9985665678977966, 1.1292167901992798, -8.17469596862793, -0.12734732031822205, 0.0, 0.0, 0.0, 0, 0, 0, 0, 0, 0, 1.1292167901992798, -8.17469596862793, -0.12734732031822205
26175, 0.031497132033109665, -0.1815730482339859, 0.0018946802010759711, -0.06421797722578049, 0.11152263730764389, -0.06901563704013824, -0.0006276516360230744, -0.0038813957944512367, 0.999927282333374, 1.1313250064849854, -8.182019233703613, -0.12744668126106262, 0.0, 0.0, 0.0, 0, 0, 0, 0, 0, 0, 1.1313250064849854, -8.182019233703613, -0.12744668126106262
26185, 0.03212502971291542, -0.18292224407196045, 0.0020756989251822233, 0.08261937648057938, 0.16485123336315155, -0.03435245156288147, -0.0004021288768853992, -0.002949362387880683, 1.0010775327682495, 1.1334359645843506, -8.189345359802246, -0.12754660844802856, 0.0, 0.0, 0.0, 0, 0, 0, 0, 0, 0, 1.1334359645843506, -8.189345359802246, -0.12754660844802856
26195, 0.033365871757268906, -0.1815524399280548, 0.0017442232929170132, 0.06845667213201523, -0.09199915081262589, -0.04016471281647682, -0.00239141215570271, -0.003694041632115841, 1.0012214183807373, 1.1355494260787964, -8.196675300598145, -0.12764614820480347, 0.0, 0.0, 0.0, 0, 0, 0, 0, 0, 0, 1.1355494260787964, -8.196675300598145, -0.12764614820480347
26205, 0.032752491533756256, -0.1830933690071106, 0.0025929203256964684, -0.07659751921892166, 0.2342408299446106, 0.01649302802979946, -0.0022432024125009775, -0.0010908497497439384, 1.0015347003936768, 1.137664556503296, -8.204009056091309, -0.1277446448802948, 0.0, 0.0, 0.0, 0, 0, 0, 0, 0, 0, 1.137664556503296, -8.204009056091309, -0.1277446448802948
26215, 0.03130423650145531, -0.18337345123291016, 0.0026151060592383146, -0.24933090806007385, -0.021680695936083794, -0.13414154946804047, -0.0027441137935966253, -0.002520582638680935, 1.0002676248550415, 1.1397805213928223, -8.211345672607422, -0.12784191966056824, 0.0, 0.0, 0.0, 0, 0, 0, 0, 0, 0, 1.1397805213928223, -8.211345672607422, -0.12784191966056824
26225, 0.0325280986726284, -0.1841028481721878, 0.0027854458894580603, 0.11235591769218445, 0.2351573407649994, -0.0984797552227974, -0.000712849257979542, -0.002192332409322262, 1.0006890296936035, 1.141897201538086, -8.218685150146484, -0.12793847918510437, 0.0, 0.0, 0.0, 0, 0, 0, 0, 0, 0, 1.141897201538086, -8.218685150146484, -0.12793847918510437
26235, 0.03271268308162689, -0.18313732743263245, 0.002025590045377612, 0.03951451927423477, -0.2363695204257965, -0.20992781221866608, -0.0009258906939066947, -0.0031443838961422443, 0.9987766742706299, 1.1440151929855347, -8.226027488708496, -0.12803475558757782, 0.0, 0.0, 0.0, 0, 0, 0, 0, 0, 0, 1.1440151929855347, -8.226027488708496, -0.12803475558757782
26245, 0.03276031091809273, -0.18453529477119446, 0.0017516282387077808, 0.10119647532701492, 0.17200863361358643, -0.08328790217638016, 0.0013681211275979877, -0.0038876577746123075, 1.0002940893173218, 1.1461355686187744, -8.233372688293457, -0.12813115119934082, 0.0, 0.0, 0.0, 0, 0, 0, 0, 0, 0, 1.1461355686187744, -8.233372688293457, -0.12813115119934082
26255, 0.03204265609383583, -0.1858866959810257, 0.0015604998916387558, -0.015500253066420555, 0.30578839778900146, 0.020419562235474586, -0.0005790162831544876, -0.004302569665014744, 0.9981921315193176, 1.1482595205307007, -8.240721702575684, -0.12822796404361725, 0.0, 0.0, 0.0, 0, 0, 0, 0, 0, 0, 1.1482595205307007, -8.240721702575684, -0.12822796404361725
26265, 0.03284940496087074, -0.18562033772468567, 0.002419280121102929, 0.1248151883482933, -0.024585124105215073, 0.0700359120965004, -0.0018858015537261963, -0.0053230212070047855, 0.9976041913032532, 1.150387167930603, -8.248075485229492, -0.12832558155059814, 0.0, 0.0, 0.0, 0, 0, 0, 0, 0, 0, 1.150387167930603, -8.248075485229492, -0.12832558155059814
26275, 0.03252345323562622, -0.18767422437667847, 0.002669291803613305, -0.06071927025914192, 0.32024896144866943, 0.058032482862472534, -0.002405325649306178, -0.004143784753978252, 1.0020898580551147, 1.1525168418884277, -8.2554349899292, -0.1284250169992447, 0.0, 0.0, 0.0, 0, 0, 0, 0, 0, 0, 1.1525168418884277, -8.2554349899292, -0.1284250169992447
26285, 0.030659539625048637, -0.1872166097164154, 0.0014966714661568403, -0.20164567232131958, -0.1437799334526062, -0.2842276692390442, -0.0024681873619556427, -0.005847953259944916, 0.9997274279594421, 1.1546474695205688, -8.262799263000488, -0.1285247951745987, 0.0, 0.0, 0.0, 0, 0, 0, 0, 0, 0, 1.1546474695205688, -8.262799263000488, -0.1285247951745987
26295, 0.030295303091406822, -0.1868380457162857, 0.002189538674429059, -0.0767040029168129, -0.02922630123794079, 0.08263403177261353, -0.0036959019489586353, -0.005637392867356539, 0.9989519715309143, 1.1567786931991577, -8.270169258117676, -0.12862373888492584, 0.0, 0.0, 0.0, 0, 0, 0, 0, 0, 0, 1.1567786931991577, -8.270169258117676, -0.12862373888492584
26305, 0.030637793242931366, -0.18697506189346313, 0.002966456115245819, -0.016870897263288498, -0.0410403236746788, 0.11797657608985901, -0.0025571922305971384, -0.0025282371789216995, 0.9994184374809265, 1.1589100360870361, -8.277544975280762, -0.12872298061847687, 0.0, 0.0, 0.0, 0, 0, 0, 0, 0, 0, 1.1589100360870361, -8.277544975280762, -0.12872298061847687
26315, 0.031240489333868027, -0.18855468928813934, 0.0027254039887338877, 0.17618101835250854, 0.12348723411560059, -0.019281743094325066, -0.0026371623389422894, -0.002138943877071142, 0.998195230960846, 1.1610413789749146, -8.28492546081543, -0.12882298231124878, 0.0, 0.0, 0.0, 0, 0, 0, 0, 0, 0, 1.1610413789749146, -8.28492546081543, -0.12882298231124878
26325, 0.030721236020326614, -0.18749266862869263, 0.0008526972960680723, 0.019632870331406593, -0.2732994854450226, -0.23210962116718292, -0.0011020407546311617, -0.0044925459660589695, 0.9981003403663635, 1.1631733179092407, -8.292309761047363, -0.1289241909980774, 0.0, 0.0, 0.0, 0, 0, 0, 0, 0, 0, 1.1631733179092407, -8.292309761047363, -0.1289241909980774
26335, 0.03003350831568241, -0.18829558789730072, -0.00041867332765832543, 4.1916631744243205e-05, 0.08425339311361313, -0.12173603475093842, -0.0002654356649145484, -0.0033000519033521414, 0.9993939399719238, 1.1653066873550415, -8.299696922302246, -0.1290271133184433, 0.0, 0.0, 0.0, 0, 0, 0, 0, 0, 0, 1.1653066873550415, -8.299696922302246, -0.1290271133184433
26345, 0.02969323843717575, -0.18926991522312164, -0.00013114765170030296, -0.09135990589857101, 0.1984035223722458, -0.03411763533949852, -0.00263261329382658, -0.004553548060357571, 1.0014547109603882, 1.1674425601959229, -8.307088851928711, -0.12913119792938232, 0.0, 0.0, 0.0, 0, 0, 0, 0, 0, 0, 1.1674425601959229, -8.307088851928711, -0.12913119792938232
26355, 0.029823916032910347, -0.1897703856229782, -0.0006496166461147368, 0.011061307042837143, 0.10581673681735992, 0.06873808056116104, 0.00023743498604744673, -0.002603632863610983, 1.0010895729064941, 1.169580340385437, -8.314484596252441, -0.12923508882522583, 0.0, 0.0, 0.0, 0, 0, 0, 0, 0, 0, 1.169580340385437, -8.314484596252441, -0.12923508882522583
26365, 0.029049644246697426, -0.18994870781898499, -0.0012272816384211183, -0.09713789075613022, -0.0005405039992183447, 0.027498498558998108, -0.001781172351911664, -0.003479022067040205, 1.0025814771652222, 1.171720266342163, -8.321884155273438, -0.12933775782585144, 0.0, 0.0, 0.0, 0, 0, 0, 0, 0, 0, 1.171720266342163, -8.321884155273438, -0.12933775782585144
26375, 0.030061108991503716, -0.1895926147699356, -0.0010893186554312706, 0.16923213005065918, -0.10839486867189407, 0.09426359087228775, -0.002935354597866535, -0.002909116679802537, 1.002106785774231, 1.1738626956939697, -8.3292875289917, -0.12943845987319946, 0.0, 0.0, 0.0, 0, 0, 0, 0, 0, 0, 1.1738626956939697, -8.3292875289917, -0.12943845987319946
26385, 0.028647873550653458, -0.1907617598772049, -0.002513793995603919, -0.11485648900270462, 0.08511469513177872, -0.05088183656334877, -0.000740663381293416, -0.002715441631153226, 0.9989790320396423, 1.1760063171386719, -8.336694717407227, -0.12953686714172363, 0.0, 0.0, 0.0, 0, 0, 0, 0, 0, 0, 1.1760063171386719, -8.336694717407227, -0.12953686714172363
26395, 0.027751240879297256, -0.1907484084367752, -0.0029457032214850187, -0.0050146873109042645, 0.017801200971007347, -0.0508403517305851, -0.0007292978698387742, -0.0017798400949686766, 1.0001835823059082, 1.178151249885559, -8.34410572052002, -0.1296345442533493, 0.0, 0.0, 0.0, 0, 0, 0, 0, 0, 0, 1.178151249885559, -8.34410572052002, -0.1296345442533493
26405, 0.02774713933467865, -0.19364729523658752, -0.001973360311239958, 0.037381116300821304, 0.5155774354934692, 0.011491336859762669, 0.0005151503719389439, -0.002272680401802063, 1.0017778873443604, 1.1802986860275269, -8.351519584655762, -0.12973245978355408, 0.0, 0.0, 0.0, 0, 0, 0, 0, 0, 0, 1.1802986860275269, -8.351519584655762, -0.12973245978355408
26415, 0.028030840680003166, -0.19312651455402374, -0.0015344996936619282, 0.17179985344409943, 0.034578628838062286, -0.03606156259775162, 0.00038057283381931484, -0.0036536050029098988, 0.9999389052391052, 1.182449221611023, -8.358935356140137, -0.12982964515686035, 0.0, 0.0, 0.0, 0, 0, 0, 0, 0, 0, 1.182449221611023, -8.358935356140137, -0.12982964515686035
26425, 0.027701253071427345, -0.19265037775039673, -0.0019283680012449622, -0.005017573479562998, 0.026280561462044716, -0.13174782693386078, -0.0036672467831522226, -0.002836783416569233, 0.9981763958930969, 1.1846035718917847, -8.366354942321777, -0.1299261748790741, 0.0, 0.0, 0.0, 0, 0, 0, 0, 0, 0, 1.1846035718917847, -8.366354942321777, -0.1299261748790741
26435, 0.028019355610013008, -0.19221574068069458, -0.0013325018808245659, 0.043016158044338226, -0.08532384783029556, -0.04669186845421791, -0.0027278049383312464, -0.006158561911433935, 0.9991753697395325, 1.1867599487304688, -8.373778343200684, -0.13002341985702515, 0.0, 0.0, 0.0, 0, 0, 0, 0, 0, 0, 1.1867599487304688, -8.373778343200684, -0.13002341985702515
26445, 0.02757800556719303, -0.1913589984178543, -0.0017456809291616082, -0.06505011022090912, 0.029836315661668777, -0.26676103472709656, -0.0014566764002665877, -0.0023798272013664246, 0.9974934458732605, 1.1889166831970215, -8.381206512451172, -0.1301218718290329, 0.0, 0.0, 0.0, 0, 0, 0, 0, 0, 0, 1.1889166831970215, -8.381206512451172, -0.1301218718290329
26455, 0.028014393523335457, -0.1929560899734497, -0.002407134510576725, 0.1293809711933136, 0.16250087320804596, -0.10383403301239014, -0.0006526768556796014, -0.0017004901310428977, 0.9979063272476196, 1.1910747289657593, -8.388639450073242, -0.13022194802761078, 0.0, 0.0, 0.0, 0, 0, 0, 0, 0, 0, 1.1910747289657593, -8.388639450073242, -0.13022194802761078
26465, 0.02732282131910324, -0.1939694881439209, -0.002354448428377509, -0.08681054413318634, 0.25181448459625244, 0.03640557825565338, -0.0015259664505720139, -0.002557976171374321, 0.9988511204719543, 1.193234920501709, -8.396074295043945, -0.13032414019107819, 0.0, 0.0, 0.0, 0, 0, 0, 0, 0, 0, 1.193234920501709, -8.396074295043945, -0.13032414019107819
26475, 0.026254063472151756, -0.19223831593990326, -0.0032111192122101784, -0.0686134621500969, -0.129603311419487, 3.5457105695968494e-05, -7.841563638066873e-05, -0.004112515598535538, 1.0005680322647095, 1.1953972578048706, -8.403512001037598, -0.13042786717414856, 0.0, 0.0, 0.0, 0, 0, 0, 0, 0, 0, 1.1953972578048706, -8.403512001037598, -0.13042786717414856
26485, 0.0265315193682909, -0.19130660593509674, -0.0035766763612627983, 0.01728479377925396, 0.04718278720974922, -0.006765125785022974, -0.00204476248472929, -0.003566782921552658, 1.0003327131271362, 1.1975622177124023, -8.410953521728516, -0.13053208589553833, 0.0, 0.0, 0.0, 0, 0, 0, 0, 0, 0, 1.1975622177124023, -8.410953521728516, -0.13053208589553833
26495, 0.027329929172992706, -0.19286532700061798, -0.0028345275204628706, 0.10610790550708771, 0.3985097408294678, 0.07385122030973434, -0.0010443133069202304, -0.003478818805888295, 1.0003557205200195, 1.199729561805725, -8.4183988571167, -0.13063621520996094, 0.0, 0.0, 0.0, 0, 0, 0, 0, 0, 0, 1.199729561805725, -8.4183988571167, -0.13063621520996094
26505, 0.02790597267448902, -0.1952619105577469, -0.00200297636911273, 0.04276638850569725, 0.24348744750022888, 0.013345953077077866, -0.001969248289242387, -0.0024156426079571247, 1.0009287595748901, 1.2018989324569702, -8.425848007202148, -0.13074010610580444, 0.0, 0.0, 0.0, 0, 0, 0, 0, 0, 0, 1.2018989324569702, -8.425848007202148, -0.13074010610580444
26515, 0.028505129739642143, -0.19683335721492767, -0.0015022498555481434, 0.05425570160150528, 0.26099270582199097, -0.0007435031584464014, 0.0013717339606955647, -0.004514239262789488, 1.0002466440200806, 1.2040703296661377, -8.433300018310547, -0.13084346055984497, 0.0, 0.0, 0.0, 0, 0, 0, 0, 0, 0, 1.2040703296661377, -8.433300018310547, -0.13084346055984497
26525, 0.02888098731637001, -0.19682066142559052, -0.0010791580425575376, 0.08011903613805771, -0.06983191519975662, -0.027795419096946716, -0.0008638739236630499, -0.003976454026997089, 0.9999927878379822, 1.206244707107544, -8.440755844116211, -0.13094626367092133, 0.0, 0.0, 0.0, 0, 0, 0, 0, 0, 0, 1.206244707107544, -8.440755844116211, -0.13094626367092133
26535, 0.02868368849158287, -0.19684703648090363, -0.0012353170895949006, -0.0468829981982708, 0.04102892056107521, -0.024858487769961357, -0.0015389500185847282, -0.004464347846806049, 1.0008996725082397, 1.2084226608276367, -8.448216438293457, -0.13104894757270813, 0.0, 0.0, 0.0, 0, 0, 0, 0, 0, 0, 1.2084226608276367, -8.448216438293457, -0.13104894757270813
26545, 0.029682496562600136, -0.19709570705890656, -0.0005912843625992537, 0.13317297399044037, 0.10143554210662842, 0.07905323058366776, -0.0004373873525764793, -0.003085945500060916, 1.00138521194458, 1.210602879524231, -8.455681800842285, -0.13115128874778748, 0.0, 0.0, 0.0, 0, 0, 0, 0, 0, 0, 1.210602879524231, -8.455681800842285, -0.13115128874778748
26555, 0.030153652653098106, -0.19643378257751465, -0.0006075034034438431, 0.10096922516822815, -0.1312016397714615, -0.07197939604520798, -0.0023394946474581957, -0.002303237561136484, 0.9995604157447815, 1.212785243988037, -8.463150978088379, -0.13125252723693848, 0.0, 0.0, 0.0, 0, 0, 0, 0, 0, 0, 1.212785243988037, -8.463150978088379, -0.13125252723693848
26565, 0.028798313811421394, -0.196431964635849, -0.0006680613732896745, -0.2312580645084381, 0.14507925510406494, 0.16245965659618378, 0.00019892425916623324, -0.002482309238985181, 1.0005773305892944, 1.2149697542190552, -8.470623970031738, -0.13135313987731934, 0.0, 0.0, 0.0, 0, 0, 0, 0, 0, 0, 1.2149697542190552, -8.470623970031738, -0.13135313987731934
26575, 0.02853241376578808, -0.19563724100589752, -0.0006177761242724955, 0.024744095280766487, -0.018339978531003, 0.09483276307582855, -0.0008452347829006612, -0.00190075789578259, 0.9998913407325745, 1.2171565294265747, -8.478099822998047, -0.1314537674188614, 0.0, 0.0, 0.0, 0, 0, 0, 0, 0, 0, 1.2171565294265747, -8.478099822998047, -0.1314537674188614
26585, 0.02795393578708172, -0.19510433077812195, -0.0008114839438349009, 0.009589017368853092, -0.05295785143971443, -0.10294239223003387, -0.0027092478703707457, -0.002357838675379753, 1.000296950340271, 1.2193464040756226, -8.485578536987305, -0.13155433535575867, 0.0, 0.0, 0.0, 0, 0, 0, 0, 0, 0, 1.2193464040756226, -8.485578536987305, -0.13155433535575867
26595, 0.0283659677952528, -0.19473299384117126, 0.0007601301185786724, -0.005683436989784241, -0.012635841965675354, 0.15637898445129395, -0.0012556142173707485, -0.0040821474976837635, 1.0002442598342896, 1.2215384244918823, -8.493059158325195, -0.13165464997291565, 0.0, 0.0, 0.0, 0, 0, 0, 0, 0, 0, 1.2215384244918823, -8.493059158325195, -0.13165464997291565
26605, 0.028251005336642265, -0.19709569215774536, 0.000262733141425997, -0.08074579387903214, 0.35750365257263184, -0.006673766300082207, -0.0010544363176450133, -0.003757212311029434, 1.001274585723877, 1.2237317562103271, -8.500543594360352, -0.1317545622587204, 0.0, 0.0, 0.0, 0, 0, 0, 0, 0, 0, 1.2237317562103271, -8.500543594360352, -0.1317545622587204
26615, 0.02926158532500267, -0.1986568719148636, 0.0013687240425497293, 0.17996150255203247, 0.19195342063903809, 0.20285826921463013, -0.0005669231759384274, -0.001902252435684204, 0.9983869791030884, 1.2259271144866943, -8.508031845092773, -0.13185372948646545, 0.0, 0.0, 0.0, 0, 0, 0, 0, 0, 0, 1.2259271144866943, -8.508031845092773, -0.13185372948646545
26625, 0.02899678237736225, -0.19575746357440948, -0.000902312807738781, 0.10767658799886703, -0.40469256043434143, -0.14916831254959106, -0.0021688661072403193, -0.003370977006852627, 0.9991227984428406, 1.2281248569488525, -8.515523910522461, -0.13195283710956573, 0.0, 0.0, 0.0, 0, 0, 0, 0, 0, 0, 1.2281248569488525, -8.515523910522461, -0.13195283710956573
26635, 0.0282602496445179, -0.19545204937458038, -0.00013503647642210126, -0.10112597793340683, -0.013731243088841438, 0.06984653323888779, -0.0023737128358334303, -0.0037997113540768623, 0.999427855014801, 1.2303245067596436, -8.523018836975098, -0.13205304741859436, 0.0, 0.0, 0.0, 0, 0, 0, 0, 0, 0, 1.2303245067596436, -8.523018836975098, -0.13205304741859436
26645, 0.027803979814052582, -0.19501782953739166, -0.0002108985499944538, -0.08015560358762741, -0.007743906229734421, -0.21060623228549957, -0.0009709063451737165, -0.0028622967656701803, 1.0018712282180786, 1.2325254678726196, -8.530517578125, -0.13215400278568268, 0.0, 0.0, 0.0, 0, 0, 0, 0, 0, 0, 1.2325254678726196, -8.530517578125, -0.13215400278568268
26655, 0.02774668298661709, -0.19520099461078644, 0.0002416514907963574, -0.05114325135946274, 0.12151902168989182, 0.10815223306417465, -0.0005885735736228526, 0.00021313501929398626, 1.0012668371200562, 1.2349482774734497, -8.53877067565918, -0.13226446509361267, 0.0, 0.0, 0.0, 0, 0, 0, 0, 0, 0, 1.2349482774734497, -8.53877067565918, -0.13226446509361267
26665, 0.02809356339275837, -0.19449952244758606, -0.0005162465968169272, 0.026852833107113838, -0.1352725476026535, -0.09495493024587631, -0.00019793682440649718, -0.0014930746983736753, 1.0008158683776855, 1.2371532917022705, -8.54627513885498, -0.13236355781555176, 0.0, 0.0, 0.0, 0, 0, 0, 0, 0, 0, 1.2371532917022705, -8.54627513885498, -0.13236355781555176
26675, 0.028077146038413048, -0.19353491067886353, -0.001646441058255732, 0.09808816015720367, -0.12934845685958862, 0.02876700833439827, 0.0008962759748101234, -0.0039309291169047356, 1.0021954774856567, 1.2393614053726196, -8.553781509399414, -0.1324615776538849, 0.0, 0.0, 0.0, 0, 0, 0, 0, 0, 0, 1.2393614053726196, -8.553781509399414, -0.1324615776538849
26685, 0.028543608263134956, -0.19099555909633636, -0.0036229006946086884, 0.042178280651569366, -0.4127354025840759, -0.2546200454235077, -0.0003036989946849644, -0.002986359875649214, 1.003382921218872, 1.2415733337402344, -8.561290740966797, -0.13255786895751953, 0.0, 0.0, 0.0, 0, 0, 0, 0, 0, 0, 1.2415733337402344, -8.561290740966797, -0.13255786895751953
26695, 0.02853625826537609, -0.18971602618694305, -0.004150290507823229, 0.03237859159708023, -0.28910061717033386, 0.06444741040468216, -0.0022083923686295748, -0.003463192842900753, 1.0008504390716553, 1.2437888383865356, -8.568803787231445, -0.13265128433704376, 0.0, 0.0, 0.0, 0, 0, 0, 0, 0, 0, 1.2437888383865356, -8.568803787231445, -0.13265128433704376
26705, 0.02848811447620392, -0.18809835612773895, -0.004188810009509325, -0.04277527332305908, -0.12900859117507935, -0.006370266433805227, -0.0008627829956822097, -0.0036783367395401, 1.0001068115234375, 1.246006727218628, -8.57632064819336, -0.1327424943447113, 0.0, 0.0, 0.0, 0, 0, 0, 0, 0, 0, 1.246006727218628, -8.57632064819336, -0.1327424943447113
26715, 0.028790315613150597, -0.18467499315738678, -0.004851396661251783, 0.018567774444818497, -0.4679194390773773, -0.19693605601787567, 0.0009346802835352719, -0.0034127114340662956, 0.999466598033905, 1.2482266426086426, -8.583841323852539, -0.13283313810825348, 0.0, 0.0, 0.0, 0, 0, 0, 0, 0, 0, 1.2482266426086426, -8.583841323852539, -0.13283313810825348
26725, 0.029197199270129204, -0.18400119245052338, -0.005111601669341326, 0.07932348549365997, 0.05560387670993805, -0.009369425475597382, -0.0004190968757029623, -0.0032178687397390604, 0.9982912540435791, 1.2504500150680542, -8.591365814208984, -0.13292406499385834, 0.0, 0.0, 0.0, 0, 0, 0, 0, 0, 0, 1.2504500150680542, -8.591365814208984, -0.13292406499385834
26735, 0.029346399009227753, -0.1847686469554901, -0.005213107448071241, 0.0937124565243721, 0.1315060406923294, 0.05037124454975128, -0.001061819028109312, -0.003995898645371199, 0.9976651072502136, 1.2526766061782837, -8.598894119262695, -0.13301610946655273, 0.0, 0.0, 0.0, 0, 0, 0, 0, 0, 0, 1.2526766061782837, -8.598894119262695, -0.13301610946655273
26745, 0.02870955504477024, -0.18338285386562347, -0.004990181885659695, -0.18690535426139832, -0.1366589218378067, 0.033317383378744125, -0.0004028680268675089, -0.0043802266009151936, 0.9984211921691895, 1.2549055814743042, -8.606427192687988, -0.13311012089252472, 0.0, 0.0, 0.0, 0, 0, 0, 0, 0, 0, 1.2549055814743042, -8.606427192687988, -0.13311012089252472
26755, 0.02890818379819393, -0.18448519706726074, -0.005023409612476826, 0.08434206992387772, 0.24570834636688232, 0.2144670933485031, -0.002517468761652708, -0.002472484949976206, 0.9997038841247559, 1.2571369409561157, -8.613964080810547, -0.13320593535900116, 0.0, 0.0, 0.0, 0, 0, 0, 0, 0, 0, 1.2571369409561157, -8.613964080810547, -0.13320593535900116
26765, 0.030204571783542633, -0.18284766376018524, -0.004683274310082197, 0.17191182076931, -0.005079843569546938, 0.15615399181842804, -0.0002319611085113138, -0.0026829710695892572, 1.0000066757202148, 1.2593698501586914, -8.621504783630371, -0.13330252468585968, 0.0, 0.0, 0.0, 0, 0, 0, 0, 0, 0, 1.2593698501586914, -8.621504783630371, -0.13330252468585968
26775, 0.03024211898446083, -0.1823909878730774, -0.004199270624667406, 0.0280612725764513, -0.02559030055999756, 0.07428877055644989, -0.0006115377182140946, -0.002303853863850236, 0.9971291422843933, 1.2616045475006104, -8.629048347473145, -0.1333993822336197, 0.0, 0.0, 0.0, 0, 0, 0, 0, 0, 0, 1.2616045475006104, -8.629048347473145, -0.1333993822336197
26785, 0.030392466112971306, -0.18186713755130768, -0.0056499307975173, 0.06567944586277008, 0.19232051074504852, -0.07574286311864853, -0.0010751507943496108, -0.0010484217200428247, 0.9981725215911865, 1.263841986656189, -8.636594772338867, -0.13349783420562744, 0.0, 0.0, 0.0, 0, 0, 0, 0, 0, 0, 1.263841986656189, -8.636594772338867, -0.13349783420562744
26795, 0.030448434874415398, -0.18160013854503632, -0.005739246960729361, 0.060007378458976746, 0.11085135489702225, -0.07423847168684006, -0.002368265064433217, -0.0017826725961640477, 0.9998078346252441, 1.266081690788269, -8.644143104553223, -0.13359862565994263, 0.0, 0.0, 0.0, 0, 0, 0, 0, 0, 0, 1.266081690788269, -8.644143104553223, -0.13359862565994263
26805, 0.031053200364112854, -0.18059392273426056, -0.005698146298527718, 0.17689819633960724, -0.2034924328327179, -0.10527992248535156, -0.0033835172653198242, -0.004572934005409479, 1.0004003047943115, 1.2683227062225342, -8.651693344116211, -0.13370032608509064, 0.0, 0.0, 0.0, 0, 0, 0, 0, 0, 0, 1.2683227062225342, -8.651693344116211, -0.13370032608509064
26815, 0.03183569759130478, -0.18207035958766937, -0.0053138998337090015, 0.151396706700325, 0.0437496118247509, -0.08444509655237198, -8.064433495746925e-05, -0.003734046593308449, 0.9989280104637146, 1.270564317703247, -8.659247398376465, -0.13380184769630432, 0.0, 0.0, 0.0, 0, 0, 0, 0, 0, 0, 1.270564317703247, -8.659247398376465, -0.13380184769630432
26825, 0.031551800668239594, -0.18137310445308685, -0.006798879709094763, 0.05579632893204689, -0.018818821758031845, -0.15061718225479126, -0.0008580357534810901, -0.0031164083629846573, 0.999238908290863, 1.2728074789047241, -8.6668062210083, -0.13390351831912994, 0.0, 0.0, 0.0, 0, 0, 0, 0, 0, 0, 1.2728074789047241, -8.6668062210083, -0.13390351831912994
26835, 0.0320485420525074, -0.18086300790309906, -0.006514333188533783, 0.06776133924722672, -0.08908015489578247, 0.003848276101052761, -0.001292890403419733, -0.004681476857513189, 0.9981973767280579, 1.2750533819198608, -8.674368858337402, -0.13400602340698242, 0.0, 0.0, 0.0, 0, 0, 0, 0, 0, 0, 1.2750533819198608, -8.674368858337402, -0.13400602340698242
26845, 0.031919214874506, -0.18246909976005554, -0.0059264530427753925, 0.04030046612024307, 0.27179375290870667, 0.3759773373603821, -0.002001906745135784, -0.007985707372426987, 0.9990464448928833, 1.27730131149292, -8.681936264038086, -0.1341097503900528, 0.0, 0.0, 0.0, 0, 0, 0, 0, 0, 0, 1.27730131149292, -8.681936264038086, -0.1341097503900528
26855, 0.031500622630119324, -0.18255554139614105, -0.006504997611045837, 0.04723159223794937, 0.12027222663164139, 0.025643130764365196, -0.003271072171628475, -0.005211754702031612, 1.0024659633636475, 1.2795506715774536, -8.689510345458984, -0.13421441614627838, 0.0, 0.0, 0.0, 0, 0, 0, 0, 0, 0, 1.2795506715774536, -8.689510345458984, -0.13421441614627838
26865, 0.031135452911257744, -0.1827808916568756, -0.006997857708483934, -0.0022073055151849985, 0.10915002971887589, -0.22835034132003784, -0.0014327543321996927, -0.004434508271515369, 0.9998036623001099, 1.2818007469177246, -8.697091102600098, -0.1343182772397995, 0.0, 0.0, 0.0, 0, 0, 0, 0, 0, 0, 1.2818007469177246, -8.697091102600098, -0.1343182772397995
26875, 0.03253746032714844, -0.18181192874908447, -0.00620567612349987, 0.21556897461414337, 0.025597764179110527, -0.02608945406973362, 7.630646723555401e-05, -0.0009923882316797972, 1.0008774995803833, 1.284051775932312, -8.70467758178711, -0.13442103564739227, 0.0, 0.0, 0.0, 0, 0, 0, 0, 0, 0, 1.284051775932312, -8.70467758178711, -0.13442103564739227
26885, 0.03228079900145531, -0.18287906050682068, -0.006611277349293232, -0.04214942827820778, 0.1741826832294464, -0.20409616827964783, -0.0007364065968431532, -0.0019728788174688816, 0.9992790818214417, 1.28630530834198, -8.71226692199707, -0.13452334702014923, 0.0, 0.0, 0.0, 0, 0, 0, 0, 0, 0, 1.28630530834198, -8.71226692199707, -0.13452334702014923
26895, 0.03324464336037636, -0.1845545619726181, -0.005425434093922377, 0.15786133706569672, 0.37152838706970215, 0.20904582738876343, 2.644306186994072e-05, -0.005359468050301075, 0.9983568787574768, 1.2885617017745972, -8.719858169555664, -0.13462568819522858, 0.0, 0.0, 0.0, 0, 0, 0, 0, 0, 0, 1.2885617017745972, -8.719858169555664, -0.13462568819522858
26905, 0.0327858030796051, -0.1842889040708542, -0.005601835437119007, -0.06377281993627548, 0.13794636726379395, -0.11212410777807236, 0.00014198738790582865, -0.003672708058729768, 1.0001894235610962, 1.2908209562301636, -8.72745418548584, -0.13472911715507507, 0.0, 0.0, 0.0, 0, 0, 0, 0, 0, 0, 1.2908209562301636, -8.72745418548584, -0.13472911715507507
26915, 0.032867226749658585, -0.18436363339424133, -0.005907460115849972, 0.008387630805373192, -0.02477695420384407, -0.06173262000083923, -0.0011581935686990619, -0.005419566296041012, 1.000834345817566, 1.2930833101272583, -8.735054969787598, -0.13483326137065887, 0.0, 0.0, 0.0, 0, 0, 0, 0, 0, 0, 1.2930833101272583, -8.735054969787598, -0.13483326137065887
26925, 0.03378487005829811, -0.1841241419315338, -0.005481615662574768, 0.11849413067102432, 0.0028555584140121937, 0.10762254148721695, -0.0017005379777401686, -0.0018922541057690978, 0.9982354044914246, 1.2953481674194336, -8.742660522460938, -0.13493712246418, 0.0, 0.0, 0.0, 0, 0, 0, 0, 0, 0, 1.2953481674194336, -8.742660522460938, -0.13493712246418
26935, 0.03317829594016075, -0.18513108789920807, -0.0033301268704235554, 0.0071816821582615376, 0.0034607630223035812, 0.3703324794769287, -0.0014268227387219667, -0.0025964640080928802, 0.9972900152206421, 1.2976148128509521, -8.75027084350586, -0.13504159450531006, 0.0, 0.0, 0.0, 0, 0, 0, 0, 0, 0, 1.2976148128509521, -8.75027084350586, -0.13504159450531006
26945, 0.03290348872542381, -0.18483935296535492, -0.0049131084233522415, 0.045903779566287994, 0.020626792684197426, -0.4287050664424896, -0.0016078401822596788, -0.0027689733542501926, 0.9990699887275696, 1.2998831272125244, -8.75788402557373, -0.13514818251132965, 0.0, 0.0, 0.0, 0, 0, 0, 0, 0, 0, 1.2998831272125244, -8.75788402557373, -0.13514818251132965
26955, 0.03245534747838974, -0.1856313943862915, -0.0033649306278675795, -0.018000634387135506, 0.06527537852525711, 0.3726861774921417, -0.0005885747959837317, -0.0023901299573481083, 0.9978948831558228, 1.3021531105041504, -8.76550006866455, -0.13525652885437012, 0.0, 0.0, 0.0, 0, 0, 0, 0, 0, 0, 1.3021531105041504, -8.76550006866455, -0.13525652885437012
26965, 0.03190702572464943, -0.1869407743215561, -0.0031710651237517595, -0.047082629054784775, 0.24432273209095, 0.024542780593037605, -0.002784992102533579, -0.001991247059777379, 0.998734176158905, 1.3044251203536987, -8.77311897277832, -0.13536635041236877, 0.0, 0.0, 0.0, 0, 0, 0, 0, 0, 0, 1.3044251203536987, -8.77311897277832, -0.13536635041236877
26975, 0.03146711364388466, -0.1877918541431427, -0.004531810991466045, -0.12546072900295258, 0.22446155548095703, -0.09639228135347366, -0.0023205478210002184, -0.00023891875753179193, 1.0000945329666138, 1.3066985607147217, -8.780740737915039, -0.13547754287719727, 0.0, 0.0, 0.0, 0, 0, 0, 0, 0, 0, 1.3066985607147217, -8.780740737915039, -0.13547754287719727
26985, 0.030696086585521698, -0.187872052192688, -0.0031396395061165094, 0.03818325325846672, -0.04620856046676636, 0.22187727689743042, -0.0022450550459325314, -0.002054220763966441, 1.0018622875213623, 1.3089728355407715, -8.788363456726074, -0.13558898866176605, 0.0, 0.0, 0.0, 0, 0, 0, 0, 0, 0, 1.3089728355407715, -8.788363456726074, -0.13558898866176605
26995, 0.03077937848865986, -0.18949727714061737, -0.003944088239222765, 0.04510652646422386, 0.2975877821445465, -0.024628937244415283, -0.0010780312586575747, -0.004225652664899826, 0.9989318251609802, 1.3112483024597168, -8.795988082885742, -0.13569937646389008, 0.0, 0.0, 0.0, 0, 0, 0, 0, 0, 0, 1.3112483024597168, -8.795988082885742, -0.13569937646389008
27005, 0.030776550993323326, -0.18973121047019958, -0.004337883088737726, -0.070372574031353, -0.04289105162024498, -0.019097531214356422, -0.0015493894461542368, -0.0052501787431538105, 0.9978949427604675, 1.3135254383087158, -8.803616523742676, -0.13580946624279022, 0.0, 0.0, 0.0, 0, 0, 0, 0, 0, 0, 1.3135254383087158, -8.803616523742676, -0.13580946624279022
27015, 0.02931763231754303, -0.19335073232650757, -0.0033644437789916992, -0.14692769944667816, 0.47758394479751587, -0.035860322415828705, -0.0008965347078628838, -0.003843287006020546, 1.0007504224777222, 1.3158046007156372, -8.811249732971191, -0.13592100143432617, 0.0, 0.0, 0.0, 0, 0, 0, 0, 0, 0, 1.3158046007156372, -8.811249732971191, -0.13592100143432617
27025, 0.029230603948235512, -0.19301524758338928, -0.0035749252419918776, -0.02540009841322899, 0.17838463187217712, 0.17679278552532196, -0.0005217462312430143, -0.002563838381320238, 1.0032843351364136, 1.31808602809906, -8.818887710571289, -0.13603289425373077, 0.0, 0.0, 0.0, 0, 0, 0, 0, 0, 0, 1.31808602809906, -8.818887710571289, -0.13603289425373077
27035, 0.028480296954512596, -0.19260157644748688, -0.0040775490924716, -0.07887149602174759, 0.010454004630446434, 0.14740362763404846, -0.0017533240607008338, -0.0026498534716665745, 0.9989060759544373, 1.320369839668274, -8.826529502868652, -0.13614287972450256, 0.0, 0.0, 0.0, 0, 0, 0, 0, 0, 0, 1.320369839668274, -8.826529502868652, -0.13614287972450256
27045, 0.028498860076069832, -0.19383271038532257, -0.0053161755204200745, -0.08044322580099106, 0.12557058036327362, -0.1725555807352066, -0.0009274565964005888, -0.0041125756688416, 0.9965763092041016, 1.3226556777954102, -8.834174156188965, -0.13625191152095795, 0.0, 0.0, 0.0, 0, 0, 0, 0, 0, 0, 1.3226556777954102, -8.834174156188965, -0.13625191152095795
27055, 0.028190582990646362, -0.19561919569969177, -0.0060903532430529594, 0.07215260714292526, 0.02813764289021492, -0.12350306659936905, 0.0002424919221084565, -0.00217411108314991, 0.9972586631774902, 1.3249435424804688, -8.841822624206543, -0.1363629251718521, 0.0, 0.0, 0.0, 0, 0, 0, 0, 0, 0, 1.3249435424804688, -8.841822624206543, -0.1363629251718521
27065, 0.027398601174354553, -0.19742807745933533, -0.006055234931409359, -0.012213045731186867, 0.27970823645591736, 0.034792460501194, 0.0004570298478938639, -0.001670071855187416, 1.0017170906066895, 1.3272343873977661, -8.849474906921387, -0.13647672533988953, 0.0, 0.0, 0.0, 0, 0, 0, 0, 0, 0, 1.3272343873977661, -8.849474906921387, -0.13647672533988953
27075, 0.026174264028668404, -0.19794979691505432, -0.005851539317518473, -0.1419781744480133, 0.08837343007326126, 0.014341984875500202, -0.003126285970211029, -0.0035286862403154373, 0.9998366236686707, 1.3295286893844604, -8.857129096984863, -0.13659101724624634, 0.0, 0.0, 0.0, 0, 0, 0, 0, 0, 0, 1.3295286893844604, -8.857129096984863, -0.13659101724624634
27085, 0.024947501718997955, -0.19852928817272186, -0.005013403948396444, -0.1412903219461441, 0.08018834888935089, 0.263085275888443, -0.0004120589583180845, -0.003739449195563793, 0.9971045851707458, 1.3318251371383667, -8.864787101745605, -0.1367047131061554, 0.0, 0.0, 0.0, 0, 0, 0, 0, 0, 0, 1.3318251371383667, -8.864787101745605, -0.1367047131061554
27095, 0.025539878755807877, -0.1971220225095749, -0.005452492740005255, 0.19642524421215057, -0.1938987821340561, -0.03235813230276108, 0.0011369582498446107, -0.004773642867803574, 0.9997474551200867, 1.3341234922409058, -8.872448921203613, -0.13681982457637787, 0.0, 0.0, 0.0, 0, 0, 0, 0, 0, 0, 1.3341234922409058, -8.872448921203613, -0.13681982457637787
27105, 0.025241129100322723, -0.19609501957893372, -0.004753201734274626, 0.07818502932786942, -0.07082369923591614, 0.13598571717739105, 0.0004731693188659847, -0.004267202690243721, 0.9984897971153259, 1.336425542831421, -8.880115509033203, -0.1369365155696869, 0.0, 0.0, 0.0, 0, 0, 0, 0, 0, 0, 1.336425542831421, -8.880115509033203, -0.1369365155696869
27115, 0.02484273351728916, -0.19546036422252655, -0.006281653884798288, -0.029321499168872833, -0.047479115426540375, -0.36268600821495056, -0.0012997569283470511, -0.002727029612287879, 1.0010600090026855, 1.3387316465377808, -8.887786865234375, -0.1370539516210556, 0.0, 0.0, 0.0, 0, 0, 0, 0, 0, 0, 1.3387316465377808, -8.887786865234375, -0.1370539516210556
27125, 0.023771747946739197, -0.19545428454875946, -0.006205422338098288, -0.13166730105876923, 0.05951762944459915, -0.1645294427871704, -0.0001325115590589121, -0.0018953594844788313, 1.0010836124420166, 1.3410407304763794, -8.895462036132812, -0.13717146217823029, 0.0, 0.0, 0.0, 0, 0, 0, 0, 0, 0, 1.3410407304763794, -8.895462036132812, -0.13717146217823029
27135, 0.02433110773563385, -0.19601137936115265, -0.005158883519470692, 0.02720201388001442, 0.19049455225467682, 0.1569444239139557, 0.00020782269712071866, -0.002423047786578536, 1.0002082586288452, 1.3433527946472168, -8.9031400680542, -0.13728806376457214, 0.0, 0.0, 0.0, 0, 0, 0, 0, 0, 0, 1.3433527946472168, -8.9031400680542, -0.13728806376457214
27145, 0.025183582678437233, -0.196485236287117, -0.00439152168110013, 0.17376945912837982, 0.01519095804542303, 0.03905414044857025, 5.7310840929858387e-05, -0.004613112658262253, 0.9998124241828918, 1.3456683158874512, -8.910820960998535, -0.13740399479866028, 0.0, 0.0, 0.0, 0, 0, 0, 0, 0, 0, 1.3456683158874512, -8.910820960998535, -0.13740399479866028
27155, 0.02537309192121029, -0.19612351059913635, -0.003914705011993647, 0.06618936359882355, -0.1636214405298233, 0.0993722453713417, -0.00023101578699424863, -0.006370567716658115, 1.0007535219192505, 1.3479872941970825, -8.918505668640137, -0.1375197023153305, 0.0, 0.0, 0.0, 0, 0, 0, 0, 0, 0, 1.3479872941970825, -8.918505668640137, -0.1375197023153305
27165, 0.026683617383241653, -0.1951209008693695, -0.0035459822975099087, 0.06069915369153023, 0.034655701369047165, 0.03909416124224663, -0.0005874852067790926, -0.002759135328233242, 1.0008270740509033, 1.3503093719482422, -8.926196098327637, -0.1376350075006485, 0.0, 0.0, 0.0, 0, 0, 0, 0, 0, 0, 1.3503093719482422, -8.926196098327637, -0.1376350075006485
27175, 0.026581071317195892, -0.19418351352214813, -0.0043953233398497105, 0.032522574067115784, -0.08402270823717117, 0.1248726099729538, -0.0023080597165971994, -0.002205927623435855, 0.9997209310531616, 1.3526344299316406, -8.933891296386719, -0.13774970173835754, 0.0, 0.0, 0.0, 0, 0, 0, 0, 0, 0, 1.3526344299316406, -8.933891296386719, -0.13774970173835754
27185, 0.02740498259663582, -0.19459126889705658, -0.0040192799642682076, 0.0760892927646637, 0.15415221452713013, 0.13630978763103485, -0.002670803340151906, -0.001971262274309993, 0.9983420968055725, 1.3549613952636719, -8.94158935546875, -0.13786433637142181, 0.0, 0.0, 0.0, 0, 0, 0, 0, 0, 0, 1.3549613952636719, -8.94158935546875, -0.13786433637142181
27195, 0.028167247772216797, -0.19420742988586426, -0.005329945124685764, 0.052237894386053085, -0.0033834653440862894, -0.1483723372220993, -0.0008136360556818545, -0.002336203120648861, 1.0002667903900146, 1.3572893142700195, -8.94929027557373, -0.1379798799753189, 0.0, 0.0, 0.0, 0, 0, 0, 0, 0, 0, 1.3572893142700195, -8.94929027557373, -0.1379798799753189
27205, 0.027811089530587196, -0.19495397806167603, -0.005342891905456781, -0.06881165504455566, 0.0595274418592453, -0.08388234674930573, 0.001226837863214314, -0.0033117737621068954, 0.9988582134246826, 1.359618902206421, -8.95699405670166, -0.1380961686372757, 0.0, 0.0, 0.0, 0, 0, 0, 0, 0, 0, 1.359618902206421, -8.95699405670166, -0.1380961686372757
27215, 0.027796421200037003, -0.19456252455711365, -0.0056506977416574955, -0.03217277303338051, 0.17556509375572205, 0.2308073788881302, -0.00017789773119147867, -0.0026472825556993484, 1.001498818397522, 1.3619519472122192, -8.964700698852539, -0.13821284472942352, 0.0, 0.0, 0.0, 0, 0, 0, 0, 0, 0, 1.3619519472122192, -8.964700698852539, -0.13821284472942352
27225, 0.028853485360741615, -0.1943534016609192, -0.004756448790431023, 0.11914251744747162, -0.06929056346416473, 0.19161131978034973, -0.0006070135859772563, -0.0011775076854974031, 1.0014525651931763, 1.3642886877059937, -8.972411155700684, -0.13832923769950867, 0.0, 0.0, 0.0, 0, 0, 0, 0, 0, 0, 1.3642886877059937, -8.972411155700684, -0.13832923769950867
27235, 0.029114719480276108, -0.19544771313667297, -0.0040383245795965195, 0.008557338267564774, 0.09128577262163162, 0.07551082223653793, 0.00047539916704408824, -0.0023247525095939636, 1.000738263130188, 1.3666285276412964, -8.980123519897461, -0.13844436407089233, 0.0, 0.0, 0.0, 0, 0, 0, 0, 0, 0, 1.3666285276412964, -8.980123519897461, -0.13844436407089233
27245, 0.028440959751605988, -0.19478626549243927, -0.004128965083509684, -0.15181350708007812, -0.009407980367541313, -0.027261322364211082, 0.0006421219441108406, -0.0036137872375547886, 1.0006426572799683, 1.368971824645996, -8.987838745117188, -0.13855843245983124, 0.0, 0.0, 0.0, 0, 0, 0, 0, 0, 0, 1.368971824645996, -8.987838745117188, -0.13855843245983124
27255, 0.02903062291443348, -0.19590535759925842, -0.004200592637062073, 0.11666414141654968, 0.22334270179271698, -0.12055138498544693, 0.0015400322154164314, -0.003249596571549773, 0.9992668628692627, 1.371319055557251, -8.995556831359863, -0.1386718451976776, 0.0, 0.0, 0.0, 0, 0, 0, 0, 0, 0, 1.371319055557251, -8.995556831359863, -0.1386718451976776
27265, 0.029142094776034355, -0.19571955502033234, -0.005171783734112978, 0.010047017596662045, -0.11502142995595932, -0.07833428680896759, 0.00014394489699043334, -0.002133115893229842, 1.001549482345581, 1.3736705780029297, -9.003278732299805, -0.13878506422042847, 0.0, 0.0, 0.0, 0, 0, 0, 0, 0, 0, 1.3736705780029297, -9.003278732299805, -0.13878506422042847
27275, 0.02891112118959427, -0.19802071154117584, -0.0066895573399960995, -0.059124745428562164, 0.12841853499412537, -0.10329758375883102, -0.0014044184936210513, -0.0035141767002642155, 1.000888466835022, 1.3760262727737427, -9.011004447937012, -0.1388976275920868, 0.0, 0.0, 0.0, 0, 0, 0, 0, 0, 0, 1.3760262727737427, -9.011004447937012, -0.1388976275920868
27285, 0.029342833906412125, -0.19691909849643707, -0.005481997039169073, 0.021204473450779915, -0.06365501135587692, 0.061365921050310135, -0.0021739338990300894, -0.004641419742256403, 0.9997301697731018, 1.3783848285675049, -9.018733024597168, -0.13900893926620483, 0.0, 0.0, 0.0, 0, 0, 0, 0, 0, 0, 1.3783848285675049, -9.018733024597168, -0.13900893926620483
27295, 0.028673449531197548, -0.19813591241836548, -0.005105953197926283, -0.08965231478214264, 0.31437626481056213, -0.0060729715041816235, -0.0022954486776143312, -0.0037345015443861485, 0.9998278021812439, 1.3807449340820312, -9.026466369628906, -0.13911987841129303, 0.0, 0.0, 0.0, 0, 0, 0, 0, 0, 0, 1.3807449340820312, -9.026466369628906, -0.13911987841129303
27305, 0.028471656143665314, -0.1975441724061966, -0.005183774512261152, 0.02934888005256653, -0.18398399651050568, 0.04338977113366127, -0.0024583619087934494, -0.0027913313824683428, 0.9997771382331848, 1.3831061124801636, -9.034204483032227, -0.13923119008541107, 0.0, 0.0, 0.0, 0, 0, 0, 0, 0, 0, 1.3831061124801636, -9.034204483032227, -0.13923119008541107
27315, 0.02868228405714035, -0.19872312247753143, -0.004378258250653744, -0.09148762375116348, 0.2679234743118286, 0.04297543317079544, -0.0017030889866873622, -0.003760392079129815, 0.9994363784790039, 1.3854684829711914, -9.041946411132812, -0.13934290409088135, 0.0, 0.0, 0.0, 0, 0, 0, 0, 0, 0, 1.3854684829711914, -9.041946411132812, -0.13934290409088135
27325, 0.029160059988498688, -0.1985166370868683, -0.0037369716446846724, -0.043124958872795105, 0.0016762816812843084, 0.025702500715851784, -0.0002064331783913076, -0.005401234142482281, 0.9981672167778015, 1.3878322839736938, -9.049692153930664, -0.1394551694393158, 0.0, 0.0, 0.0, 0, 0, 0, 0, 0, 0, 1.3878322839736938, -9.049692153930664, -0.1394551694393158
27335, 0.02975931204855442, -0.19922862946987152, -0.00347547372803092, 0.026454094797372818, 0.1713622659444809, 0.0259864442050457, -0.0012865979224443436, -0.003741233143955469, 0.9992882013320923, 1.3901985883712769, -9.057443618774414, -0.13956855237483978, 0.0, 0.0, 0.0, 0, 0, 0, 0, 0, 0, 1.3901985883712769, -9.057443618774414, -0.13956855237483978
27345, 0.029925482347607613, -0.1989792436361313, -0.0027835986111313105, -5.868618973181583e-05, 0.06091644614934921, 0.0708676129579544, -0.001885548117570579, -0.0029406873509287834, 1.0020229816436768, 1.3925676345825195, -9.065199851989746, -0.13968291878700256, 0.0, 0.0, 0.0, 0, 0, 0, 0, 0, 0, 1.3925676345825195, -9.065199851989746, -0.13968291878700256
27355, 0.029620977118611336, -0.2003546953201294, -0.003316901857033372, -0.011605965904891491, 0.10329162329435349, -0.012270301580429077, -0.0012738093500956893, -0.0028793998062610626, 0.9984274506568909, 1.3949387073516846, -9.072959899902344, -0.13979676365852356, 0.0, 0.0, 0.0, 0, 0, 0, 0, 0, 0, 1.3949387073516846, -9.072959899902344, -0.13979676365852356
27365, 0.03033793717622757, -0.19866906106472015, -0.003754330100491643, -0.011419849470257759, -0.1804162710905075, -0.26296383142471313, -0.0027730290312319994, 0.00018324168922845274, 0.9982906579971313, 1.3973115682601929, -9.08072280883789, -0.1399105191230774, 0.0, 0.0, 0.0, 0, 0, 0, 0, 0, 0, 1.3973115682601929, -9.08072280883789, -0.1399105191230774
27375, 0.03047812730073929, -0.1982499212026596, -0.002950097434222698, 0.040970053523778915, -0.048506103456020355, 0.13978257775306702, -0.002297481754794717, -0.0016381359891965985, 0.9993112087249756, 1.3996857404708862, -9.08848762512207, -0.14002563059329987, 0.0, 0.0, 0.0, 0, 0, 0, 0, 0, 0, 1.3996857404708862, -9.08848762512207, -0.14002563059329987
