timeTick, roll, pitch, yaw, gyroX, gyroY, gyroZ, accX, accY, accZ, stateX, stateY, stateZ, target_x, target_y, target_z, otX, otY, otZ, otRoll, otPitch, otYaw, kalX, kalY, kalZ
11476, 0.04866183176636696, -0.009830087423324585, -0.004715371411293745, 0, 0, 0, 0, 0, 0, 0, 0, 0, 0, 0, 0, 0, 0, 0, 0, 0, 0, 0, 0, 0
11486, 0.04882105067372322, -0.008529945276677608, -0.004615849815309048, 0.03387589752674103, -0.10211807489395142, -0.1608210802078247, 2.228538505733013e-05, -0.005816296208649874, 0.9999508261680603, 0.7755532264709473, -1.8596121072769165, -0.08384214341640472, 0.0, 0.0, 0.0, 0, 0, 0, 0, 0, 0, 0.7773455381393433, -1.8641705513000488, -0.0840095728635788
11496, 0.04813199117779732, -0.008466744795441628, -0.0037848884239792824, 0.0973520278930664, 0.10010059177875519, 0.17931608855724335, 0.0024662169162184, -0.005064880941063166, 0.9987398386001587, 0.7773455381393433, -1.8641705513000488, -0.0840095728635788, 0.0, 0.0, 0.0, 0, 0, 0, 0, 0, 0, 0.7791394591331482, -1.8687349557876587, -0.08417768031358719
11506, 0.04879475012421608, -0.00874565914273262, -0.002710373606532812, 0.05747721344232559, 0.14855991303920746, 0.1493334174156189, 0.0014350268756970763, -0.004899926017969847, 1.0001872777938843, 0.7791394591331482, -1.8687349557876587, -0.08417768031358719, 0.0, 0.0, 0.0, 0, 0, 0, 0, 0, 0, 0.7809353470802307, -1.8733049631118774, -0.08434651792049408
11516, 0.04810372367501259, -0.009954295121133327, -0.0032767357770353556, -0.2335890382528305, 0.15013578534126282, -0.15806002914905548, 0.0003040213487111032, -0.0062552099116146564, 0.9973558783531189, 0.7809353470802307, -1.8733049631118774, -0.08434651792049408, 0.0, 0.0, 0.0, 0, 0, 0, 0, 0, 0, 0.7827324867248535, -1.8778812885284424, -0.08451639860868454
11526, 0.04720904305577278, -0.00919941533356905, -0.0038601751439273357, -0.04181373864412308, -0.3597933351993561, -0.18241284787654877, 0.002259328728541732, -0.0043663401156663895, 0.9984137415885925, 0.7827324867248535, -1.8778812885284424, -0.08451639860868454, 0.0, 0.0, 0.0, 0, 0, 0, 0, 0, 0, 0.7845308780670166, -1.8824639320373535, -0.08468815684318542
11536, 0.0475747212767601, -0.010455104522407055, -0.004204000346362591, 0.20977798104286194, 0.193167582154274, 0.06237996742129326, 0.0018012778600677848, -0.005612119100987911, 1.0015442371368408, 0.7845308780670166, -1.8824639320373535, -0.08468815684318542, 0.0, 0.0, 0.0, 0, 0, 0, 0, 0, 0, 0.7863311171531677, -1.8870524168014526, -0.08486036211252213
11546, 0.04677800089120865, -0.010221549309790134, -0.004677695222198963, -0.1309821605682373, -0.06064087152481079, -0.10160787403583527, 0.001814281102269888, -0.004790686070919037, 1.0012890100479126, 0.7863311171531677, -1.8870524168014526, -0.08486036211252213, 0.0, 0.0, 0.0, 0, 0, 0, 0, 0, 0, 0.7881333231925964, -1.8916467428207397, -0.08503149449825287
11556, 0.04673384130001068, -0.010035254992544651, -0.005074508488178253, 0.0395401306450367, 0.03125053644180298, 0.1789742112159729, 0.0033800993114709854, -0.00334738427773118, 1.0000721216201782, 0.7881333231925964, -1.8916467428207397, -0.08503149449825287, 0.0, 0.0, 0.0, 0, 0, 0, 0, 0, 0, 0.7899381518363953, -1.896246075630188, -0.08520177751779556
11566, 0.04670808091759682, -0.010569301433861256, -0.005681425798684359, -0.0478181354701519, -0.22616708278656006, -0.17218725383281708, 0.002595562022179365, -0.004878763575106859, 0.9982656240463257, 0.7899381518363953, -1.896246075630188, -0.08520177751779556, 0.0, 0.0, 0.0, 0, 0, 0, 0, 0, 0, 0.7917460799217224, -1.9008499383926392, -0.08537241071462631
11576, 0.04649614170193672, -0.010481607168912888, -0.005241706967353821, -0.08146409690380096, 0.0018437376711517572, -0.0029065697453916073, 0.0018795428331941366, -0.006650125607848167, 1.0000872611999512, 0.7917460799217224, -1.9008499383926392, -0.08537241071462631, 0.0, 0.0, 0.0, 0, 0, 0, 0, 0, 0, 0.7935563325881958, -1.9054598808288574, -0.08554399758577347
11586, 0.047075092792510986, -0.01059979572892189, -0.005638637114316225, 0.06337365508079529, -0.11102157831192017, -0.03470297157764435, 0.004907489288598299, -0.004344428889453411, 0.9989092350006104, 0.7935563325881958, -1.9054598808288574, -0.08554399758577347, 0.0, 0.0, 0.0, 0, 0, 0, 0, 0, 0, 0.7953694462776184, -1.9100761413574219, -0.08571621030569077
11596, 0.046760689467191696, -0.009248105809092522, -0.0065322089940309525, -0.04205529764294624, 0.002096745418384671, -0.23017047345638275, 0.0016740354476496577, -0.0043252697214484215, 0.9980615377426147, 0.7953694462776184, -1.9100761413574219, -0.08571621030569077, 0.0, 0.0, 0.0, 0, 0, 0, 0, 0, 0, 0.7971859574317932, -1.9146978855133057, -0.08588952571153641
11606, 0.046649347990751266, -0.011530683375895023, -0.005647516343742609, -0.04094787314534187, 0.032068707048892975, 0.1172063872218132, 0.0003694802289828658, -0.005305679980665445, 0.9991359114646912, 0.7971859574317932, -1.9146978855133057, -0.08588952571153641, 0.0, 0.0, 0.0, 0, 0, 0, 0, 0, 0, 0.799004077911377, -1.9193249940872192, -0.08606400340795517
11616, 0.04775208234786987, -0.012380311265587807, -0.003709982382133603, 0.26144304871559143, 0.017385542392730713, 0.21798737347126007, 0.000686710060108453, -0.004906820133328438, 0.9998374581336975, 0.799004077911377, -1.9193249940872192, -0.08606400340795517, 0.0, 0.0, 0.0, 0, 0, 0, 0, 0, 0, 0.8008227944374084, -1.9239579439163208, -0.0862390398979187
11626, 0.04791616275906563, -0.01256147027015686, -0.004577714949846268, 0.007571216206997633, -0.002159644151106477, -0.007147450465708971, 0.002477415604516864, -0.005411261226981878, 0.9986799955368042, 0.8008227944374084, -1.9239579439163208, -0.0862390398979187, 0.0, 0.0, 0.0, 0, 0, 0, 0, 0, 0, 0.8026430606842041, -1.9285967350006104, -0.08641480654478073
11636, 0.04711218550801277, -0.012113921344280243, -0.004060184117406607, -0.20871521532535553, -0.039326030761003494, 0.07826308906078339, 0.001115131308324635, -0.0070172022096812725, 0.9995182156562805, 0.8026430606842041, -1.9285967350006104, -0.08641480654478073, 0.0, 0.0, 0.0, 0, 0, 0, 0, 0, 0, 0.8044655323028564, -1.9332419633865356, -0.0865914523601532
11646, 0.04675391688942909, -0.012485155835747719, -0.003976735286414623, -0.07499466836452484, 0.02289259433746338, 0.023976046591997147, 0.0020376250613480806, -0.004130592104047537, 0.998177170753479, 0.8044655323028564, -1.9332419633865356, -0.0865914523601532, 0.0, 0.0, 0.0, 0, 0, 0, 0, 0, 0, 0.8062899708747864, -1.9378937482833862, -0.08676915615797043
11656, 0.04687460511922836, -0.012510017491877079, -0.0040748934261500835, 0.07724524289369583, -0.06298130750656128, 0.011529692448675632, 0.004878413863480091, -0.0037757321260869503, 1.0000972747802734, 0.8062899708747864, -1.9378937482833862, -0.08676915615797043, 0.0, 0.0, 0.0, 0, 0, 0, 0, 0, 0, 0.8081175088882446, -1.9425504207611084, -0.08694769442081451
11666, 0.048258401453495026, -0.00926536601036787, -0.003720659064128995, 0.1420060247182846, -0.30137890577316284, 0.20780451595783234, 0.004506775178015232, -0.0029069939628243446, 1.000940203666687, 0.8081175088882446, -1.9425504207611084, -0.08694769442081451, 0.0, 0.0, 0.0, 0, 0, 0, 0, 0, 0, 0.8099498152732849, -1.9472110271453857, -0.08712583035230637
11676, 0.04901277646422386, -0.011469350196421146, -0.00326129631139338, 0.06061653792858124, 0.23289234936237335, 0.035801611840724945, 0.0023447894491255283, -0.005167155992239714, 0.9989867806434631, 0.8099498152732849, -1.9472110271453857, -0.08712583035230637, 0.0, 0.0, 0.0, 0, 0, 0, 0, 0, 0, 0.8117859959602356, -1.9518760442733765, -0.08730369806289673
11686, 0.04870319738984108, -0.009487760253250599, -0.0036244106013327837, -0.17973773181438446, -0.33429643511772156, 0.003387293079867959, 0.0006954909767955542, -0.004783038981258869, 0.9993013739585876, 0.8117859959602356, -1.9518760442733765, -0.08730369806289673, 0.0, 0.0, 0.0, 0, 0, 0, 0, 0, 0, 0.8136242628097534, -1.9565469026565552, -0.08748217672109604
11696, 0.0491553358733654, -0.00849967822432518, -0.0052015152759850025, -0.02616295777261257, -0.027901723980903625, -0.05819714069366455, 0.0017567811300978065, -0.007181168999522924, 1.0000097751617432, 0.8136242628097534, -1.9565469026565552, -0.08748217672109604, 0.0, 0.0, 0.0, 0, 0, 0, 0, 0, 0, 0.8154640793800354, -1.9612244367599487, -0.08766112476587296
11706, 0.048356715589761734, -0.00905856303870678, -0.005240179598331451, -0.15960370004177094, 0.07367862015962601, 0.05601729080080986, 0.0001831090048654005, -0.007644966710358858, 1.0010055303573608, 0.8154640793800354, -1.9612244367599487, -0.08766112476587296, 0.0, 0.0, 0.0, 0, 0, 0, 0, 0, 0, 0.8173050880432129, -1.965909719467163, -0.08783987164497375
11716, 0.04780304431915283, -0.010683448985219002, -0.004450859036296606, -0.11861605197191238, 0.29892444610595703, 0.029745040461421013, -0.0007525464752689004, -0.00766339898109436, 0.9993944764137268, 0.8173050880432129, -1.965909719467163, -0.08783987164497375, 0.0, 0.0, 0.0, 0, 0, 0, 0, 0, 0, 0.819145917892456, -1.9706032276153564, -0.08801821619272232
11726, 0.04787782207131386, -0.009799920953810215, -0.004115769173949957, 0.011362707242369652, -0.11634647846221924, -0.10997821390628815, 0.000516468018759042, -0.006076034624129534, 0.998218834400177, 0.819145917892456, -1.9706032276153564, -0.08801821619272232, 0.0, 0.0, 0.0, 0, 0, 0, 0, 0, 0, 0.8209864497184753, -1.9753047227859497, -0.08819732069969177
11736, 0.04718039184808731, -0.010829038918018341, -0.004349356051534414, -0.15206636488437653, 0.3729473948478699, -0.13235196471214294, 0.0030946109909564257, -0.0022515314631164074, 0.9999377727508545, 0.8209864497184753, -1.9753047227859497, -0.08819732069969177, 0.0, 0.0, 0.0, 0, 0, 0, 0, 0, 0, 0.8228286504745483, -1.9800118207931519, -0.08837763220071793
11746, 0.04802689701318741, -0.011246716603636742, -0.0021599852479994297, 0.1382332742214203, -0.09721378237009048, 0.28867581486701965, 0.0025613598991185427, -0.004965280182659626, 1.0003752708435059, 0.8228286504745483, -1.9800118207931519, -0.08837763220071793, 0.0, 0.0, 0.0, 0, 0, 0, 0, 0, 0, 0.8246737718582153, -1.9847230911254883, -0.08855809271335602
11756, 0.046948134899139404, -0.011423063464462757, -0.002707818755879998, -0.04046989604830742, 0.23268522322177887, 0.23441515862941742, 0.0007359228329733014, -0.005178819410502911, 0.9970795512199402, 0.8246737718582153, -1.9847230911254883, -0.08855809271335602, 0.0, 0.0, 0.0, 0, 0, 0, 0, 0, 0, 0.8265210390090942, -1.989439606666565, -0.08873947709798813
11766, 0.046535246074199677, -0.00963266659528017, -0.003805456217378378, -0.0001514723408035934, -0.23630452156066895, -0.1308838576078415, 0.0005436571082100272, -0.004496993031352758, 1.0010902881622314, 0.8265210390090942, -1.989439606666565, -0.08873947709798813, 0.0, 0.0, 0.0, 0, 0, 0, 0, 0, 0, 0.8283692002296448, -1.99416184425354, -0.0889219120144844
11776, 0.04598400741815567, -0.009269624948501587, -0.0033794972114264965, -0.018834199756383896, 0.00789851974695921, -0.030935509130358696, 0.00041899425559677184, -0.00546893710270524, 1.0011115074157715, 0.8283692002296448, -1.99416184425354, -0.0889219120144844, 0.0, 0.0, 0.0, 0, 0, 0, 0, 0, 0, 0.8302178382873535, -1.998889684677124, -0.0891038328409195
11786, 0.046019650995731354, -0.010778313502669334, -0.002707039238885045, -0.12232685089111328, 0.2548140585422516, 0.028980208560824394, 0.00252184784039855, -0.003991302102804184, 1.0001550912857056, 0.8302178382873535, -1.998889684677124, -0.0891038328409195, 0.0, 0.0, 0.0, 0, 0, 0, 0, 0, 0, 0.8320679664611816, -2.0036227703094482, -0.08928507566452026
11796, 0.04624370485544205, -0.011893178336322308, -0.00326994969509542, 0.09834042936563492, 0.22628001868724823, -0.037778887897729874, 0.00130992173217237, -0.005450996570289135, 1.0010536909103394, 0.8320679664611816, -2.0036227703094482, -0.08928507566452026, 0.0, 0.0, 0.0, 0, 0, 0, 0, 0, 0, 0.8339201807975769, -2.008361339569092, -0.08946572244167328
11806, 0.0456487312912941, -0.011034308932721615, -0.0030017192475497723, -0.0024058569688349962, -0.07349275797605515, 0.03831969201564789, 0.0014029318699613214, -0.006870144046843052, 1.0013258457183838, 0.8339201807975769, -2.008361339569092, -0.08946572244167328, 0.0, 0.0, 0.0, 0, 0, 0, 0, 0, 0, 0.8357740044593811, -2.01310658454895, -0.08964536339044571
11816, 0.04573165252804756, -0.011311999522149563, -0.0037008372601121664, -0.07630869001150131, 0.15285557508468628, -0.03984113782644272, 0.0020616070833057165, -0.006545410957187414, 0.9970970153808594, 0.8357740044593811, -2.01310658454895, -0.08964536339044571, 0.0, 0.0, 0.0, 0, 0, 0, 0, 0, 0, 0.8376296162605286, -2.0178589820861816, -0.08982498943805695
11826, 0.04543570801615715, -0.009820359759032726, -0.004362146370112896, -0.149302139878273, -0.15665259957313538, 0.045404788106679916, 0.0021680863574147224, -0.006050854921340942, 0.9981801509857178, 0.8376296162605286, -2.0178589820861816, -0.08982498943805695, 0.0, 0.0, 0.0, 0, 0, 0, 0, 0, 0, 0.8394875526428223, -2.022618532180786, -0.09000647068023682
11836, 0.04540026932954788, -0.011335390619933605, -0.0035802286583930254, 0.08482624590396881, 0.17482952773571014, 0.12477744370698929, 0.0013911575078964233, -0.005296309944242239, 1.0006617307662964, 0.8394875526428223, -2.022618532180786, -0.09000647068023682, 0.0, 0.0, 0.0, 0, 0, 0, 0, 0, 0, 0.8413478136062622, -2.0273847579956055, -0.09018919616937637
11846, 0.0455428808927536, -0.012912758626043797, -0.0038919970393180847, -0.018574470654129982, 0.13507570326328278, -0.017120538279414177, 0.0013555024052038789, -0.003921776078641415, 1.0032401084899902, 0.8413478136062622, -2.0273847579956055, -0.09018919616937637, 0.0, 0.0, 0.0, 0, 0, 0, 0, 0, 0, 0.8432097434997559, -2.032156229019165, -0.0903705433011055
11856, 0.046247564256191254, -0.012712492607533932, -0.003216358134523034, 0.09052510559558868, 0.19393803179264069, 0.21394813060760498, 0.0022206297144293785, -0.0038102075923234224, 1.00164794921875, 0.8432097434997559, -2.032156229019165, -0.0903705433011055, 0.0, 0.0, 0.0, 0, 0, 0, 0, 0, 0, 0.845073401927948, -2.0369324684143066, -0.09054956585168839
11866, 0.04622461646795273, -0.012941533699631691, -0.0023721447214484215, -0.026326298713684082, 0.021531950682401657, -0.018207626417279243, -0.00042525710887275636, -0.004512210842221975, 0.999407947063446, 0.845073401927948, -2.0369324684143066, -0.09054956585168839, 0.0, 0.0, 0.0, 0, 0, 0, 0, 0, 0, 0.8469383716583252, -2.0417134761810303, -0.09072773158550262
11876, 0.04660298675298691, -0.013119281269609928, -0.0019468397367745638, -0.02810773253440857, -0.04190358147025108, 0.03760498762130737, 0.0018805861473083496, -0.004967570770531893, 0.9987744092941284, 0.8469383716583252, -2.0417134761810303, -0.09072773158550262, 0.0, 0.0, 0.0, 0, 0, 0, 0, 0, 0, 0.8488042950630188, -2.046499490737915, -0.09090635925531387
11886, 0.046269770711660385, -0.009989534504711628, -0.002222680486738682, 0.026149487122893333, -0.35407760739326477, 0.02127271145582199, 0.0032658108975738287, -0.003617999842390418, 1.000803828239441, 0.8488042950630188, -2.046499490737915, -0.09090635925531387, 0.0, 0.0, 0.0, 0, 0, 0, 0, 0, 0, 0.8506726622581482, -2.05129075050354, -0.09108511358499527
11896, 0.04622569680213928, -0.01172883901745081, -0.0030028694309294224, 0.09717793762683868, 0.33426064252853394, 0.1318274587392807, 0.003614863846451044, -0.004580797627568245, 1.0019032955169678, 0.8506726622581482, -2.05129075050354, -0.09108511358499527, 0.0, 0.0, 0.0, 0, 0, 0, 0, 0, 0, 0.8525443077087402, -2.056086778640747, -0.09126283973455429
11906, 0.045186035335063934, -0.0132154431194067, -0.0030069504864513874, 0.062009431421756744, 0.35018154978752136, 0.06980868428945541, 0.0025002022739499807, -0.004570710007101297, 1.0003631114959717, 0.8525443077087402, -2.056086778640747, -0.09126283973455429, 0.0, 0.0, 0.0, 0, 0, 0, 0, 0, 0, 0.8544191122055054, -2.0608878135681152, -0.0914393961429596
11916, 0.04476854205131531, -0.013734337873756886, -0.003589190077036619, -0.008088420145213604, 0.01692255400121212, 0.06434084475040436, 0.0035065654665231705, -0.004231504164636135, 0.9986143708229065, 0.8544191122055054, -2.0608878135681152, -0.0914393961429596, 0.0, 0.0, 0.0, 0, 0, 0, 0, 0, 0, 0.8562971949577332, -2.0656940937042236, -0.09161582589149475
11926, 0.04563746228814125, -0.014148658141493797, -0.0025557458866387606, 0.055656325072050095, -0.0010482087964192033, 0.06934479624032974, 0.0020434882026165724, -0.00307812774553895, 1.0016249418258667, 0.8562971949577332, -2.0656940937042236, -0.09161582589149475, 0.0, 0.0, 0.0, 0, 0, 0, 0, 0, 0, 0.8583664298057556, -2.070986270904541, -0.09180973470211029
11936, 0.045116111636161804, -0.015069859102368355, -0.0025753651279956102, -0.06941789388656616, 0.08477011322975159, -0.2333638072013855, 0.002314602956175804, -0.004246240481734276, 1.0000206232070923, 0.8583664298057556, -2.070986270904541, -0.09180973470211029, 0.0, 0.0, 0.0, 0, 0, 0, 0, 0, 0, 0.8602502942085266, -2.0758016109466553, -0.09198528528213501
11946, 0.045428309589624405, -0.01592900976538658, -0.0025138030759990215, -0.03824334219098091, 0.20349138975143433, 0.04076829552650452, 0.002673184033483267, -0.004906162619590759, 1.0001935958862305, 0.8602502942085266, -2.0758016109466553, -0.09198528528213501, 0.0, 0.0, 0.0, 0, 0, 0, 0, 0, 0, 0.8602502942085266, -2.0758016109466553, -0.09198528528213501
11956, 0.04635336995124817, -0.014900604262948036, -0.003683052258566022, 0.02775680646300316, -0.09205805510282516, -0.13821640610694885, 0.0023582368157804012, -0.005136668682098389, 1.000869870185852, 0.8621369004249573, -2.0806221961975098, -0.09216034412384033, 0.0, 0.0, 0.0, 0, 0, 0, 0, 0, 0, 0.8640261292457581, -2.0854485034942627, -0.09233503043651581
11966, 0.04626289755105972, -0.014511187560856342, -0.0041995360516011715, -0.08331416547298431, -0.15387248992919922, -0.29465651512145996, 0.001173805445432663, -0.004493545275181532, 1.000342607498169, 0.8640261292457581, -2.0854485034942627, -0.09233503043651581, 0.0, 0.0, 0.0, 0, 0, 0, 0, 0, 0, 0.8659173250198364, -2.090280532836914, -0.0925091803073883
11976, 0.047107718884944916, -0.01436734851449728, -0.0041465419344604015, 0.09483340382575989, 0.0009605998056940734, 0.12820933759212494, 0.0020050557795912027, -0.004368573892861605, 1.0020841360092163, 0.8659173250198364, -2.090280532836914, -0.0925091803073883, 0.0, 0.0, 0.0, 0, 0, 0, 0, 0, 0, 0.8659173250198364, -2.090280532836914, -0.0925091803073883
11986, 0.046904031187295914, -0.015048613771796227, -0.0038429691921919584, -0.03364524245262146, 0.17824365198612213, 0.044219519942998886, 0.0010681584244593978, -0.004791846964508295, 1.0016878843307495, 0.8679999709129333, -2.095601797103882, -0.09269946813583374, 0.0, 0.0, 0.0, 0, 0, 0, 0, 0, 0, 0.8679999709129333, -2.095601797103882, -0.09269946813583374
11996, 0.04809602349996567, -0.014653068035840988, -0.004282672889530659, 0.07489451766014099, -0.03264124318957329, -0.08035662770271301, 0.0009118375019170344, -0.006256920285522938, 1.0003645420074463, 0.8698951005935669, -2.100444793701172, -0.09287067502737045, 0.0, 0.0, 0.0, 0, 0, 0, 0, 0, 0, 0.8698951005935669, -2.100444793701172, -0.09287067502737045
12006, 0.04861598089337349, -0.013887493871152401, -0.003644757904112339, -0.031066380441188812, -0.01637137494981289, 0.28097206354141235, 0.0027324247639626265, -0.005656734108924866, 0.9997923970222473, 0.8717913627624512, -2.1052937507629395, -0.0930405855178833, 0.0, 0.0, 0.0, 0, 0, 0, 0, 0, 0, 0.8717913627624512, -2.1052937507629395, -0.0930405855178833
12016, 0.048844799399375916, -0.013714800588786602, -0.0030832986813038588, 0.013760263100266457, 0.02079305611550808, 0.1275331676006317, 0.0015647370601072907, -0.006217010319232941, 1.0000054836273193, 0.8736894726753235, -2.110149383544922, -0.093210369348526, 0.0, 0.0, 0.0, 0, 0, 0, 0, 0, 0, 0.8736894726753235, -2.110149383544922, -0.093210369348526
12026, 0.047984249889850616, -0.012794172391295433, -0.0015540973981842399, -0.18439994752407074, -0.1631968468427658, 0.009352007880806923, 0.0027079256251454353, -0.003695851657539606, 0.9999470710754395, 0.8755898475646973, -2.1150119304656982, -0.09338012337684631, 0.0, 0.0, 0.0, 0, 0, 0, 0, 0, 0, 0.8755898475646973, -2.1150119304656982, -0.09338012337684631
12036, 0.048219092190265656, -0.013050037436187267, -0.0010098213097080588, -0.06753017753362656, -0.04678443446755409, -0.0779411718249321, 0.0015387032181024551, -0.004633917473256588, 0.9985837340354919, 0.8774926066398621, -2.119880199432373, -0.09354978799819946, 0.0, 0.0, 0.0, 0, 0, 0, 0, 0, 0, 0.8774926066398621, -2.119880199432373, -0.09354978799819946
12046, 0.048944566398859024, -0.015647048130631447, -0.0002979725250042975, 0.09664323180913925, 0.31991955637931824, 0.0848056897521019, 0.0011726063676178455, -0.005432698410004377, 0.997971773147583, 0.8793975710868835, -2.12475323677063, -0.09372015297412872, 0.0, 0.0, 0.0, 0, 0, 0, 0, 0, 0, 0.8793975710868835, -2.12475323677063, -0.09372015297412872
12056, 0.048215024173259735, -0.015781143680214882, -0.0010593222687020898, -0.12617014348506927, 0.01514260470867157, -0.20667679607868195, 0.000940056808758527, -0.0042609102092683315, 0.9988282918930054, 0.881304144859314, -2.129631757736206, -0.09389203041791916, 0.0, 0.0, 0.0, 0, 0, 0, 0, 0, 0, 0.881304144859314, -2.129631757736206, -0.09389203041791916
12066, 0.04737314581871033, -0.016214577481150627, -0.0010046249954029918, -0.19775338470935822, 0.3401070237159729, 0.044650692492723465, 0.0032514119520783424, -0.0051780990324914455, 0.9990161061286926, 0.8832120299339294, -2.1345160007476807, -0.09406542032957077, 0.0, 0.0, 0.0, 0, 0, 0, 0, 0, 0, 0.8832120299339294, -2.1345160007476807, -0.09406542032957077
12076, 0.04827946797013283, -0.015146970748901367, -0.0009815507801249623, 0.0927773267030716, -0.11713261902332306, 0.023196283727884293, 0.0012285513803362846, -0.004700253251940012, 0.9996886253356934, 0.8851221203804016, -2.1394057273864746, -0.09423995018005371, 0.0, 0.0, 0.0, 0, 0, 0, 0, 0, 0, 0.8851221203804016, -2.1394057273864746, -0.09423995018005371
12086, 0.04909154400229454, -0.01504176203161478, 0.001426749862730503, 0.10180802643299103, 0.11004483699798584, 0.20040681958198547, 0.0022116953041404486, -0.003530189162120223, 1.0011794567108154, 0.8870347142219543, -2.144300937652588, -0.09441516548395157, 0.0, 0.0, 0.0, 0, 0, 0, 0, 0, 0, 0.8870347142219543, -2.144300937652588, -0.09441516548395157
12096, 0.049967311322689056, -0.015905184671282768, 0.0016301253344863653, 0.1136026605963707, 0.23563796281814575, -0.10131530463695526, 0.001964000752195716, -0.005546996835619211, 0.9997988939285278, 0.8889493942260742, -2.1492013931274414, -0.09459012746810913, 0.0, 0.0, 0.0, 0, 0, 0, 0, 0, 0, 0.8889493942260742, -2.1492013931274414, -0.09459012746810913
12106, 0.05004275590181351, -0.014309350401163101, 0.0009886770276352763, 0.0842384397983551, -0.2760470509529114, -0.3258875608444214, 0.0025480149779468775, -0.006426626816391945, 1.0001400709152222, 0.8908664584159851, -2.154107093811035, -0.09476472437381744, 0.0, 0.0, 0.0, 0, 0, 0, 0, 0, 0, 0.8908664584159851, -2.154107093811035, -0.09476472437381744
12116, 0.04968319460749626, -0.013189180754125118, 0.003021084936335683, 0.00397275947034359, -0.17758457362651825, 0.17118029296398163, 0.00175516027957201, -0.00678978580981493, 1.0013006925582886, 0.8927860856056213, -2.1590194702148438, -0.09493919461965561, 0.0, 0.0, 0.0, 0, 0, 0, 0, 0, 0, 0.8927860856056213, -2.1590194702148438, -0.09493919461965561
12126, 0.0497298389673233, -0.012262285687029362, 0.004629052709788084, -0.023310579359531403, -0.1597362905740738, 0.11391296982765198, 0.0015598249156028032, -0.005429401993751526, 1.0001285076141357, 0.8947080969810486, -2.1639389991760254, -0.09511299431324005, 0.0, 0.0, 0.0, 0, 0, 0, 0, 0, 0, 0.8947080969810486, -2.1639389991760254, -0.09511299431324005
12136, 0.04983745142817497, -0.011603209190070629, 0.006120513658970594, -0.04110826924443245, -0.0836000069975853, 0.19986340403556824, 0.00507953530177474, -0.004804274067282677, 1.0001686811447144, 0.8966321349143982, -2.168865203857422, -0.09528597444295883, 0.0, 0.0, 0.0, 0, 0, 0, 0, 0, 0, 0.8966321349143982, -2.168865203857422, -0.09528597444295883
12146, 0.04953678697347641, -0.011680498719215393, 0.004345558118075132, 0.032845910638570786, -0.017364216968417168, -0.2000308632850647, 0.005638387054204941, -0.004497576504945755, 0.9991414546966553, 0.8985596299171448, -2.173797369003296, -0.09545859694480896, 0.0, 0.0, 0.0, 0, 0, 0, 0, 0, 0, 0.8985596299171448, -2.173797369003296, -0.09545859694480896
12156, 0.05021095648407936, -0.009525835514068604, 0.0029480312950909138, 0.17144480347633362, -0.22001558542251587, -0.22348958253860474, 0.00300819193944335, -0.006224024575203657, 0.9990260601043701, 0.900492250919342, -2.1787350177764893, -0.09563159942626953, 0.0, 0.0, 0.0, 0, 0, 0, 0, 0, 0, 0.900492250919342, -2.1787350177764893, -0.09563159942626953
12166, 0.0502118356525898, -0.009104402735829353, 0.002165435580536723, 0.1619042307138443, 0.003825268941000104, 0.025389015674591064, 0.0038098578806966543, -0.0051818834617733955, 1.0004905462265015, 0.9024291634559631, -2.1836788654327393, -0.09580545127391815, 0.0, 0.0, 0.0, 0, 0, 0, 0, 0, 0, 0.9024291634559631, -2.1836788654327393, -0.09580545127391815
12176, 0.050528381019830704, -0.008911877870559692, 0.0028774337843060493, 0.05007196590304375, -0.11802320927381516, 0.10314340889453888, 0.0035129913594573736, -0.004442650359123945, 1.0020887851715088, 0.904369592666626, -2.188629150390625, -0.09597939252853394, 0.0, 0.0, 0.0, 0, 0, 0, 0, 0, 0, 0.904369592666626, -2.188629150390625, -0.09597939252853394
12186, 0.05141955241560936, -0.008463267236948013, 0.0020048953592777252, 0.02146066725254059, -0.008264292031526566, -0.17525622248649597, 0.0027120979502797127, -0.004657410550862551, 0.998297393321991, 0.9063138365745544, -2.19358491897583, -0.09615206718444824, 0.0, 0.0, 0.0, 0, 0, 0, 0, 0, 0, 0.9063138365745544, -2.19358491897583, -0.09615206718444824
12196, 0.051843587309122086, -0.007433397229760885, 0.0016258085379377007, 0.08097446709871292, -0.12769514322280884, -0.10307171940803528, 0.0034188064746558666, -0.006303112488240004, 0.9960894584655762, 0.9082613587379456, -2.1985461711883545, -0.09632451832294464, 0.0, 0.0, 0.0, 0, 0, 0, 0, 0, 0, 0.9082613587379456, -2.1985461711883545, -0.09632451832294464
12206, 0.05116645246744156, -0.007313098758459091, 0.0023136604577302933, 0.004038509912788868, 0.021928098052740097, 0.06121056154370308, 0.002320941537618637, -0.008408534340560436, 1.00016188621521, 0.9102120995521545, -2.2035133838653564, -0.0964994728565216, 0.0, 0.0, 0.0, 0, 0, 0, 0, 0, 0, 0.9102120995521545, -2.2035133838653564, -0.0964994728565216
12216, 0.050868771970272064, -0.006715415045619011, 0.002163729164749384, -0.043042995035648346, -0.1504485160112381, -0.13734851777553558, 0.003266272135078907, -0.003541502170264721, 0.9990609884262085, 0.9121658205986023, -2.2084884643554688, -0.09667643904685974, 0.0, 0.0, 0.0, 0, 0, 0, 0, 0, 0, 0.9121658205986023, -2.2084884643554688, -0.09667643904685974
12226, 0.050703443586826324, -0.00963655300438404, 0.004514473956078291, -0.05757513269782066, 0.22673708200454712, 0.3566190302371979, 0.0033666021190583706, -0.005950003396719694, 1.0004013776779175, 0.9141225218772888, -2.213470458984375, -0.09685402363538742, 0.0, 0.0, 0.0, 0, 0, 0, 0, 0, 0, 0.9141225218772888, -2.213470458984375, -0.09685402363538742
12236, 0.05125069245696068, -0.011693896725773811, 0.004364851862192154, 0.018757743760943413, 0.2272244542837143, -0.044772353023290634, 0.004917359445244074, -0.005126346834003925, 1.0000507831573486, 0.9160826802253723, -2.218458414077759, -0.09703192859888077, 0.0, 0.0, 0.0, 0, 0, 0, 0, 0, 0, 0.9160826802253723, -2.218458414077759, -0.09703192859888077
12246, 0.051454417407512665, -0.010452257469296455, 0.0034853678662329912, -0.001523794373497367, -0.3146499693393707, -0.18164663016796112, 0.0021154857240617275, -0.004456194117665291, 0.9997168779373169, 0.9180468320846558, -2.22345232963562, -0.09720971435308456, 0.0, 0.0, 0.0, 0, 0, 0, 0, 0, 0, 0.9180468320846558, -2.22345232963562, -0.09720971435308456
12256, 0.05158785358071327, -0.010938717983663082, 0.003898216877132654, 0.037413038313388824, 0.001990346470847726, 0.1799612045288086, 0.002501797629520297, -0.004724363796412945, 0.9999411106109619, 0.9200146198272705, -2.22845196723938, -0.09738752245903015, 0.0, 0.0, 0.0, 0, 0, 0, 0, 0, 0, 0.9200146198272705, -2.22845196723938, -0.09738752245903015
12266, 0.05152934044599533, -0.009469670243561268, 0.00348066003061831, -0.006628044415265322, -0.007777246180921793, 0.04746086522936821, 0.0004104994877707213, -0.006562777794897556, 0.9996508359909058, 0.921984851360321, -2.233457088470459, -0.09756555408239365, 0.0, 0.0, 0.0, 0, 0, 0, 0, 0, 0, 0.921984851360321, -2.233457088470459, -0.09756555408239365
12276, 0.050977326929569244, -0.009265081025660038, 0.00446656346321106, -0.12302535027265549, -0.023658717051148415, 0.13091933727264404, 0.0028764670714735985, -0.005298339296132326, 0.9984649419784546, 0.9239566326141357, -2.2384684085845947, -0.09774404764175415, 0.0, 0.0, 0.0, 0, 0, 0, 0, 0, 0, 0.9239566326141357, -2.2384684085845947, -0.09774404764175415
12286, 0.05211424082517624, -0.00899444054812193, 0.005648166406899691, 0.21505914628505707, -0.10792245715856552, 0.04516606032848358, 0.00305678672157228, -0.00444043567404151, 1.0000842809677124, 0.9259302020072937, -2.243486166000366, -0.09792356193065643, 0.0, 0.0, 0.0, 0, 0, 0, 0, 0, 0, 0.9259302020072937, -2.243486166000366, -0.09792356193065643
12296, 0.05146606266498566, -0.01018267311155796, 0.005425741896033287, -0.03484043478965759, 0.13185790181159973, 0.046758852899074554, 0.0001744575856719166, -0.0037774229422211647, 0.9983255863189697, 0.9279066920280457, -2.248509645462036, -0.09810390323400497, 0.0, 0.0, 0.0, 0, 0, 0, 0, 0, 0, 0.9279066920280457, -2.248509645462036, -0.09810390323400497
12306, 0.0521598681807518, -0.010699800215661526, 0.004954847972840071, 0.171660915017128, 0.19917312264442444, 0.09437765181064606, 0.00035610541817732155, -0.0033968687057495117, 0.9987717866897583, 0.9298851490020752, -2.253538131713867, -0.09828519821166992, 0.0, 0.0, 0.0, 0, 0, 0, 0, 0, 0, 0.9298851490020752, -2.253538131713867, -0.09828519821166992
12316, 0.052533600479364395, -0.010293704457581043, 0.004807118326425552, 0.057856302708387375, 0.10204442590475082, -0.008477654308080673, 0.002131841843947768, -0.0035425990354269743, 0.9989504814147949, 0.9318643808364868, -2.258570909500122, -0.09846802800893784, 0.0, 0.0, 0.0, 0, 0, 0, 0, 0, 0, 0.9318643808364868, -2.258570909500122, -0.09846802800893784
12326, 0.0534687340259552, -0.010518936440348625, 0.004646778106689453, 0.10674816370010376, 0.050992291420698166, -0.09925229847431183, 0.0018177017336711287, -0.0056611173786222935, 0.9984126091003418, 0.933845043182373, -2.263607978820801, -0.09865223616361618, 0.0, 0.0, 0.0, 0, 0, 0, 0, 0, 0, 0.933845043182373, -2.263607978820801, -0.09865223616361618
12336, 0.05327732861042023, -0.00977280829101801, 0.004745786543935537, -0.0275419894605875, -0.09427767992019653, 0.05471600592136383, 0.0007844138890504837, -0.00461353687569499, 1.0001651048660278, 0.9358277320861816, -2.2686502933502197, -0.09883786737918854, 0.0, 0.0, 0.0, 0, 0, 0, 0, 0, 0, 0.9358277320861816, -2.2686502933502197, -0.09883786737918854
12346, 0.052808504551649094, -0.009533105418086052, 0.004985673353075981, -0.1053926944732666, -0.12341539561748505, -0.03765036165714264, 0.002665718784555793, -0.005651276558637619, 0.9995391368865967, 0.9378119111061096, -2.273698568344116, -0.09902435541152954, 0.0, 0.0, 0.0, 0, 0, 0, 0, 0, 0, 0.9378119111061096, -2.273698568344116, -0.09902435541152954
12356, 0.053144246339797974, -0.010458101518452168, 0.005847410298883915, 0.028578588739037514, 0.2294485867023468, 0.21051214635372162, 0.002802202943712473, -0.005203256383538246, 0.9990527033805847, 0.9397979378700256, -2.278752565383911, -0.09921105951070786, 0.0, 0.0, 0.0, 0, 0, 0, 0, 0, 0, 0.9397979378700256, -2.278752565383911, -0.09921105951070786
12366, 0.05293367803096771, -0.009901645593345165, 0.004240275360643864, 0.004054308868944645, 0.11900559067726135, -0.23096394538879395, 0.0010383451590314507, -0.005411627236753702, 1.0004477500915527, 0.9417866468429565, -2.2838127613067627, -0.09939836710691452, 0.0, 0.0, 0.0, 0, 0, 0, 0, 0, 0, 0.9417866468429565, -2.2838127613067627, -0.09939836710691452
12376, 0.05164678394794464, -0.009348546154797077, 0.004188901744782925, -0.0689757913351059, 0.047858063131570816, 0.14960038661956787, 0.0035462204832583666, -0.006275745574384928, 1.0006295442581177, 0.9437776207923889, -2.288879156112671, -0.09958599507808685, 0.0, 0.0, 0.0, 0, 0, 0, 0, 0, 0, 0.9437776207923889, -2.288879156112671, -0.09958599507808685
12386, 0.05080670863389969, -0.010331469587981701, 0.005553907249122858, -0.16982020437717438, 0.29303693771362305, 0.20482534170150757, 0.002052041469141841, -0.007191234268248081, 0.9993574023246765, 0.9457710385322571, -2.293952226638794, -0.09977325052022934, 0.0, 0.0, 0.0, 0, 0, 0, 0, 0, 0, 0.9457710385322571, -2.293952226638794, -0.09977325052022934
12396, 0.05075744912028313, -0.011383234523236752, 0.004808650817722082, -0.06154954433441162, 0.20505830645561218, -0.19062697887420654, 0.0021241637878119946, -0.004998417105525732, 0.9996557235717773, 0.9477671384811401, -2.299032688140869, -0.09996047616004944, 0.0, 0.0, 0.0, 0, 0, 0, 0, 0, 0, 0.9477671384811401, -2.299032688140869, -0.09996047616004944
12406, 0.051621995866298676, -0.0115203857421875, 0.004482843913137913, 0.06950024515390396, 0.07649929821491241, 0.08499542623758316, 0.00201057898811996, -0.0062232790514826775, 1.000096082687378, 0.9497654438018799, -2.3041200637817383, -0.10014799982309341, 0.0, 0.0, 0.0, 0, 0, 0, 0, 0, 0, 0.9497654438018799, -2.3041200637817383, -0.10014799982309341
12416, 0.05147295817732811, -0.012667066417634487, 0.004838727414608002, -0.061573777347803116, 0.1530403196811676, -0.031945690512657166, 0.0027703766245394945, -0.003412875346839428, 0.999286949634552, 0.9517660737037659, -2.309213638305664, -0.10033563524484634, 0.0, 0.0, 0.0, 0, 0, 0, 0, 0, 0, 0.9517660737037659, -2.309213638305664, -0.10033563524484634
12426, 0.0521211102604866, -0.011857455596327782, 0.00426974892616272, 0.16954654455184937, -0.12860088050365448, -0.00875902734696865, 0.0021235987078398466, -0.004561061970889568, 0.9990697503089905, 0.9537692070007324, -2.3143129348754883, -0.10052371025085449, 0.0, 0.0, 0.0, 0, 0, 0, 0, 0, 0, 0.9537692070007324, -2.3143129348754883, -0.10052371025085449
12436, 0.05112478882074356, -0.011164856143295765, 0.0052728308364748955, -0.1229047104716301, -0.12805190682411194, 0.09972362965345383, 0.0009734244667924941, -0.002930817659944296, 1.000846028327942, 0.9557747840881348, -2.3194169998168945, -0.1007126048207283, 0.0, 0.0, 0.0, 0, 0, 0, 0, 0, 0, 0.9557747840881348, -2.3194169998168945, -0.1007126048207283
12446, 0.051422763615846634, -0.011967489495873451, 0.004312928766012192, 0.08989257365465164, -0.056033454835414886, -0.15416942536830902, 0.0021603128407150507, -0.004612834192812443, 1.0009962320327759, 0.9577821493148804, -2.324525833129883, -0.10090155154466629, 0.0, 0.0, 0.0, 0, 0, 0, 0, 0, 0, 0.9577821493148804, -2.324525833129883, -0.10090155154466629
12456, 0.0508127398788929, -0.013507611118257046, 0.005339336581528187, 0.0658540278673172, -0.04459422826766968, 0.2073885053396225, 0.0028082311619073153, -0.005132394842803478, 0.9985787272453308, 0.9597913026809692, -2.329639434814453, -0.10108984261751175, 0.0, 0.0, 0.0, 0, 0, 0, 0, 0, 0, 0.9597913026809692, -2.329639434814453, -0.10108984261751175
12466, 0.0504397377371788, -0.014459730125963688, 0.005983689799904823, -0.042168065905570984, 0.048294954001903534, 0.05424058064818382, 0.005790234077721834, -0.006005312781780958, 0.9991615414619446, 0.9618028998374939, -2.3347585201263428, -0.10127841681241989, 0.0, 0.0, 0.0, 0, 0, 0, 0, 0, 0, 0.9618028998374939, -2.3347585201263428, -0.10127841681241989
12476, 0.049942746758461, -0.013324529863893986, 0.0064179496839642525, 0.05533622205257416, -0.07974465936422348, 0.00505306851118803, 0.0036965354811400175, -0.0045208679512143135, 1.001869797706604, 0.9638186097145081, -2.339883804321289, -0.10146791487932205, 0.0, 0.0, 0.0, 0, 0, 0, 0, 0, 0, 0.9638186097145081, -2.339883804321289, -0.10146791487932205
12486, 0.049657732248306274, -0.013919287361204624, 0.005788296461105347, 0.04349060356616974, 0.15438707172870636, 0.029022598639130592, 0.0008038802770897746, -0.003789130598306656, 0.9985219836235046, 0.9658388495445251, -2.345015287399292, -0.10165722668170929, 0.0, 0.0, 0.0, 0, 0, 0, 0, 0, 0, 0.9658388495445251, -2.345015287399292, -0.10165722668170929
12496, 0.05095943063497543, -0.012746007181704044, 0.006067567504942417, 0.15186642110347748, -0.1560351550579071, -0.003237332683056593, 0.003538495860993862, -0.006221817806363106, 0.9989410638809204, 0.9678615927696228, -2.350152015686035, -0.10184653848409653, 0.0, 0.0, 0.0, 0, 0, 0, 0, 0, 0, 0.9678615927696228, -2.350152015686035, -0.10184653848409653
12506, 0.05143226683139801, -0.012738864868879318, 0.0061048343777656555, -0.003286118619143963, -0.12264132499694824, 0.005677446257323027, 0.0027116993442177773, -0.006406520958989859, 0.9981560707092285, 0.9698866009712219, -2.3552942276000977, -0.10203702002763748, 0.0, 0.0, 0.0, 0, 0, 0, 0, 0, 0, 0.9698866009712219, -2.3552942276000977, -0.10203702002763748
12516, 0.051281869411468506, -0.012862907722592354, 0.00689527066424489, -0.08056538552045822, 0.040854714810848236, 0.015765439718961716, 0.002462959848344326, -0.007352662272751331, 0.997477114200592, 0.9719147682189941, -2.360443353652954, -0.10222899913787842, 0.0, 0.0, 0.0, 0, 0, 0, 0, 0, 0, 0.9719147682189941, -2.360443353652954, -0.10222899913787842
12526, 0.05075535178184509, -0.013347603380680084, 0.006178768817335367, -0.11675427854061127, 0.1025213897228241, -0.14321744441986084, 0.002512856386601925, -0.007283590268343687, 1.000229835510254, 0.9739458560943604, -2.365600347518921, -0.10242296010255814, 0.0, 0.0, 0.0, 0, 0, 0, 0, 0, 0, 0.9739458560943604, -2.365600347518921, -0.10242296010255814
12536, 0.05126003548502922, -0.014785731211304665, 0.007306966930627823, 0.08319532126188278, 0.17916475236415863, 0.16163192689418793, -0.00013701425632461905, -0.006642071530222893, 1.000731110572815, 0.9759795069694519, -2.370765447616577, -0.10261805355548859, 0.0, 0.0, 0.0, 0, 0, 0, 0, 0, 0, 0.9759795069694519, -2.370765447616577, -0.10261805355548859
12546, 0.05106546729803085, -0.01552564650774002, 0.009310062974691391, -0.12270324677228928, 0.1317635327577591, 0.19210228323936462, 0.0013138927752152085, -0.0053949421271681786, 1.0009568929672241, 0.9780146479606628, -2.3759381771087646, -0.10281279683113098, 0.0, 0.0, 0.0, 0, 0, 0, 0, 0, 0, 0.9780146479606628, -2.3759381771087646, -0.10281279683113098
12556, 0.051342252641916275, -0.015665849670767784, 0.009549619629979134, 0.12723925709724426, 0.014686712063848972, 0.03846238553524017, 0.0014300616458058357, -0.0049529303796589375, 0.9989274144172668, 0.980050802230835, -2.381117820739746, -0.10300686210393906, 0.0, 0.0, 0.0, 0, 0, 0, 0, 0, 0, 0.980050802230835, -2.381117820739746, -0.10300686210393906
12566, 0.05064365267753601, -0.014936120249330997, 0.008919786661863327, -0.05792514607310295, -0.10534270852804184, -0.05594169348478317, 0.001882069045677781, -0.006139430217444897, 0.9988120794296265, 0.9820884466171265, -2.386303424835205, -0.10320103168487549, 0.0, 0.0, 0.0, 0, 0, 0, 0, 0, 0, 0.9820884466171265, -2.386303424835205, -0.10320103168487549
12576, 0.04972655326128006, -0.01615964062511921, 0.007983885705471039, -0.15034973621368408, 0.12154420465230942, 0.04732872173190117, 0.0015899628633633256, -0.0050667147152125835, 0.9991108775138855, 0.984127938747406, -2.3914952278137207, -0.10339625924825668, 0.0, 0.0, 0.0, 0, 0, 0, 0, 0, 0, 0.984127938747406, -2.3914952278137207, -0.10339625924825668
12586, 0.05076146125793457, -0.0169192086905241, 0.010230901651084423, 0.2802436053752899, -0.014795356430113316, 0.44528186321258545, 0.0015996547881513834, -0.005689666606485844, 0.9978118538856506, 0.9861693978309631, -2.396693468093872, -0.10359252244234085, 0.0, 0.0, 0.0, 0, 0, 0, 0, 0, 0, 0.9861693978309631, -2.396693468093872, -0.10359252244234085
12596, 0.051594946533441544, -0.016049467027187347, 0.011277738027274609, 0.18524515628814697, -0.13336345553398132, 0.0666598305106163, 0.0018218172481283545, -0.006532380357384682, 0.9981537461280823, 0.9882127046585083, -2.40189790725708, -0.103790283203125, 0.0, 0.0, 0.0, 0, 0, 0, 0, 0, 0, 0.9882127046585083, -2.40189790725708, -0.103790283203125
12606, 0.05120576173067093, -0.016253845766186714, 0.011466086842119694, -0.10425475984811783, 0.2232033908367157, -0.00561851542443037, 0.0027755287010222673, -0.006519377697259188, 0.9995843768119812, 0.9902577996253967, -2.407109260559082, -0.10398997366428375, 0.0, 0.0, 0.0, 0, 0, 0, 0, 0, 0, 0.9902577996253967, -2.407109260559082, -0.10398997366428375
12616, 0.0529005192220211, -0.01422917377203703, 0.01121156383305788, 0.32431721687316895, -0.28760096430778503, 0.0520775131881237, 0.003483347361907363, -0.004414170514792204, 0.9994559288024902, 0.9923052787780762, -2.412327766418457, -0.10419085621833801, 0.0, 0.0, 0.0, 0, 0, 0, 0, 0, 0, 0.9923052787780762, -2.412327766418457, -0.10419085621833801
12626, 0.052563395351171494, -0.015224538743495941, 0.010992862284183502, 0.0420786589384079, 0.13871048390865326, 0.17847780883312225, 0.0008042844128794968, -0.005764749366790056, 1.0010219812393188, 0.9943559169769287, -2.4175527095794678, -0.10439237952232361, 0.0, 0.0, 0.0, 0, 0, 0, 0, 0, 0, 0.9943559169769287, -2.4175527095794678, -0.10439237952232361
12636, 0.05200444534420967, -0.015344892628490925, 0.012788211926817894, -0.09138181060552597, 0.12786248326301575, 0.11686141043901443, 0.0006454673712141812, -0.00406052079051733, 0.9977567195892334, 0.996408998966217, -2.422783613204956, -0.10459384322166443, 0.0, 0.0, 0.0, 0, 0, 0, 0, 0, 0, 0.996408998966217, -2.422783613204956, -0.10459384322166443
12646, 0.052072104066610336, -0.014721984975039959, 0.013461986556649208, -0.04771515354514122, -0.05597422644495964, -0.01688341610133648, 0.00022534966410603374, -0.0038999649696052074, 0.9989051818847656, 0.9984631538391113, -2.4280202388763428, -0.10479581356048584, 0.0, 0.0, 0.0, 0, 0, 0, 0, 0, 0, 0.9984631538391113, -2.4280202388763428, -0.10479581356048584
12656, 0.051952701061964035, -0.01473129354417324, 0.01304884534329176, 0.012524056248366833, -0.15898756682872772, -0.07780809700489044, 0.002481777686625719, -0.006619785446673632, 1.0024302005767822, 1.0005178451538086, -2.4332616329193115, -0.10499934107065201, 0.0, 0.0, 0.0, 0, 0, 0, 0, 0, 0, 1.0005178451538086, -2.4332616329193115, -0.10499934107065201
12666, 0.052515897899866104, -0.017197556793689728, 0.0135031808167696, 0.07548204809427261, 0.15964874625205994, 0.1648739129304886, 0.0035396285820752382, -0.005210199858993292, 0.9995894432067871, 1.002573847770691, -2.4385087490081787, -0.10520266741514206, 0.0, 0.0, 0.0, 0, 0, 0, 0, 0, 0, 1.002573847770691, -2.4385087490081787, -0.10520266741514206
12676, 0.05156257376074791, -0.017276780679821968, 0.013001597486436367, -0.1155422106385231, -0.06213218718767166, 0.08493603765964508, 0.0018698753556236625, -0.00692072743549943, 0.9994320869445801, 1.004632830619812, -2.4437623023986816, -0.1054050624370575, 0.0, 0.0, 0.0, 0, 0, 0, 0, 0, 0, 1.004632830619812, -2.4437623023986816, -0.1054050624370575
12686, 0.05189730226993561, -0.017728930339217186, 0.012157703749835491, 0.09671608358621597, 0.01225428655743599, -0.08877572417259216, 3.9196998841362074e-05, -0.0063117812387645245, 1.0003361701965332, 1.0066947937011719, -2.4490230083465576, -0.10560759156942368, 0.0, 0.0, 0.0, 0, 0, 0, 0, 0, 0, 1.0066947937011719, -2.4490230083465576, -0.10560759156942368
12696, 0.05302482843399048, -0.017111120745539665, 0.011438315734267235, 0.14015302062034607, -0.12995018064975739, -0.06847354024648666, -0.0004733795940410346, -0.002918432466685772, 1.0004966259002686, 1.0087584257125854, -2.4542908668518066, -0.10581018775701523, 0.0, 0.0, 0.0, 0, 0, 0, 0, 0, 0, 1.0087584257125854, -2.4542908668518066, -0.10581018775701523
12706, 0.052506450563669205, -0.016942914575338364, 0.010958048515021801, -0.06857075542211533, -0.018122265115380287, -0.20619063079357147, 0.0018973774276673794, -0.004841375630348921, 0.9983280301094055, 1.0108225345611572, -2.459564685821533, -0.10601259022951126, 0.0, 0.0, 0.0, 0, 0, 0, 0, 0, 0, 1.0108225345611572, -2.459564685821533, -0.10601259022951126
12716, 0.05224969983100891, -0.01687285490334034, 0.011191214434802532, 0.03178129717707634, 0.23877350986003876, 0.00290300534106791, 0.0030760543886572123, -0.0033531272783875465, 0.9999493360519409, 1.0128874778747559, -2.464843273162842, -0.10621554404497147, 0.0, 0.0, 0.0, 0, 0, 0, 0, 0, 0, 1.0128874778747559, -2.464843273162842, -0.10621554404497147
12726, 0.05375903844833374, -0.01714981533586979, 0.0123422397300601, 0.225227490067482, 0.09313375502824783, 0.16402064263820648, 1.7407610357622616e-05, -0.0033666654489934444, 1.0012445449829102, 1.014954924583435, -2.4701266288757324, -0.10641944408416748, 0.0, 0.0, 0.0, 0, 0, 0, 0, 0, 0, 1.014954924583435, -2.4701266288757324, -0.10641944408416748
12736, 0.05388328805565834, -0.017469024285674095, 0.01252688467502594, 0.09673582017421722, -0.00739408191293478, -0.052663445472717285, 0.0032806089147925377, -0.004323028493672609, 0.9995399117469788, 1.0170245170593262, -2.475414276123047, -0.10662318766117096, 0.0, 0.0, 0.0, 0, 0, 0, 0, 0, 0, 1.0170245170593262, -2.475414276123047, -0.10662318766117096
12746, 0.05283799767494202, -0.018112722784280777, 0.011976143345236778, -0.11211705952882767, 0.10843133926391602, 0.023173872381448746, 0.0017223273171111941, -0.004387822467833757, 1.0010226964950562, 1.0190958976745605, -2.4807064533233643, -0.10682658851146698, 0.0, 0.0, 0.0, 0, 0, 0, 0, 0, 0, 1.0190958976745605, -2.4807064533233643, -0.10682658851146698
12756, 0.05291673168540001, -0.018314164131879807, 0.012267032638192177, 0.08003992587327957, 0.04908143728971481, 0.14333681762218475, 0.002441990654915571, -0.005014555063098669, 0.9990056157112122, 1.0211697816848755, -2.4860036373138428, -0.10702976584434509, 0.0, 0.0, 0.0, 0, 0, 0, 0, 0, 0, 1.0211697816848755, -2.4860036373138428, -0.10702976584434509
12766, 0.05342470109462738, -0.017941636964678764, 0.012465543113648891, 0.05235143378376961, -0.06253372877836227, 0.05959298461675644, 0.004447827581316233, -0.006746942177414894, 0.9981810450553894, 1.023246169090271, -2.4913063049316406, -0.10723286867141724, 0.0, 0.0, 0.0, 0, 0, 0, 0, 0, 0, 1.023246169090271, -2.4913063049316406, -0.10723286867141724
12776, 0.05459883064031601, -0.017400948330760002, 0.011761206202208996, 0.1411726325750351, -0.07015706598758698, -0.15691165626049042, 0.003190099261701107, -0.0047880965285003185, 1.0005923509597778, 1.025326132774353, -2.496615409851074, -0.10743720084428787, 0.0, 0.0, 0.0, 0, 0, 0, 0, 0, 0, 1.025326132774353, -2.496615409851074, -0.10743720084428787
12786, 0.05506779998540878, -0.01629311591386795, 0.012414283119142056, 0.01058601401746273, -0.1300579458475113, -0.007106466684490442, 0.00212301523424685, -0.006511411163955927, 0.999729335308075, 1.0274101495742798, -2.5019309520721436, -0.10764236003160477, 0.0, 0.0, 0.0, 0, 0, 0, 0, 0, 0, 1.0274101495742798, -2.5019309520721436, -0.10764236003160477
12796, 0.05484794080257416, -0.014633840881288052, 0.01345975324511528, -0.08819739520549774, -0.19414231181144714, 0.10274102538824081, 0.0019850453827530146, -0.006580717395991087, 1.000437617301941, 1.0294972658157349, -2.5072526931762695, -0.10784735530614853, 0.0, 0.0, 0.0, 0, 0, 0, 0, 0, 0, 1.0294972658157349, -2.5072526931762695, -0.10784735530614853
12806, 0.055136021226644516, -0.013825256377458572, 0.012201185338199139, 0.09836458414793015, -0.09549150615930557, -0.22580447793006897, 0.0012782086851075292, -0.004787039011716843, 1.001069188117981, 1.0315866470336914, -2.5125815868377686, -0.10805216431617737, 0.0, 0.0, 0.0, 0, 0, 0, 0, 0, 0, 1.0315866470336914, -2.5125815868377686, -0.10805216431617737
12816, 0.055948663502931595, -0.010975299403071404, 0.013208208605647087, 0.027624113485217094, -0.3610650897026062, 0.025721993297338486, 0.0012274511391296983, -0.005937755573540926, 1.001346468925476, 1.0336776971817017, -2.5179171562194824, -0.10825647413730621, 0.0, 0.0, 0.0, 0, 0, 0, 0, 0, 0, 1.0336776971817017, -2.5179171562194824, -0.10825647413730621
12826, 0.05562297999858856, -0.011342402547597885, 0.013175643049180508, -0.039156828075647354, 0.062444157898426056, -0.10594484955072403, 0.00100202567409724, -0.003198574297130108, 0.9983989000320435, 1.035770058631897, -2.523258924484253, -0.1084597259759903, 0.0, 0.0, 0.0, 0, 0, 0, 0, 0, 0, 1.035770058631897, -2.523258924484253, -0.1084597259759903
12836, 0.05634390190243721, -0.010036814026534557, 0.013362240977585316, 0.19915343821048737, -0.31789276003837585, 0.1351960450410843, 0.003586364211514592, -0.003463000524789095, 0.9985094666481018, 1.0378636121749878, -2.5286061763763428, -0.10866277664899826, 0.0, 0.0, 0.0, 0, 0, 0, 0, 0, 0, 1.0378636121749878, -2.5286061763763428, -0.10866277664899826
12846, 0.05546033754944801, -0.011291281320154667, 0.013175535947084427, -0.04970031976699829, 0.1752074956893921, 0.16780702769756317, 0.0029239277355372906, -0.003970303572714329, 0.9995787739753723, 1.0399596691131592, -2.5339579582214355, -0.1088671013712883, 0.0, 0.0, 0.0, 0, 0, 0, 0, 0, 0, 1.0399596691131592, -2.5339579582214355, -0.1088671013712883
12856, 0.056891363114118576, -0.012172342278063297, 0.013990521430969238, 0.16209198534488678, 0.17093457281589508, 0.0013616952346637845, 0.0022044964134693146, -0.003306432394310832, 1.0015168190002441, 1.0420591831207275, -2.5393142700195312, -0.10907253623008728, 0.0, 0.0, 0.0, 0, 0, 0, 0, 0, 0, 1.0420591831207275, -2.5393142700195312, -0.10907253623008728
12866, 0.05663130804896355, -0.011423141695559025, 0.014539889059960842, -0.021106839179992676, -0.17044766247272491, 0.06434620916843414, 0.0024016061797738075, -0.005065892823040485, 1.0013952255249023, 1.0441614389419556, -2.54467511177063, -0.10927770286798477, 0.0, 0.0, 0.0, 0, 0, 0, 0, 0, 0, 1.0441614389419556, -2.54467511177063, -0.10927770286798477
12876, 0.056082259863615036, -0.01151343248784542, 0.015766629949212074, 0.19442816078662872, -0.29270610213279724, 0.275079607963562, -0.000692108937073499, -0.00521198520436883, 1.001281976699829, 1.0462660789489746, -2.5500409603118896, -0.10948152095079422, 0.0, 0.0, 0.0, 0, 0, 0, 0, 0, 0, 1.0462660789489746, -2.5500409603118896, -0.10948152095079422
12886, 0.05593045428395271, -0.012918863445520401, 0.01595226675271988, 0.0071631381288170815, 0.070433109998703, -0.057866938412189484, 0.0014792869333177805, -0.005111122503876686, 0.9995435476303101, 1.04837167263031, -2.555413007736206, -0.1096840500831604, 0.0, 0.0, 0.0, 0, 0, 0, 0, 0, 0, 1.04837167263031, -2.555413007736206, -0.1096840500831604
12896, 0.05486582964658737, -0.01382408756762743, 0.01626807264983654, -0.1710793673992157, 0.1325894594192505, 0.0012389123439788818, 0.003639233997091651, -0.004845589864999056, 0.9999631643295288, 1.0504779815673828, -2.560791015625, -0.10988616198301315, 0.0, 0.0, 0.0, 0, 0, 0, 0, 0, 0, 1.0504779815673828, -2.560791015625, -0.10988616198301315
12906, 0.05437174066901207, -0.015983806923031807, 0.016273342072963715, 0.02101861499249935, 0.29076114296913147, 0.012720012106001377, 0.004389386624097824, -0.005168150644749403, 0.9986960291862488, 1.0525869131088257, -2.5661749839782715, -0.11008843034505844, 0.0, 0.0, 0.0, 0, 0, 0, 0, 0, 0, 1.0525869131088257, -2.5661749839782715, -0.11008843034505844
12916, 0.05485144630074501, -0.015127736143767834, 0.01815256103873253, 0.011343326419591904, -0.17341916263103485, 0.22314859926700592, 0.0034081873018294573, -0.005383719690144062, 0.9995889067649841, 1.0546997785568237, -2.5715646743774414, -0.11029119789600372, 0.0, 0.0, 0.0, 0, 0, 0, 0, 0, 0, 1.0546997785568237, -2.5715646743774414, -0.11029119789600372
12926, 0.054760828614234924, -0.015823710709810257, 0.01680469699203968, -0.0014560817508026958, 0.08657023310661316, -0.13160887360572815, 0.0009176248568110168, -0.005352697800844908, 0.9999133348464966, 1.056816577911377, -2.576960325241089, -0.11049462109804153, 0.0, 0.0, 0.0, 0, 0, 0, 0, 0, 0, 1.056816577911377, -2.576960325241089, -0.11049462109804153
12936, 0.053901709616184235, -0.016305511817336082, 0.01661541685461998, -0.08298129588365555, 0.07822688668966293, -0.04588515684008598, 0.0020533802453428507, -0.005761024076491594, 0.9991503953933716, 1.0589358806610107, -2.582362174987793, -0.11069837212562561, 0.0, 0.0, 0.0, 0, 0, 0, 0, 0, 0, 1.0589358806610107, -2.582362174987793, -0.11069837212562561
12946, 0.05429935082793236, -0.015707680955529213, 0.015708396211266518, -0.0041343774646520615, -0.05569689720869064, -0.16678465902805328, 0.002175492700189352, -0.0059257131069898605, 0.9984498620033264, 1.061057209968567, -2.587770462036133, -0.11090264469385147, 0.0, 0.0, 0.0, 0, 0, 0, 0, 0, 0, 1.061057209968567, -2.587770462036133, -0.11090264469385147
12956, 0.05502185598015785, -0.01527352910488844, 0.015705039724707603, 0.18664732575416565, 0.011265909299254417, 0.09865549206733704, 0.0033654433209449053, -0.005156463012099266, 0.9997973442077637, 1.0631810426712036, -2.5931856632232666, -0.11110807955265045, 0.0, 0.0, 0.0, 0, 0, 0, 0, 0, 0, 1.0631810426712036, -2.5931856632232666, -0.11110807955265045
12966, 0.05604536086320877, -0.013812676072120667, 0.015735451132059097, 0.08625447750091553, -0.1323247253894806, 0.05915986746549606, 0.003100214060395956, -0.004471598658710718, 0.9998301267623901, 1.0653079748153687, -2.598607301712036, -0.11131436377763748, 0.0, 0.0, 0.0, 0, 0, 0, 0, 0, 0, 1.0653079748153687, -2.598607301712036, -0.11131436377763748
12976, 0.056209005415439606, -0.012731307186186314, 0.014883249998092651, 0.06561537832021713, -0.211025208234787, 0.004332998767495155, 0.0018869839841499925, -0.004841508809477091, 0.9982215762138367, 1.0674383640289307, -2.604034662246704, -0.11152079701423645, 0.0, 0.0, 0.0, 0, 0, 0, 0, 0, 0, 1.0674383640289307, -2.604034662246704, -0.11152079701423645
12986, 0.05645669251680374, -0.012596935965120792, 0.0148367490619421, 0.08453533798456192, -0.20614615082740784, 0.12625868618488312, 0.0027831553015857935, -0.0048263054341077805, 0.9994542598724365, 1.0695714950561523, -2.6094675064086914, -0.11172797530889511, 0.0, 0.0, 0.0, 0, 0, 0, 0, 0, 0, 1.0695714950561523, -2.6094675064086914, -0.11172797530889511
12996, 0.056589316576719284, -0.011972945183515549, 0.015736529603600502, -0.005586838815361261, 0.01468938123434782, 0.13512392342090607, 0.0010520778596401215, -0.006072124466300011, 1.000603437423706, 1.0717068910598755, -2.614906072616577, -0.11193614453077316, 0.0, 0.0, 0.0, 0, 0, 0, 0, 0, 0, 1.0717068910598755, -2.614906072616577, -0.11193614453077316
13006, 0.05858970060944557, -0.013777492567896843, 0.017062664031982422, 0.26412269473075867, 0.40488797426223755, 0.12881900370121002, 0.0020858284551650286, -0.004824305418878794, 0.9985917806625366, 1.0738441944122314, -2.6203508377075195, -0.11214444041252136, 0.0, 0.0, 0.0, 0, 0, 0, 0, 0, 0, 1.0738441944122314, -2.6203508377075195, -0.11214444041252136
13016, 0.058749035000801086, -0.013625160790979862, 0.015976227819919586, 0.058190423995256424, 0.11430668085813522, -0.2714722752571106, 0.0024620878975838423, -0.0055847493931651115, 0.9984045028686523, 1.0759831666946411, -2.6258020401000977, -0.11235319077968597, 0.0, 0.0, 0.0, 0, 0, 0, 0, 0, 0, 1.0759831666946411, -2.6258020401000977, -0.11235319077968597
13026, 0.058947015553712845, -0.012692231684923172, 0.015434577129781246, 0.13079440593719482, -0.16152037680149078, -0.03228740021586418, 0.0008989616180770099, -0.006352526601403952, 1.0009400844573975, 1.0781244039535522, -2.6312592029571533, -0.11256343126296997, 0.0, 0.0, 0.0, 0, 0, 0, 0, 0, 0, 1.0781244039535522, -2.6312592029571533, -0.11256343126296997
13036, 0.058912020176649094, -0.012333844788372517, 0.014945205301046371, 0.025895608589053154, -0.1769227683544159, -0.04355911910533905, 0.0031655384227633476, -0.0067792534828186035, 0.9998032450675964, 1.0802676677703857, -2.636723279953003, -0.11277426779270172, 0.0, 0.0, 0.0, 0, 0, 0, 0, 0, 0, 1.0802676677703857, -2.636723279953003, -0.11277426779270172
13046, 0.05895072594285011, -0.011903115548193455, 0.014554115012288094, 0.057409606873989105, 0.046678368002176285, 0.11704378575086594, 0.0002497639798093587, -0.006086396519094706, 1.0006343126296997, 1.0824130773544312, -2.6421945095062256, -0.11298483610153198, 0.0, 0.0, 0.0, 0, 0, 0, 0, 0, 0, 1.0824130773544312, -2.6421945095062256, -0.11298483610153198
13056, 0.05948011949658394, -0.01284426636993885, 0.01717698574066162, 0.008167450316250324, 0.2195882946252823, 0.25817105174064636, 0.0009862416191026568, -0.006022305693477392, 1.00200617313385, 1.0845601558685303, -2.6476733684539795, -0.11319511383771896, 0.0, 0.0, 0.0, 0, 0, 0, 0, 0, 0, 1.0845601558685303, -2.6476733684539795, -0.11319511383771896
13066, 0.06002792716026306, -0.013446198776364326, 0.018772637471556664, 0.06986401975154877, 0.09959234297275543, -0.009531360119581223, 0.0026992345228791237, -0.0073992423713207245, 0.9997906684875488, 1.0867079496383667, -2.6531591415405273, -0.11340426653623581, 0.0, 0.0, 0.0, 0, 0, 0, 0, 0, 0, 1.0867079496383667, -2.6531591415405273, -0.11340426653623581
13076, 0.059105537831783295, -0.012118787504732609, 0.018771450966596603, -0.11454353481531143, -0.14923439919948578, -0.04000101983547211, 0.0021599254105240107, -0.007307709660381079, 0.9993640780448914, 1.0888574123382568, -2.6586525440216064, -0.1136125773191452, 0.0, 0.0, 0.0, 0, 0, 0, 0, 0, 0, 1.0888574123382568, -2.6586525440216064, -0.1136125773191452
13086, 0.058706771582365036, -0.012287907302379608, 0.018649529665708542, -0.16439636051654816, -0.09573834389448166, 0.12124890089035034, 0.0013751789228990674, -0.00429861294105649, 0.9984050393104553, 1.0910093784332275, -2.664154291152954, -0.11382129788398743, 0.0, 0.0, 0.0, 0, 0, 0, 0, 0, 0, 1.0910093784332275, -2.664154291152954, -0.11382129788398743
13096, 0.05907328799366951, -0.013835751451551914, 0.019000016152858734, 0.03136949986219406, 0.22306117415428162, 0.14877188205718994, 0.0020413196180015802, -0.0056036063469946384, 1.001046061515808, 1.093163251876831, -2.6696629524230957, -0.1140311136841774, 0.0, 0.0, 0.0, 0, 0, 0, 0, 0, 0, 1.093163251876831, -2.6696629524230957, -0.1140311136841774
13106, 0.05875343084335327, -0.015486366115510464, 0.017749236896634102, -0.018859174102544785, 0.12926869094371796, -0.24002929031848907, 0.0028938069008290768, -0.004798470064997673, 1.000769019126892, 1.095319151878357, -2.675177574157715, -0.11424122750759125, 0.0, 0.0, 0.0, 0, 0, 0, 0, 0, 0, 1.095319151878357, -2.675177574157715, -0.11424122750759125
13116, 0.05789307877421379, -0.01600080356001854, 0.01831112615764141, 0.05703843757510185, -0.08567067235708237, 0.01126742735505104, 0.0008833708707243204, -0.002261633053421974, 1.0000247955322266, 1.097477674484253, -2.6806981563568115, -0.11445056647062302, 0.0, 0.0, 0.0, 0, 0, 0, 0, 0, 0, 1.097477674484253, -2.6806981563568115, -0.11445056647062302
13126, 0.05775834992527962, -0.016472352668642998, 0.018709667026996613, 0.060797300189733505, -0.10681697726249695, -0.0754418820142746, -0.0010206768056377769, -0.004256465006619692, 0.9994966983795166, 1.0996383428573608, -2.6862237453460693, -0.11465947329998016, 0.0, 0.0, 0.0, 0, 0, 0, 0, 0, 0, 1.0996383428573608, -2.6862237453460693, -0.11465947329998016
13136, 0.056619398295879364, -0.017449496313929558, 0.018941009417176247, -0.1185288205742836, -0.03769727051258087, -0.06126953661441803, -0.0014085202710703015, -0.005081138573586941, 0.9973278641700745, 1.1017993688583374, -2.691753625869751, -0.11486871540546417, 0.0, 0.0, 0.0, 0, 0, 0, 0, 0, 0, 1.1017993688583374, -2.691753625869751, -0.11486871540546417
13146, 0.05626266077160835, -0.01901385188102722, 0.01939360238611698, -0.07998394966125488, 0.05056730657815933, 0.08347340673208237, -0.00036585109774023294, -0.0036466699093580246, 0.9985019564628601, 1.1039596796035767, -2.697288990020752, -0.11507952958345413, 0.0, 0.0, 0.0, 0, 0, 0, 0, 0, 0, 1.1039596796035767, -2.697288990020752, -0.11507952958345413
13156, 0.05611231550574303, -0.019985606893897057, 0.019434109330177307, -0.04250193387269974, -0.020184962078928947, 0.06155937537550926, 0.0001736263366183266, -0.004682696890085936, 1.0009024143218994, 1.1061192750930786, -2.702829599380493, -0.11529229581356049, 0.0, 0.0, 0.0, 0, 0, 0, 0, 0, 0, 1.1061192750930786, -2.702829599380493, -0.11529229581356049
13166, 0.05651845782995224, -0.021578937768936157, 0.019381020218133926, 0.01585015095770359, 0.22985419631004333, 0.006125850602984428, 0.0019131575245410204, -0.004204848315566778, 1.0008878707885742, 1.1082791090011597, -2.7083754539489746, -0.11550556868314743, 0.0, 0.0, 0.0, 0, 0, 0, 0, 0, 0, 1.1082791090011597, -2.7083754539489746, -0.11550556868314743
13176, 0.056833572685718536, -0.02070421539247036, 0.01953200437128544, 0.04551323875784874, -0.162328839302063, 0.06230378895998001, 0.004312680568546057, -0.0029653089586645365, 0.997636616230011, 1.1104402542114258, -2.7139267921447754, -0.11571814864873886, 0.0, 0.0, 0.0, 0, 0, 0, 0, 0, 0, 1.1104402542114258, -2.7139267921447754, -0.11571814864873886
13186, 0.0573456697165966, -0.020162001252174377, 0.01941763050854206, 0.23272061347961426, -0.08412905037403107, -0.02078038454055786, 0.0033387860748916864, -0.003237882163375616, 0.9976920485496521, 1.1126046180725098, -2.719482660293579, -0.11593112349510193, 0.0, 0.0, 0.0, 0, 0, 0, 0, 0, 0, 1.1126046180725098, -2.719482660293579, -0.11593112349510193
13196, 0.058439161628484726, -0.01925709657371044, 0.02055397816002369, 0.29693377017974854, -0.21448788046836853, 0.21361905336380005, 0.0018406608141958714, -0.0038517480716109276, 0.9997020959854126, 1.114773154258728, -2.7250428199768066, -0.11614608019590378, 0.0, 0.0, 0.0, 0, 0, 0, 0, 0, 0, 1.114773154258728, -2.7250428199768066, -0.11614608019590378
13206, 0.0573408342897892, -0.021229730919003487, 0.020094774663448334, -0.13151751458644867, 0.24064429104328156, -0.16733303666114807, 0.0022364037577062845, -0.006357498466968536, 1.001179814338684, 1.116944670677185, -2.730607509613037, -0.1163623183965683, 0.0, 0.0, 0.0, 0, 0, 0, 0, 0, 0, 1.116944670677185, -2.730607509613037, -0.1163623183965683
13216, 0.05819651111960411, -0.019622964784502983, 0.019213059917092323, 0.1867307424545288, -0.2024194747209549, -0.1797955334186554, 0.0017032631440088153, -0.005991804879158735, 1.0031071901321411, 1.119118571281433, -2.736178159713745, -0.11657826602458954, 0.0, 0.0, 0.0, 0, 0, 0, 0, 0, 0, 1.119118571281433, -2.736178159713745, -0.11657826602458954
13226, 0.05810854583978653, -0.019288919866085052, 0.020735302940011024, 0.009349794127047062, 0.18125830590724945, 0.19295845925807953, 0.002495736815035343, -0.004705868195742369, 1.0008020401000977, 1.1212947368621826, -2.741755723953247, -0.11679256707429886, 0.0, 0.0, 0.0, 0, 0, 0, 0, 0, 0, 1.1212947368621826, -2.741755723953247, -0.11679256707429886
13236, 0.05892329663038254, -0.01942497119307518, 0.021142208948731422, 0.05568309500813484, 0.08962296694517136, -0.014669314958155155, 0.0037688317243009806, -0.005562335252761841, 0.9995641708374023, 1.1234735250473022, -2.7473394870758057, -0.11700519174337387, 0.0, 0.0, 0.0, 0, 0, 0, 0, 0, 0, 1.1234735250473022, -2.7473394870758057, -0.11700519174337387
13246, 0.05876757204532623, -0.019802380353212357, 0.021513933315873146, -0.050234146416187286, -0.08930334448814392, -0.03260793909430504, 0.0026131372433155775, -0.004727359861135483, 0.9993295669555664, 1.1256557703018188, -2.7529289722442627, -0.11721749603748322, 0.0, 0.0, 0.0, 0, 0, 0, 0, 0, 0, 1.1256557703018188, -2.7529289722442627, -0.11721749603748322
13256, 0.05893106386065483, -0.02001766301691532, 0.020798323675990105, 0.08162200450897217, -0.0984015166759491, -0.265251100063324, 0.0013869358226656914, -0.0059738485142588615, 0.9987918138504028, 1.1278414726257324, -2.7585246562957764, -0.11743021011352539, 0.0, 0.0, 0.0, 0, 0, 0, 0, 0, 0, 1.1278414726257324, -2.7585246562957764, -0.11743021011352539
13266, 0.059285297989845276, -0.019304223358631134, 0.02248062938451767, -0.021014397963881493, -0.0490143708884716, 0.1338900327682495, 0.0017272353870794177, -0.005105955526232719, 0.9990421533584595, 1.1300296783447266, -2.764126777648926, -0.11764378845691681, 0.0, 0.0, 0.0, 0, 0, 0, 0, 0, 0, 1.1300296783447266, -2.764126777648926, -0.11764378845691681
13276, 0.05902598425745964, -0.015507133677601814, 0.02279338799417019, -0.10454034060239792, -0.33816272020339966, -0.09321257472038269, 0.002175999106839299, -0.0056073167361319065, 1.000404715538025, 1.132219910621643, -2.769735336303711, -0.11785846203565598, 0.0, 0.0, 0.0, 0, 0, 0, 0, 0, 0, 1.132219910621643, -2.769735336303711, -0.11785846203565598
13286, 0.05868794396519661, -0.015287826769053936, 0.022424861788749695, -0.11079805344343185, 0.10837657004594803, -0.1625068038702011, 0.003419413696974516, -0.00519373407587409, 1.0004037618637085, 1.134412407875061, -2.775350332260132, -0.11807338148355484, 0.0, 0.0, 0.0, 0, 0, 0, 0, 0, 0, 1.134412407875061, -2.775350332260132, -0.11807338148355484
13296, 0.058918777853250504, -0.014972139149904251, 0.021259034052491188, -0.0017335613956674933, -0.2404201626777649, 0.015198023989796638, 0.0020188584458082914, -0.005749892443418503, 0.9993969798088074, 1.1366078853607178, -2.7809717655181885, -0.11828769743442535, 0.0, 0.0, 0.0, 0, 0, 0, 0, 0, 0, 1.1366078853607178, -2.7809717655181885, -0.11828769743442535
13306, 0.05835459753870964, -0.017096640542149544, 0.022168656811118126, 0.06702566891908646, 0.06716525554656982, 0.26166898012161255, 0.001660318928770721, -0.006341114640235901, 0.998725950717926, 1.1388062238693237, -2.7865993976593018, -0.11850174516439438, 0.0, 0.0, 0.0, 0, 0, 0, 0, 0, 0, 1.1388062238693237, -2.7865993976593018, -0.11850174516439438
13316, 0.05771346017718315, -0.015082310885190964, 0.022239452227950096, -0.13287286460399628, -0.2180076539516449, -0.004154130816459656, 0.0026496718637645245, -0.005226374603807926, 0.9997320175170898, 1.1410068273544312, -2.792233467102051, -0.11871622502803802, 0.0, 0.0, 0.0, 0, 0, 0, 0, 0, 0, 1.1410068273544312, -2.792233467102051, -0.11871622502803802
13326, 0.058077894151210785, -0.012052386067807674, 0.020714830607175827, 0.13950933516025543, -0.4149281084537506, -0.2233840376138687, 0.001245459308847785, -0.0050034974701702595, 1.0010324716567993, 1.14320969581604, -2.7978739738464355, -0.11893115192651749, 0.0, 0.0, 0.0, 0, 0, 0, 0, 0, 0, 1.14320969581604, -2.7978739738464355, -0.11893115192651749
13336, 0.058003250509500504, -0.013287311419844627, 0.020003637298941612, 0.08394820988178253, 0.09089802205562592, -0.16550473868846893, 0.0025182587560266256, -0.003246840788051486, 0.9987364411354065, 1.1454147100448608, -2.803520441055298, -0.11914578825235367, 0.0, 0.0, 0.0, 0, 0, 0, 0, 0, 0, 1.1454147100448608, -2.803520441055298, -0.11914578825235367
13346, 0.057056475430727005, -0.01487990003079176, 0.021346185356378555, -2.9554380489571486e-06, 0.16962790489196777, 0.244411438703537, 0.003171423217281699, -0.003392626764252782, 0.9963290095329285, 1.1476218700408936, -2.8091719150543213, -0.11936070024967194, 0.0, 0.0, 0.0, 0, 0, 0, 0, 0, 0, 1.1476218700408936, -2.8091719150543213, -0.11936070024967194
13356, 0.056960947811603546, -0.015105052851140499, 0.02198774553835392, 0.016228696331381798, -0.09160009771585464, 0.10271565616130829, 0.0020059808157384396, -0.004634805954992771, 0.9984972476959229, 1.1498318910598755, -2.8148279190063477, -0.11957802623510361, 0.0, 0.0, 0.0, 0, 0, 0, 0, 0, 0, 1.1498318910598755, -2.8148279190063477, -0.11957802623510361
13366, 0.05622083321213722, -0.015248446725308895, 0.022257305681705475, -0.06444425880908966, -0.08126118034124374, -0.027420662343502045, 0.0031390595249831676, -0.005364959128201008, 1.0008776187896729, 1.1520447731018066, -2.820488691329956, -0.11979788541793823, 0.0, 0.0, 0.0, 0, 0, 0, 0, 0, 0, 1.1520447731018066, -2.820488691329956, -0.11979788541793823
13376, 0.05685561150312424, -0.015467507764697075, 0.023109013214707375, 0.10213877260684967, 0.15709444880485535, 0.0744309201836586, 0.0024360979441553354, -0.007477389648556709, 0.9990666508674622, 1.154260277748108, -2.826155424118042, -0.12001828849315643, 0.0, 0.0, 0.0, 0, 0, 0, 0, 0, 0, 1.154260277748108, -2.826155424118042, -0.12001828849315643
13386, 0.0564805269241333, -0.015078338794410229, 0.02412036433815956, -0.07847408205270767, 0.035526055842638016, 0.10371534526348114, 0.0024281565565615892, -0.006975851487368345, 0.9986484050750732, 1.1564788818359375, -2.831829309463501, -0.12023886293172836, 0.0, 0.0, 0.0, 0, 0, 0, 0, 0, 0, 1.1564788818359375, -2.831829309463501, -0.12023886293172836
13396, 0.057743657380342484, -0.012967145070433617, 0.02359892427921295, 0.184129536151886, -0.14070850610733032, -0.011357296258211136, 0.004010319244116545, -0.004976827651262283, 0.9995696544647217, 1.1587003469467163, -2.8375110626220703, -0.12046043574810028, 0.0, 0.0, 0.0, 0, 0, 0, 0, 0, 0, 1.1587003469467163, -2.8375110626220703, -0.12046043574810028
13406, 0.057317424565553665, -0.01321932952851057, 0.023895027115941048, -0.08266613632440567, 0.12528707087039948, 0.019153514876961708, 0.004580234177410603, -0.003408761229366064, 1.0002610683441162, 1.160925269126892, -2.8431994915008545, -0.12068276852369308, 0.0, 0.0, 0.0, 0, 0, 0, 0, 0, 0, 1.160925269126892, -2.8431994915008545, -0.12068276852369308
13416, 0.057203199714422226, -0.013574237935245037, 0.02476475015282631, 0.1110723689198494, -0.058178093284368515, 0.11920415610074997, 0.004362199455499649, -0.006469360087066889, 1.0002200603485107, 1.1631543636322021, -2.848893404006958, -0.1209050714969635, 0.0, 0.0, 0.0, 0, 0, 0, 0, 0, 0, 1.1631543636322021, -2.848893404006958, -0.1209050714969635
13426, 0.057110656052827835, -0.01172620803117752, 0.02430562861263752, -0.019688941538333893, -0.1785612553358078, -0.06253630667924881, 0.0015771144535392523, -0.004888377618044615, 1.001124620437622, 1.1653881072998047, -2.854593515396118, -0.12112703174352646, 0.0, 0.0, 0.0, 0, 0, 0, 0, 0, 0, 1.1653881072998047, -2.854593515396118, -0.12112703174352646
13436, 0.056093551218509674, -0.011226893402636051, 0.023843588307499886, -0.11589149385690689, -0.031052418053150177, -0.050948869436979294, 0.0029492820613086224, -0.003924485296010971, 1.000718116760254, 1.1676251888275146, -2.860300064086914, -0.12134821712970734, 0.0, 0.0, 0.0, 0, 0, 0, 0, 0, 0, 1.1676251888275146, -2.860300064086914, -0.12134821712970734
13446, 0.056346047669649124, -0.010536354966461658, 0.022303590551018715, 0.07869008928537369, 0.011356364004313946, -0.13915236294269562, 0.0019191588507965207, -0.005699341185390949, 1.000756859779358, 1.1698646545410156, -2.8660123348236084, -0.12156835943460464, 0.0, 0.0, 0.0, 0, 0, 0, 0, 0, 0, 1.1698646545410156, -2.8660123348236084, -0.12156835943460464
13456, 0.057552270591259, -0.008324230089783669, 0.023105589672923088, 0.18090763688087463, -0.28266167640686035, 0.2564186751842499, 0.003216199576854706, -0.00550714461132884, 1.0007656812667847, 1.1721066236495972, -2.871730327606201, -0.12178777158260345, 0.0, 0.0, 0.0, 0, 0, 0, 0, 0, 0, 1.1721066236495972, -2.871730327606201, -0.12178777158260345
13466, 0.05649628862738609, -0.009577805176377296, 0.021973086521029472, -0.13047607243061066, 0.17092308402061462, -0.09046828001737595, 0.0014692660188302398, -0.005416785832494497, 1.0004838705062866, 1.1743512153625488, -2.8774547576904297, -0.12200652062892914, 0.0, 0.0, 0.0, 0, 0, 0, 0, 0, 0, 1.1743512153625488, -2.8774547576904297, -0.12200652062892914
13476, 0.05655306205153465, -0.0111864497885108, 0.020168324932456017, 0.024551035836338997, 0.15681590139865875, -0.2020239382982254, 0.0019873129203915596, -0.0022485649678856134, 1.0011680126190186, 1.176598310470581, -2.883185386657715, -0.12222462147474289, 0.0, 0.0, 0.0, 0, 0, 0, 0, 0, 0, 1.176598310470581, -2.883185386657715, -0.12222462147474289
13486, 0.0571875162422657, -0.010399050079286098, 0.02061242051422596, 0.07635907083749771, -0.015524549409747124, 0.14298135042190552, 0.002986498875543475, -0.002325379056856036, 0.9999615550041199, 1.1788474321365356, -2.888920783996582, -0.12244206666946411, 0.0, 0.0, 0.0, 0, 0, 0, 0, 0, 0, 1.1788474321365356, -2.888920783996582, -0.12244206666946411
13496, 0.057346656918525696, -0.008828659541904926, 0.01951424777507782, 0.007180307991802692, -0.11799780279397964, -0.2166217863559723, 0.0027579127345234156, -0.0061567360535264015, 1.000259280204773, 1.1810990571975708, -2.8946597576141357, -0.12265924364328384, 0.0, 0.0, 0.0, 0, 0, 0, 0, 0, 0, 1.1810990571975708, -2.8946597576141357, -0.12265924364328384
13506, 0.0565720871090889, -0.00915168970823288, 0.019727345556020737, -0.11068354547023773, -0.06527920812368393, 0.07534261047840118, 0.0025052656419575214, -0.007633020170032978, 0.9984992146492004, 1.1833536624908447, -2.9004037380218506, -0.12287646532058716, 0.0, 0.0, 0.0, 0, 0, 0, 0, 0, 0, 1.1833536624908447, -2.9004037380218506, -0.12287646532058716
13516, 0.05762031301856041, -0.009220682084560394, 0.020188288763165474, 0.05959645286202431, -0.02034486085176468, 0.14302608370780945, 0.002570033073425293, -0.00517174182459712, 0.997187614440918, 1.1856110095977783, -2.9061551094055176, -0.123094342648983, 0.0, 0.0, 0.0, 0, 0, 0, 0, 0, 0, 1.1856110095977783, -2.9061551094055176, -0.123094342648983
13526, 0.057428255677223206, -0.011267590336501598, 0.01892685517668724, -0.0785004198551178, 0.13031990826129913, -0.3076323866844177, 0.004507074598222971, -0.003999438136816025, 0.9979233741760254, 1.187870740890503, -2.911914110183716, -0.12331417948007584, 0.0, 0.0, 0.0, 0, 0, 0, 0, 0, 0, 1.187870740890503, -2.911914110183716, -0.12331417948007584
13536, 0.05755162984132767, -0.010840551927685738, 0.01887277327477932, 0.03988635167479515, -0.03544211760163307, 0.03376569226384163, 0.0038581762928515673, -0.0006523149204440415, 1.0002119541168213, 1.190133810043335, -2.9176790714263916, -0.12353644520044327, 0.0, 0.0, 0.0, 0, 0, 0, 0, 0, 0, 1.190133810043335, -2.9176790714263916, -0.12353644520044327
13546, 0.05665256083011627, -0.01028466410934925, 0.019815316423773766, -0.039517294615507126, 0.06089332327246666, 0.18841636180877686, 0.002768812933936715, -0.0038456134498119354, 1.0013519525527954, 1.1924011707305908, -2.923447608947754, -0.1237599179148674, 0.0, 0.0, 0.0, 0, 0, 0, 0, 0, 0, 1.1924011707305908, -2.923447608947754, -0.1237599179148674
13556, 0.05685284361243248, -0.009882817044854164, 0.02091168239712715, 0.047821298241615295, -0.08849596977233887, 0.16016286611557007, 0.002567589981481433, -0.005819762125611305, 1.000230312347412, 1.1946721076965332, -2.9292194843292236, -0.123982734978199, 0.0, 0.0, 0.0, 0, 0, 0, 0, 0, 0, 1.1946721076965332, -2.9292194843292236, -0.123982734978199
13566, 0.05722055956721306, -0.00880567729473114, 0.021037857979536057, -0.03877953812479973, -0.15307535231113434, -0.15195898711681366, 0.0035390297416597605, -0.006027368362993002, 0.9998029470443726, 1.196946144104004, -2.9349966049194336, -0.12420464307069778, 0.0, 0.0, 0.0, 0, 0, 0, 0, 0, 0, 1.196946144104004, -2.9349966049194336, -0.12420464307069778
13576, 0.05829262733459473, -0.009068318642675877, 0.02243618667125702, 0.10054393112659454, -0.050385478883981705, 0.22334058582782745, 0.004033106379210949, -0.005031832028180361, 0.9981560707092285, 1.1992236375808716, -2.9407806396484375, -0.12442642450332642, 0.0, 0.0, 0.0, 0, 0, 0, 0, 0, 0, 1.1992236375808716, -2.9407806396484375, -0.12442642450332642
13586, 0.058630600571632385, -0.012265753000974655, 0.02270805463194847, 0.011853273026645184, 0.2652573883533478, 0.01751435361802578, 0.00402252608910203, -0.006414182484149933, 1.00038480758667, 1.2015049457550049, -2.946571111679077, -0.12464898824691772, 0.0, 0.0, 0.0, 0, 0, 0, 0, 0, 0, 1.2015049457550049, -2.946571111679077, -0.12464898824691772
13596, 0.059149689972400665, -0.012776639312505722, 0.02255077101290226, -0.016657283529639244, -0.18971815705299377, -0.04416855797171593, 0.003389001591131091, -0.007196612656116486, 1.0017001628875732, 1.2037900686264038, -2.9523682594299316, -0.12487225234508514, 0.0, 0.0, 0.0, 0, 0, 0, 0, 0, 0, 1.2037900686264038, -2.9523682594299316, -0.12487225234508514
13606, 0.05930817127227783, -0.013322084210813046, 0.022722525522112846, -0.004521421622484922, -0.17008161544799805, 0.05560673400759697, 0.00300113158300519, -0.0061541274189949036, 1.000106692314148, 1.2060788869857788, -2.9581730365753174, -0.12509465217590332, 0.0, 0.0, 0.0, 0, 0, 0, 0, 0, 0, 1.2060788869857788, -2.9581730365753174, -0.12509465217590332
13616, 0.058843810111284256, -0.013453981839120388, 0.022851217538118362, -0.17799100279808044, -0.01313173770904541, -0.11702986061573029, 0.0011994262458756566, -0.00599826080724597, 1.0010485649108887, 1.2083708047866821, -2.9639852046966553, -0.12531590461730957, 0.0, 0.0, 0.0, 0, 0, 0, 0, 0, 0, 1.2083708047866821, -2.9639852046966553, -0.12531590461730957
13626, 0.058064401149749756, -0.012097286060452461, 0.02326199598610401, -0.03195260465145111, -0.3459191918373108, -0.02833927422761917, 0.0025573286693543196, -0.0030684848316013813, 0.9987815022468567, 1.210664987564087, -2.969804525375366, -0.12553663551807404, 0.0, 0.0, 0.0, 0, 0, 0, 0, 0, 0, 1.210664987564087, -2.969804525375366, -0.12553663551807404
13636, 0.0588468462228775, -0.009770648553967476, 0.02302004210650921, 0.13010185956954956, -0.2214100956916809, 0.074607715010643, 0.0019684312865138054, -0.0034967362880706787, 1.0002212524414062, 1.213191270828247, -2.9762120246887207, -0.12577970325946808, 0.0, 0.0, 0.0, 0, 0, 0, 0, 0, 0, 1.213191270828247, -2.9762120246887207, -0.12577970325946808
13646, 0.06023973226547241, -0.00923103280365467, 0.023213496431708336, 0.15972831845283508, -0.034419819712638855, 0.07143940031528473, 0.0037910661194473505, -0.005519001744687557, 1.0001578330993652, 1.215720534324646, -2.9826247692108154, -0.12602339684963226, 0.0, 0.0, 0.0, 0, 0, 0, 0, 0, 0, 1.215720534324646, -2.9826247692108154, -0.12602339684963226
13656, 0.059619128704071045, -0.009037123993039131, 0.021809805184602737, -0.11016620695590973, 0.14376577734947205, -0.1219194084405899, 0.0019255452789366245, -0.0038819662295281887, 1.0002702474594116, 1.2180228233337402, -2.988460063934326, -0.1262449473142624, 0.0, 0.0, 0.0, 0, 0, 0, 0, 0, 0, 1.2180228233337402, -2.988460063934326, -0.1262449473142624
13666, 0.05935267359018326, -0.007760621141642332, 0.02238982357084751, 0.031362008303403854, -0.12916068732738495, 0.09981237351894379, 0.00330776022747159, -0.00555763253942132, 0.9969820380210876, 1.2203278541564941, -2.9943008422851562, -0.12646642327308655, 0.0, 0.0, 0.0, 0, 0, 0, 0, 0, 0, 1.2203278541564941, -2.9943008422851562, -0.12646642327308655
13676, 0.060028135776519775, -0.005666529294103384, 0.02329174615442753, 0.16376827657222748, -0.09655077755451202, 0.03351758420467377, 0.004206166137009859, -0.004731483291834593, 0.9983792901039124, 1.2226358652114868, -3.000147581100464, -0.126689150929451, 0.0, 0.0, 0.0, 0, 0, 0, 0, 0, 0, 1.2226358652114868, -3.000147581100464, -0.126689150929451
13686, 0.05953414738178253, -0.006893760524690151, 0.02318490669131279, 0.0023447340354323387, 0.012198437936604023, 0.034148186445236206, 0.004139892756938934, -0.005567698739469051, 0.9991446137428284, 1.2249479293823242, -3.006000280380249, -0.12691403925418854, 0.0, 0.0, 0.0, 0, 0, 0, 0, 0, 0, 1.2249479293823242, -3.006000280380249, -0.12691403925418854
13696, 0.05925995856523514, -0.007171375676989555, 0.021893136203289032, -0.037539128214120865, 0.0432291179895401, -0.06751140207052231, 0.002303779823705554, -0.00566151412203908, 0.9985279440879822, 1.227264404296875, -3.0118589401245117, -0.12714023888111115, 0.0, 0.0, 0.0, 0, 0, 0, 0, 0, 0, 1.227264404296875, -3.0118589401245117, -0.12714023888111115
13706, 0.06005999818444252, -0.00677531911060214, 0.02210957370698452, 0.23651473224163055, -0.049383312463760376, 0.20920751988887787, 0.003486652858555317, -0.006350104697048664, 0.9995181560516357, 1.2295844554901123, -3.0177245140075684, -0.12736748158931732, 0.0, 0.0, 0.0, 0, 0, 0, 0, 0, 0, 1.2295844554901123, -3.0177245140075684, -0.12736748158931732
13716, 0.060170240700244904, -0.007681659422814846, 0.022234423086047173, -0.057132165879011154, -0.1352279931306839, -0.11724641174077988, 0.002632648916915059, -0.005839832127094269, 1.0000275373458862, 1.2319074869155884, -3.023597002029419, -0.12759551405906677, 0.0, 0.0, 0.0, 0, 0, 0, 0, 0, 0, 1.2319074869155884, -3.023597002029419, -0.12759551405906677
13726, 0.06091582402586937, -0.0075607337057590485, 0.022586263716220856, 0.06917473673820496, 0.037622109055519104, -0.10396799445152283, 0.0008107093744911253, -0.004012878052890301, 1.0009829998016357, 1.2342333793640137, -3.0294766426086426, -0.12782347202301025, 0.0, 0.0, 0.0, 0, 0, 0, 0, 0, 0, 1.2342333793640137, -3.0294766426086426, -0.12782347202301025
13736, 0.06039128080010414, -0.00809857901185751, 0.02380332536995411, -0.04683533310890198, -0.0241945069283247, 0.25539466738700867, 0.0001034259403240867, -0.005511867348104715, 1.0002433061599731, 1.2365610599517822, -3.0353622436523438, -0.1280508041381836, 0.0, 0.0, 0.0, 0, 0, 0, 0, 0, 0, 1.2365610599517822, -3.0353622436523438, -0.1280508041381836
13746, 0.06130758672952652, -0.006293630693107843, 0.023975780233740807, 0.16451333463191986, -0.12161321192979813, 0.2384253591299057, 0.001429786323569715, -0.004281874746084213, 1.0005892515182495, 1.2388895750045776, -3.0412535667419434, -0.1282774657011032, 0.0, 0.0, 0.0, 0, 0, 0, 0, 0, 0, 1.2388895750045776, -3.0412535667419434, -0.1282774657011032
13756, 0.06056758761405945, -0.008028439246118069, 0.023103736340999603, -0.04673071950674057, 0.28606173396110535, -0.18802601099014282, 0.0032243195455521345, -0.0040711029432713985, 0.999566376209259, 1.241219162940979, -3.0471506118774414, -0.1285037249326706, 0.0, 0.0, 0.0, 0, 0, 0, 0, 0, 0, 1.241219162940979, -3.0471506118774414, -0.1285037249326706
13766, 0.060291897505521774, -0.006062195170670748, 0.022885654121637344, -0.07491926848888397, -0.21362656354904175, -0.03381488844752312, 0.0018076179549098015, -0.004337855614721775, 0.999482274055481, 1.243551254272461, -3.0530526638031006, -0.12873002886772156, 0.0, 0.0, 0.0, 0, 0, 0, 0, 0, 0, 1.243551254272461, -3.0530526638031006, -0.12873002886772156
13776, 0.05897100269794464, -0.004202840384095907, 0.02218392863869667, -0.06552165746688843, -0.3575854003429413, -0.19366669654846191, 0.002832413651049137, -0.003990305121988058, 1.0015292167663574, 1.2458860874176025, -3.0589599609375, -0.12895652651786804, 0.0, 0.0, 0.0, 0, 0, 0, 0, 0, 0, 1.2458860874176025, -3.0589599609375, -0.12895652651786804
13786, 0.05895432084798813, -0.0034946303348988295, 0.022964434698224068, 0.058388449251651764, -0.2272961586713791, 0.012868673540651798, 0.0018940604059025645, -0.005917903035879135, 1.0002888441085815, 1.2482233047485352, -3.0648725032806396, -0.1291826069355011, 0.0, 0.0, 0.0, 0, 0, 0, 0, 0, 0, 1.2482233047485352, -3.0648725032806396, -0.1291826069355011
13796, 0.05937567725777626, -0.003928882535547018, 0.0223567895591259, 0.009126630611717701, 0.1105625182390213, 0.020427262410521507, 0.001087624579668045, -0.005616883747279644, 0.9978358149528503, 1.2505626678466797, -3.070791006088257, -0.12940840423107147, 0.0, 0.0, 0.0, 0, 0, 0, 0, 0, 0, 1.2505626678466797, -3.070791006088257, -0.12940840423107147
13806, 0.05902044102549553, -0.004296677187085152, 0.02306199260056019, 0.006335938349366188, 0.07998811453580856, 0.13600651919841766, 0.0007145088165998459, -0.005449601914733648, 1.0000946521759033, 1.2529033422470093, -3.076716423034668, -0.12963531911373138, 0.0, 0.0, 0.0, 0, 0, 0, 0, 0, 0, 1.2529033422470093, -3.076716423034668, -0.12963531911373138
13816, 0.059967268258333206, -0.003979043569415808, 0.021581953391432762, 0.15832585096359253, -0.12757405638694763, -0.08124945312738419, 0.0011637917486950755, -0.00618185056373477, 0.9985384345054626, 1.2552449703216553, -3.082648515701294, -0.12986324727535248, 0.0, 0.0, 0.0, 0, 0, 0, 0, 0, 0, 1.2552449703216553, -3.082648515701294, -0.12986324727535248
13826, 0.059158265590667725, -0.0040715825743973255, 0.02173045463860035, -0.16105788946151733, 0.11972808092832565, 0.06019275262951851, 0.0018842639401555061, -0.004678600002080202, 0.9990648627281189, 1.2575875520706177, -3.0885870456695557, -0.13009198009967804, 0.0, 0.0, 0.0, 0, 0, 0, 0, 0, 0, 1.2575875520706177, -3.0885870456695557, -0.13009198009967804
13836, 0.05882439389824867, -0.003640101756900549, 0.020393405109643936, -0.05133203789591789, -0.19628435373306274, -0.22499582171440125, 0.0006311947945505381, -0.005738628096878529, 0.9996587038040161, 1.2599318027496338, -3.094532012939453, -0.13032178580760956, 0.0, 0.0, 0.0, 0, 0, 0, 0, 0, 0, 1.2599318027496338, -3.094532012939453, -0.13032178580760956
13846, 0.05881894379854202, -0.003243413520976901, 0.019061198458075523, -0.07526036351919174, -0.07176050543785095, -0.3130601942539215, 0.0007620505057275295, -0.005231349729001522, 0.999413013458252, 1.262277364730835, -3.1004836559295654, -0.13055211305618286, 0.0, 0.0, 0.0, 0, 0, 0, 0, 0, 0, 1.262277364730835, -3.1004836559295654, -0.13055211305618286
13856, 0.0588470995426178, -0.003717905143275857, 0.018478814512491226, 0.0647856742143631, 0.09413771331310272, 0.06718211621046066, 0.0007583239930681884, -0.00332432659342885, 0.9989542365074158, 1.2646236419677734, -3.1064417362213135, -0.1307830959558487, 0.0, 0.0, 0.0, 0, 0, 0, 0, 0, 0, 1.2646236419677734, -3.1064417362213135, -0.1307830959558487
13866, 0.0589844174683094, -0.0025880502071231604, 0.017149828374385834, 0.05859079957008362, -0.25634679198265076, -0.09377080947160721, 0.000635167642030865, -0.004448042716830969, 0.9998654723167419, 1.2669707536697388, -3.1124048233032227, -0.13101494312286377, 0.0, 0.0, 0.0, 0, 0, 0, 0, 0, 0, 1.2669707536697388, -3.1124048233032227, -0.13101494312286377
13876, 0.059479959309101105, -0.0029167518950998783, 0.017656514421105385, 0.14757825434207916, -0.2758203148841858, 0.18186704814434052, 0.00012574826541822404, -0.006130016874521971, 0.9980568289756775, 1.2693188190460205, -3.118372678756714, -0.13124750554561615, 0.0, 0.0, 0.0, 0, 0, 0, 0, 0, 0, 1.2693188190460205, -3.118372678756714, -0.13124750554561615
13886, 0.059210218489170074, -0.0037586097605526447, 0.017641741782426834, -0.0046608941629529, 0.1878119260072708, 0.020244888961315155, 0.0006324858986772597, -0.006038854829967022, 0.9988818168640137, 1.2716673612594604, -3.124346971511841, -0.13148121535778046, 0.0, 0.0, 0.0, 0, 0, 0, 0, 0, 0, 1.2716673612594604, -3.124346971511841, -0.13148121535778046
13896, 0.060444142669439316, -0.0032886515837162733, 0.018714098259806633, 0.03418203070759773, -0.07934306561946869, 0.07043024152517319, 0.0017301893094554543, -0.003927695099264383, 0.9996545314788818, 1.274016261100769, -3.1303281784057617, -0.13171641528606415, 0.0, 0.0, 0.0, 0, 0, 0, 0, 0, 0, 1.274016261100769, -3.1303281784057617, -0.13171641528606415
13906, 0.06034711375832558, -0.002318124519661069, 0.019055677577853203, 0.07896221429109573, 0.08829003572463989, 0.15709465742111206, 0.0023213804233819246, -0.007846029475331306, 1.0017963647842407, 1.2763664722442627, -3.13631534576416, -0.13195230066776276, 0.0, 0.0, 0.0, 0, 0, 0, 0, 0, 0, 1.2763664722442627, -3.13631534576416, -0.13195230066776276
13916, 0.06043785437941551, -0.002537752501666546, 0.019471662119030952, -0.048484425991773605, 0.13580287992954254, 0.03567640483379364, 0.0013451852137222886, -0.006419793702661991, 0.9993906021118164, 1.2787185907363892, -3.1423099040985107, -0.13218756020069122, 0.0, 0.0, 0.0, 0, 0, 0, 0, 0, 0, 1.2787185907363892, -3.1423099040985107, -0.13218756020069122
13926, 0.060186054557561874, -0.0013009265530854464, 0.019165057688951492, 0.025955351069569588, 0.0851655974984169, -0.05931178852915764, 0.0027324066031724215, -0.005146367941051722, 0.9985141754150391, 1.2810724973678589, -3.1483123302459717, -0.13242241740226746, 0.0, 0.0, 0.0, 0, 0, 0, 0, 0, 0, 1.2810724973678589, -3.1483123302459717, -0.13242241740226746
13936, 0.06072616949677467, -0.0004348519432824105, 0.020807864144444466, 0.09687581658363342, -0.2978037893772125, 0.13745495676994324, 0.0020382176153361797, -0.0032448002602905035, 0.9984773397445679, 1.2834285497665405, -3.1543209552764893, -0.1326584368944168, 0.0, 0.0, 0.0, 0, 0, 0, 0, 0, 0, 1.2834285497665405, -3.1543209552764893, -0.1326584368944168
13946, 0.06130894273519516, -0.0006004348979331553, 0.020772553980350494, 0.15177424252033234, 0.20386821031570435, -0.018879875540733337, 0.001681634341366589, -0.005081442184746265, 1.0001071691513062, 1.2857868671417236, -3.160334587097168, -0.13289573788642883, 0.0, 0.0, 0.0, 0, 0, 0, 0, 0, 0, 1.2857868671417236, -3.160334587097168, -0.13289573788642883
13956, 0.06110420823097229, 0.0014464260311797261, 0.01896001771092415, 0.01666795276105404, -0.17252668738365173, -0.036717843264341354, 0.0023161470890045166, -0.006069031078368425, 0.9999902844429016, 1.2881468534469604, -3.166353702545166, -0.13313330709934235, 0.0, 0.0, 0.0, 0, 0, 0, 0, 0, 0, 1.2881468534469604, -3.166353702545166, -0.13313330709934235
13966, 0.061964381486177444, 0.003110963385552168, 0.018971353769302368, 0.010632979683578014, -0.19582609832286835, -0.01948585733771324, 0.0022398456931114197, -0.0026960407849401236, 0.997251570224762, 1.2905086278915405, -3.1723790168762207, -0.13337120413780212, 0.0, 0.0, 0.0, 0, 0, 0, 0, 0, 0, 1.2905086278915405, -3.1723790168762207, -0.13337120413780212
13976, 0.06054077297449112, 0.001635369728319347, 0.017851833254098892, -0.3049794137477875, 0.24216344952583313, -0.29650530219078064, 0.004329954273998737, -0.005449805874377489, 1.0012718439102173, 1.292872667312622, -3.1784095764160156, -0.13361044228076935, 0.0, 0.0, 0.0, 0, 0, 0, 0, 0, 0, 1.292872667312622, -3.1784095764160156, -0.13361044228076935
13986, 0.05931703373789787, 0.0002652183175086975, 0.018741391599178314, -0.19277238845825195, 0.1414937674999237, 0.1146787628531456, 0.0015526239294558764, -0.005970722995698452, 1.000838041305542, 1.295240044593811, -3.184445381164551, -0.13385002315044403, 0.0, 0.0, 0.0, 0, 0, 0, 0, 0, 0, 1.295240044593811, -3.184445381164551, -0.13385002315044403
13996, 0.058597538620233536, 0.0025836850982159376, 0.01674915850162506, -0.05396440997719765, -0.19629549980163574, -0.07941750437021255, -0.0005127842305228114, -0.0068558743223547935, 0.9982621669769287, 1.297609806060791, -3.190487861633301, -0.13408909738063812, 0.0, 0.0, 0.0, 0, 0, 0, 0, 0, 0, 1.297609806060791, -3.190487861633301, -0.13408909738063812
14006, 0.05875131115317345, 0.0039620231837034225, 0.01688416860997677, -0.013444064185023308, -0.11918727308511734, 0.036761198192834854, 0.0006490932428278029, -0.006608230993151665, 1.0001850128173828, 1.2999799251556396, -3.196537494659424, -0.13432875275611877, 0.0, 0.0, 0.0, 0, 0, 0, 0, 0, 0, 1.2999799251556396, -3.196537494659424, -0.13432875275611877
14016, 0.058933038264513016, 0.0041390229016542435, 0.017206301912665367, -0.030522990971803665, 0.12257180362939835, -0.11207009851932526, 0.0013254050863906741, -0.0060188863426446915, 0.9989938139915466, 1.3023502826690674, -3.202594518661499, -0.13456912338733673, 0.0, 0.0, 0.0, 0, 0, 0, 0, 0, 0, 1.3023502826690674, -3.202594518661499, -0.13456912338733673
14026, 0.05890393629670143, 0.0034248162992298603, 0.01671891286969185, -0.015859359875321388, -0.0768587589263916, 0.058358777314424515, 0.002535754581913352, -0.005021299235522747, 0.9998490810394287, 1.3047215938568115, -3.208658456802368, -0.1348099559545517, 0.0, 0.0, 0.0, 0, 0, 0, 0, 0, 0, 1.3047215938568115, -3.208658456802368, -0.1348099559545517
14036, 0.05842730775475502, 0.003886556252837181, 0.01721213012933731, 0.0562405064702034, -0.12920106947422028, 0.14457276463508606, 0.0029705334454774857, -0.004543745890259743, 0.9991904497146606, 1.307094931602478, -3.214728832244873, -0.1350513994693756, 0.0, 0.0, 0.0, 0, 0, 0, 0, 0, 0, 1.307094931602478, -3.214728832244873, -0.1350513994693756
14046, 0.0576864555478096, 0.0038032482843846083, 0.016589030623435974, -0.06122247129678726, 0.04635678231716156, -0.08514081686735153, 0.0023968531750142574, -0.005127801094204187, 0.9988272190093994, 1.3094711303710938, -3.2208051681518555, -0.13529334962368011, 0.0, 0.0, 0.0, 0, 0, 0, 0, 0, 0, 1.3094711303710938, -3.2208051681518555, -0.13529334962368011
14056, 0.05854726955294609, 0.004473110195249319, 0.01673715002834797, 0.17085564136505127, 0.08497720956802368, 0.0834030881524086, 0.0003636151959653944, -0.0040571438148617744, 1.0009435415267944, 1.311849594116211, -3.2268872261047363, -0.13553577661514282, 0.0, 0.0, 0.0, 0, 0, 0, 0, 0, 0, 1.311849594116211, -3.2268872261047363, -0.13553577661514282
14066, 0.058862946927547455, 0.0026250232476741076, 0.016581514850258827, 0.029777364805340767, 0.2627817988395691, 0.14210911095142365, 0.0008081280393525958, -0.0034489654935896397, 0.9970629811286926, 1.3142292499542236, -3.2329747676849365, -0.13577841222286224, 0.0, 0.0, 0.0, 0, 0, 0, 0, 0, 0, 1.3142292499542236, -3.2329747676849365, -0.13577841222286224
14076, 0.058952394872903824, 0.004494055174291134, 0.017357271164655685, 0.03319521248340607, -0.2085186243057251, 0.07983531057834625, 0.0018086846685037017, -0.005821823608130217, 0.9992137551307678, 1.3166097402572632, -3.2390670776367188, -0.13602223992347717, 0.0, 0.0, 0.0, 0, 0, 0, 0, 0, 0, 1.3166097402572632, -3.2390670776367188, -0.13602223992347717
14086, 0.05799465999007225, 0.006685416214168072, 0.01737256348133087, 0.0029929291922599077, -0.33570578694343567, 0.1737181842327118, 0.0014047817094251513, -0.00312528433278203, 1.00121009349823, 1.3189916610717773, -3.245164632797241, -0.13626734912395477, 0.0, 0.0, 0.0, 0, 0, 0, 0, 0, 0, 1.3189916610717773, -3.245164632797241, -0.13626734912395477
14096, 0.05806123465299606, 0.007280551828444004, 0.01854664646089077, 0.007350819185376167, 0.011049949564039707, 0.07345689088106155, 0.002454638248309493, -0.0038361656479537487, 0.9997984170913696, 1.3213753700256348, -3.251267194747925, -0.13651202619075775, 0.0, 0.0, 0.0, 0, 0, 0, 0, 0, 0, 1.3213753700256348, -3.251267194747925, -0.13651202619075775
14106, 0.0588153675198555, 0.00795556977391243, 0.01680630072951317, 0.06137651205062866, -0.0933213084936142, -0.0405106246471405, 0.0014000663068145514, -0.004810473881661892, 0.9984489679336548, 1.323761224746704, -3.2573745250701904, -0.13675633072853088, 0.0, 0.0, 0.0, 0, 0, 0, 0, 0, 0, 1.323761224746704, -3.2573745250701904, -0.13675633072853088
14116, 0.05881199985742569, 0.00629847776144743, 0.017498446628451347, -0.11145667731761932, 0.14463494718074799, 0.21323922276496887, 0.0006625641835853457, -0.003727582050487399, 0.99908846616745, 1.3261488676071167, -3.2634871006011963, -0.13700152933597565, 0.0, 0.0, 0.0, 0, 0, 0, 0, 0, 0, 1.3261488676071167, -3.2634871006011963, -0.13700152933597565
14126, 0.05787850543856621, 0.007770529482513666, 0.015216467902064323, -0.04870147630572319, 0.029886873438954353, -0.2126416116952896, 0.0024262121878564358, -0.0033836718648672104, 1.0009442567825317, 1.3285375833511353, -3.2696049213409424, -0.13724783062934875, 0.0, 0.0, 0.0, 0, 0, 0, 0, 0, 0, 1.3285375833511353, -3.2696049213409424, -0.13724783062934875
14136, 0.05775350332260132, 0.005776837468147278, 0.017824556678533554, -0.10656818002462387, 0.013513010926544666, 0.15610797703266144, 0.0009553064592182636, -0.00693919463083148, 1.001047968864441, 1.3309277296066284, -3.2757275104522705, -0.13749389350414276, 0.0, 0.0, 0.0, 0, 0, 0, 0, 0, 0, 1.3309277296066284, -3.2757275104522705, -0.13749389350414276
14146, 0.05838419497013092, 0.0032354341819882393, 0.016490554437041283, 0.05351065844297409, 0.4494486153125763, -0.08941958099603653, 0.003107456024736166, -0.005400774069130421, 0.9990172386169434, 1.3333194255828857, -3.2818567752838135, -0.13773894309997559, 0.0, 0.0, 0.0, 0, 0, 0, 0, 0, 0, 1.3333194255828857, -3.2818567752838135, -0.13773894309997559
14156, 0.057174134999513626, 0.003377240151166916, 0.015483575873076916, -0.07919327914714813, -0.014716447331011295, -0.013264968059957027, 0.004532471764832735, -0.0028157017659395933, 0.9981158971786499, 1.3357131481170654, -3.2879927158355713, -0.13798430562019348, 0.0, 0.0, 0.0, 0, 0, 0, 0, 0, 0, 1.3357131481170654, -3.2879927158355713, -0.13798430562019348
14166, 0.05739254131913185, 0.005611152853816748, 0.015818672254681587, 0.05417569354176521, -0.23084105551242828, 0.1378801167011261, 0.0022277573589235544, -0.004543188959360123, 0.9972378611564636, 1.3381105661392212, -3.294133424758911, -0.13823142647743225, 0.0, 0.0, 0.0, 0, 0, 0, 0, 0, 0, 1.3381105661392212, -3.294133424758911, -0.13823142647743225
14176, 0.05825378745794296, 0.005284118000417948, 0.015539940446615219, 0.15771184861660004, -0.08821108937263489, -0.034408774226903915, 0.002563214860856533, -0.006506696809083223, 0.9976202249526978, 1.3405112028121948, -3.300279140472412, -0.13848090171813965, 0.0, 0.0, 0.0, 0, 0, 0, 0, 0, 0, 1.3405112028121948, -3.300279140472412, -0.13848090171813965
14186, 0.058246370404958725, 0.005846030544489622, 0.014739934355020523, -0.13089068233966827, -0.04200083017349243, -0.09871778637170792, 0.0025942539796233177, -0.0045190416276454926, 0.9975506663322449, 1.34291410446167, -3.306431293487549, -0.13873280584812164, 0.0, 0.0, 0.0, 0, 0, 0, 0, 0, 0, 1.34291410446167, -3.306431293487549, -0.13873280584812164
14196, 0.05827096849679947, 0.004653335083276033, 0.013910039328038692, 0.012319177389144897, 0.013554513454437256, -0.1465863138437271, 0.003667631186544895, -0.0033241601195186377, 0.9992890357971191, 1.3453196287155151, -3.312589406967163, -0.13898667693138123, 0.0, 0.0, 0.0, 0, 0, 0, 0, 0, 0, 1.3453196287155151, -3.312589406967163, -0.13898667693138123
14206, 0.05793280154466629, 0.004498928785324097, 0.013450313359498978, -0.17127162218093872, 0.025946762412786484, -0.2584582567214966, 0.0029754622373729944, -0.0035736293066293, 0.9994162917137146, 1.3477280139923096, -3.3187525272369385, -0.1392417997121811, 0.0, 0.0, 0.0, 0, 0, 0, 0, 0, 0, 1.3477280139923096, -3.3187525272369385, -0.1392417997121811
14216, 0.05796307697892189, 0.003973327577114105, 0.013336580246686935, -0.1334063857793808, 0.08800768107175827, -0.094042107462883, 0.001597925671376288, -0.0032509122975170612, 1.0013363361358643, 1.3501391410827637, -3.3249199390411377, -0.13949765264987946, 0.0, 0.0, 0.0, 0, 0, 0, 0, 0, 0, 1.3501391410827637, -3.3249199390411377, -0.13949765264987946
14226, 0.05772297456860542, 0.0046599009074270725, 0.013206005096435547, -0.046846866607666016, -0.14398320019245148, -0.13308720290660858, 0.0007176404469646513, -0.0037348673213273287, 1.0002361536026, 1.352552056312561, -3.33109188079834, -0.13975316286087036, 0.0, 0.0, 0.0, 0, 0, 0, 0, 0, 0, 1.352552056312561, -3.33109188079834, -0.13975316286087036
14236, 0.058247968554496765, 0.005817747674882412, 0.013696735724806786, 0.014034667052328587, -0.17189648747444153, 0.12692156434059143, 0.0003227963170502335, -0.002929367357864976, 0.999647319316864, 1.354966163635254, -3.337268114089966, -0.14000801742076874, 0.0, 0.0, 0.0, 0, 0, 0, 0, 0, 0, 1.354966163635254, -3.337268114089966, -0.14000801742076874
14246, 0.05833858996629715, 0.005387385841459036, 0.012299008667469025, 0.09959426522254944, -0.14963209629058838, -0.1805533468723297, 0.0026819766499102116, -0.002369504887610674, 1.0031388998031616, 1.357380986213684, -3.3434486389160156, -0.14026258885860443, 0.0, 0.0, 0.0, 0, 0, 0, 0, 0, 0, 1.357380986213684, -3.3434486389160156, -0.14026258885860443
14256, 0.058775149285793304, 0.004319476895034313, 0.013425563462078571, 0.1326255053281784, -0.04483362287282944, 0.03641785308718681, 0.004344867076724768, -0.0027024648152291775, 1.0017229318618774, 1.359797477722168, -3.349632740020752, -0.14051544666290283, 0.0, 0.0, 0.0, 0, 0, 0, 0, 0, 0, 1.359797477722168, -3.349632740020752, -0.14051544666290283
14266, 0.059051189571619034, 0.004553323145955801, 0.013278034515678883, -0.040878016501665115, 0.21415632963180542, 0.08953607827425003, 0.005481898318976164, -0.004971722140908241, 1.0009520053863525, 1.3622173070907593, -3.3558201789855957, -0.14076606929302216, 0.0, 0.0, 0.0, 0, 0, 0, 0, 0, 0, 1.3622173070907593, -3.3558201789855957, -0.14076606929302216
14276, 0.05904211476445198, 0.002398721408098936, 0.013684201054275036, 0.09253183007240295, -0.024416113272309303, -0.07265375554561615, 0.003334247972816229, -0.006986634805798531, 1.0007057189941406, 1.364641547203064, -3.3620128631591797, -0.14101536571979523, 0.0, 0.0, 0.0, 0, 0, 0, 0, 0, 0, 1.364641547203064, -3.3620128631591797, -0.14101536571979523
14286, 0.05843307822942734, 0.0011756033636629581, 0.014244376681745052, -0.08711281418800354, 0.2054428607225418, 0.01907452382147312, 0.002159648109227419, -0.008038130588829517, 0.9968017339706421, 1.3670694828033447, -3.368212938308716, -0.14126406610012054, 0.0, 0.0, 0.0, 0, 0, 0, 0, 0, 0, 1.3670694828033447, -3.368212938308716, -0.14126406610012054
14296, 0.05724673345685005, 0.000529929471667856, 0.013874354772269726, -0.011355309747159481, 0.11282622814178467, -0.08977337926626205, 0.0028127680998295546, -0.003227907232940197, 0.9998073577880859, 1.369499921798706, -3.3744208812713623, -0.14151401817798615, 0.0, 0.0, 0.0, 0, 0, 0, 0, 0, 0, 1.369499921798706, -3.3744208812713623, -0.14151401817798615
14306, 0.05660976469516754, -0.0013630278408527374, 0.013566848821938038, 0.07576785236597061, 0.20259952545166016, -0.008798698894679546, 0.0020756383892148733, -0.004476616159081459, 1.0022296905517578, 1.371932864189148, -3.3806347846984863, -0.14176516234874725, 0.0, 0.0, 0.0, 0, 0, 0, 0, 0, 0, 1.371932864189148, -3.3806347846984863, -0.14176516234874725
14316, 0.05660328269004822, -0.0005089102196507156, 0.012400367297232151, -0.14934884011745453, -0.1417430341243744, -0.1239347830414772, 0.001996410544961691, -0.003885437734425068, 0.9992997646331787, 1.3743681907653809, -3.3868534564971924, -0.1420154571533203, 0.0, 0.0, 0.0, 0, 0, 0, 0, 0, 0, 1.3743681907653809, -3.3868534564971924, -0.1420154571533203
14326, 0.05661694332957268, -0.0005336854956112802, 0.012343714945018291, 0.0015369245084002614, 0.1379946768283844, -0.11139265447854996, 0.001117575797252357, -0.004855485167354345, 0.9987115263938904, 1.376805305480957, -3.3930773735046387, -0.14226534962654114, 0.0, 0.0, 0.0, 0, 0, 0, 0, 0, 0, 1.376805305480957, -3.3930773735046387, -0.14226534962654114
14336, 0.0566355437040329, 0.0003228291170671582, 0.011763835325837135, 0.026526445522904396, 0.02812213823199272, -0.15666928887367249, 0.003346401732414961, -0.0055792564526200294, 0.9988784790039062, 1.379244089126587, -3.3993067741394043, -0.14251597225666046, 0.0, 0.0, 0.0, 0, 0, 0, 0, 0, 0, 1.379244089126587, -3.3993067741394043, -0.14251597225666046
14346, 0.05672736465930939, 0.0002810387231875211, 0.01127709448337555, -0.14025495946407318, 0.017771413549780846, -0.08467281609773636, 0.002622624160721898, -0.006500507239252329, 0.999640166759491, 1.3816853761672974, -3.4055423736572266, -0.14276756346225739, 0.0, 0.0, 0.0, 0, 0, 0, 0, 0, 0, 1.3816853761672974, -3.4055423736572266, -0.14276756346225739
14356, 0.057515811175107956, 0.0027625502552837133, 0.010123221203684807, 0.03971334174275398, -0.17936308681964874, -0.20980983972549438, -0.0003586327366065234, -0.00521940877661109, 0.9987167119979858, 1.3841291666030884, -3.4117848873138428, -0.1430199295282364, 0.0, 0.0, 0.0, 0, 0, 0, 0, 0, 0, 1.3841291666030884, -3.4117848873138428, -0.1430199295282364
14366, 0.05787116289138794, 0.0033247654791921377, 0.009385757148265839, 0.08913765102624893, -0.3267626166343689, -0.02554105781018734, 0.002315865596756339, -0.0026130853220820427, 0.9994841814041138, 1.3865736722946167, -3.4180338382720947, -0.14327320456504822, 0.0, 0.0, 0.0, 0, 0, 0, 0, 0, 0, 1.3865736722946167, -3.4180338382720947, -0.14327320456504822
14376, 0.05766889825463295, 0.00013564933033194393, 0.010225467383861542, 0.013811176642775536, 0.2439785748720169, 0.1977977603673935, 0.0020754868164658546, -0.006464966107159853, 0.9997885227203369, 1.389019250869751, -3.424287796020508, -0.14352720975875854, 0.0, 0.0, 0.0, 0, 0, 0, 0, 0, 0, 1.389019250869751, -3.424287796020508, -0.14352720975875854
14386, 0.05837259441614151, 0.00031643675174564123, 0.009792685508728027, 0.04756747931241989, 0.03935358673334122, 0.07467084378004074, 0.0012145799119025469, -0.006244404707103968, 1.0022611618041992, 1.391466736793518, -3.4305474758148193, -0.14378120005130768, 0.0, 0.0, 0.0, 0, 0, 0, 0, 0, 0, 1.391466736793518, -3.4305474758148193, -0.14378120005130768
14396, 0.058465342968702316, -0.0004947524284943938, 0.010904532857239246, -0.056603554636240005, -0.06803791970014572, 0.050250470638275146, 0.002977646654471755, -0.003767729038372636, 0.9993968605995178, 1.3939158916473389, -3.436814069747925, -0.1440342217683792, 0.0, 0.0, 0.0, 0, 0, 0, 0, 0, 0, 1.3939158916473389, -3.436814069747925, -0.1440342217683792
14406, 0.05790237337350845, -0.0018380163237452507, 0.011608609929680824, -0.0396285206079483, 0.022081760689616203, 0.11864836513996124, 0.0022821277379989624, -0.005561960395425558, 0.9988718032836914, 1.396367073059082, -3.443086624145508, -0.1442868560552597, 0.0, 0.0, 0.0, 0, 0, 0, 0, 0, 0, 1.396367073059082, -3.443086624145508, -0.1442868560552597
14416, 0.05850989744067192, -0.002836304483935237, 0.011234757490456104, 0.20300684869289398, 0.08233495056629181, -0.053760237991809845, 0.003109141020104289, -0.005365854129195213, 1.0010432004928589, 1.3988207578659058, -3.4493649005889893, -0.14454038441181183, 0.0, 0.0, 0.0, 0, 0, 0, 0, 0, 0, 1.3988207578659058, -3.4493649005889893, -0.14454038441181183
14426, 0.0591161847114563, -0.0012167667737230659, 0.011655374430119991, 0.016489867120981216, -0.13728684186935425, -0.06502826511859894, 0.004132314119488001, -0.0033717507030814886, 1.0013885498046875, 1.4012771844863892, -3.4556496143341064, -0.14479373395442963, 0.0, 0.0, 0.0, 0, 0, 0, 0, 0, 0, 1.4012771844863892, -3.4556496143341064, -0.14479373395442963
14436, 0.058079250156879425, -0.0010096527403220534, 0.011682969518005848, -0.11057785898447037, 0.10720501840114594, -0.1557636260986328, 0.0029757169540971518, -0.003025165991857648, 0.9997823238372803, 1.4037373065948486, -3.461939573287964, -0.1450459212064743, 0.0, 0.0, 0.0, 0, 0, 0, 0, 0, 0, 1.4037373065948486, -3.461939573287964, -0.1450459212064743
14446, 0.05817101523280144, -0.0004799536836799234, 0.011209513992071152, 0.06440514326095581, 0.0049122897908091545, 0.1047157496213913, 0.003965933807194233, -0.0019495883025228977, 0.9984345436096191, 1.4062010049819946, -3.468233823776245, -0.14529763162136078, 0.0, 0.0, 0.0, 0, 0, 0, 0, 0, 0, 1.4062010049819946, -3.468233823776245, -0.14529763162136078
14456, 0.05859033390879631, -0.001769618014805019, 0.010642561130225658, 0.1322285532951355, -0.06704267114400864, -0.10296878218650818, 0.0015739037189632654, -0.004583387169986963, 0.9982924461364746, 1.408667802810669, -3.474531412124634, -0.14555010199546814, 0.0, 0.0, 0.0, 0, 0, 0, 0, 0, 0, 1.408667802810669, -3.474531412124634, -0.14555010199546814
14466, 0.05901452526450157, -0.000919983081985265, 0.011000856757164001, 0.08546670526266098, -0.019370421767234802, 0.1309083104133606, 0.00308358040638268, -0.007861029356718063, 0.9987249970436096, 1.4111372232437134, -3.4808332920074463, -0.14580410718917847, 0.0, 0.0, 0.0, 0, 0, 0, 0, 0, 0, 1.4111372232437134, -3.4808332920074463, -0.14580410718917847
14476, 0.058740489184856415, -0.001011003740131855, 0.011606104671955109, 0.03902677819132805, -0.0015424425946548581, -0.004727395251393318, 0.0005667309160344303, -0.005313252564519644, 1.0002892017364502, 1.4136089086532593, -3.487142324447632, -0.14605963230133057, 0.0, 0.0, 0.0, 0, 0, 0, 0, 0, 0, 1.4136089086532593, -3.487142324447632, -0.14605963230133057
14486, 0.05906024947762489, -0.0027461813297122717, 0.009815048426389694, 0.1948847621679306, 0.17592573165893555, -0.05849260836839676, 0.0015231524594128132, -0.004940412472933531, 1.0000473260879517, 1.416082501411438, -3.4934587478637695, -0.14631563425064087, 0.0, 0.0, 0.0, 0, 0, 0, 0, 0, 0, 1.416082501411438, -3.4934587478637695, -0.14631563425064087
14496, 0.06036940962076187, -0.0015420012641698122, 0.010810205712914467, 0.15810969471931458, -0.2611244320869446, 0.15174229443073273, 0.003659161739051342, -0.005398896522819996, 1.0003067255020142, 1.4185575246810913, -3.4997811317443848, -0.14657138288021088, 0.0, 0.0, 0.0, 0, 0, 0, 0, 0, 0, 1.4185575246810913, -3.4997811317443848, -0.14657138288021088
14506, 0.06023428589105606, -0.0012811952037736773, 0.01107875257730484, 0.20720437169075012, 0.16381219029426575, 0.03960190340876579, 0.0019377354765310884, -0.003058556467294693, 1.001670479774475, 1.4210351705551147, -3.5061094760894775, -0.14682672917842865, 0.0, 0.0, 0.0, 0, 0, 0, 0, 0, 0, 1.4210351705551147, -3.5061094760894775, -0.14682672917842865
14516, 0.05996682867407799, -0.002024748595431447, 0.010842254385352135, -0.13299423456192017, 0.07891146838665009, -0.03459566459059715, 0.0022584714461117983, -0.003622952848672867, 1.001663088798523, 1.4235153198242188, -3.5124428272247314, -0.1470809429883957, 0.0, 0.0, 0.0, 0, 0, 0, 0, 0, 0, 1.4235153198242188, -3.5124428272247314, -0.1470809429883957
14526, 0.05917055159807205, -0.002138304291293025, 0.01077914610505104, -0.03163246065378189, -0.02144264616072178, -0.010571077466011047, 0.0005436474457383156, -0.005635531153529882, 1.001389503479004, 1.425997257232666, -3.518780469894409, -0.14733345806598663, 0.0, 0.0, 0.0, 0, 0, 0, 0, 0, 0, 1.425997257232666, -3.518780469894409, -0.14733345806598663
14536, 0.05802625045180321, -0.0026554313953965902, 0.010435606352984905, -0.10314185917377472, 0.2639424204826355, -0.01577010750770569, 0.002387356013059616, -0.005327814724296331, 0.9994539022445679, 1.428480625152588, -3.5251238346099854, -0.1475846767425537, 0.0, 0.0, 0.0, 0, 0, 0, 0, 0, 0, 1.428480625152588, -3.5251238346099854, -0.1475846767425537
14546, 0.057542238384485245, -0.0015633894363418221, 0.01001768372952938, -0.04843030124902725, 0.008511992171406746, -0.018812013790011406, 0.003000969532877207, -0.0030461077112704515, 0.9981923699378967, 1.4309656620025635, -3.531473398208618, -0.14783582091331482, 0.0, 0.0, 0.0, 0, 0, 0, 0, 0, 0, 1.4309656620025635, -3.531473398208618, -0.14783582091331482
14556, 0.05728103220462799, 8.112018258543685e-05, 0.009891316294670105, 0.10170533508062363, -0.4201662838459015, 0.03998500108718872, 0.004822463262826204, -0.005027311854064465, 1.000805377960205, 1.4334534406661987, -3.537827968597412, -0.14808805286884308, 0.0, 0.0, 0.0, 0, 0, 0, 0, 0, 0, 1.4334534406661987, -3.537827968597412, -0.14808805286884308
14566, 0.057010579854249954, 0.0009656756883487105, 0.011483748443424702, -0.10907471925020218, -0.029357781633734703, 0.16692455112934113, 0.0007343441830016673, -0.005274539813399315, 1.0007388591766357, 1.43594491481781, -3.544187545776367, -0.14834050834178925, 0.0, 0.0, 0.0, 0, 0, 0, 0, 0, 0, 1.43594491481781, -3.544187545776367, -0.14834050834178925
14576, 0.05671975389122963, 0.0016281050629913807, 0.012077177874743938, -0.003961367066949606, -0.09350687265396118, -0.05384427681565285, 0.0018689131829887629, -0.006171723827719688, 1.0012530088424683, 1.438438892364502, -3.550553321838379, -0.14859208464622498, 0.0, 0.0, 0.0, 0, 0, 0, 0, 0, 0, 1.438438892364502, -3.550553321838379, -0.14859208464622498
14586, 0.05757560208439827, 0.0017366306856274605, 0.012615245766937733, 0.11120136827230453, -0.16991481184959412, -0.06756152957677841, 0.002574760466814041, -0.006095043383538723, 0.9982842803001404, 1.440934419631958, -3.5569257736206055, -0.14884310960769653, 0.0, 0.0, 0.0, 0, 0, 0, 0, 0, 0, 1.440934419631958, -3.5569257736206055, -0.14884310960769653
14596, 0.057116806507110596, 0.0033844527788460255, 0.01278778538107872, 0.08361973613500595, -0.06715020537376404, 0.010395185090601444, 0.003452194854617119, -0.004948530346155167, 0.9979441165924072, 1.4434324502944946, -3.563305139541626, -0.149094820022583, 0.0, 0.0, 0.0, 0, 0, 0, 0, 0, 0, 1.4434324502944946, -3.563305139541626, -0.149094820022583
14606, 0.05632363632321358, 0.004300214350223541, 0.012276108376681805, 0.0752544179558754, -0.049362171441316605, 0.004420403391122818, 0.0034423882607370615, -0.004564321134239435, 1.0012253522872925, 1.4459333419799805, -3.569690704345703, -0.14934806525707245, 0.0, 0.0, 0.0, 0, 0, 0, 0, 0, 0, 1.4459333419799805, -3.569690704345703, -0.14934806525707245
14616, 0.057379383593797684, 0.005690462421625853, 0.01348944753408432, -0.0030628761742264032, -0.2683236300945282, 0.2609148323535919, 0.0017244144110009074, -0.0043628159910440445, 1.0001097917556763, 1.4484373331069946, -3.5760817527770996, -0.14960156381130219, 0.0, 0.0, 0.0, 0, 0, 0, 0, 0, 0, 1.4484373331069946, -3.5760817527770996, -0.14960156381130219
14626, 0.05742620676755905, 0.006869536824524403, 0.012587761506438255, 0.0876895934343338, 0.009763930924236774, 0.03557321056723595, 0.0028521388303488493, -0.004532748367637396, 1.0004181861877441, 1.450943946838379, -3.5824780464172363, -0.14985433220863342, 0.0, 0.0, 0.0, 0, 0, 0, 0, 0, 0, 1.450943946838379, -3.5824780464172363, -0.14985433220863342
14636, 0.05718414857983589, 0.008972268551588058, 0.011556057259440422, -0.16290512681007385, -0.23025834560394287, -0.13842742145061493, 0.0027695908211171627, -0.0046953074634075165, 0.9979685544967651, 1.4534528255462646, -3.5888798236846924, -0.15010683238506317, 0.0, 0.0, 0.0, 0, 0, 0, 0, 0, 0, 1.4534528255462646, -3.5888798236846924, -0.15010683238506317
14646, 0.057404790073633194, 0.010543079115450382, 0.012108088470995426, 0.06952936202287674, -0.283043771982193, 0.11536311358213425, 0.0037825596518814564, -0.006034704390913248, 0.998311460018158, 1.455964207649231, -3.5952870845794678, -0.15036042034626007, 0.0, 0.0, 0.0, 0, 0, 0, 0, 0, 0, 1.455964207649231, -3.5952870845794678, -0.15036042034626007
14656, 0.05727972462773323, 0.009602776728570461, 0.011828828603029251, -0.0990016832947731, 0.3526613712310791, -0.1320723444223404, 0.0037949755787849426, -0.005448048934340477, 1.0016263723373413, 1.4584788084030151, -3.6017005443573, -0.15061570703983307, 0.0, 0.0, 0.0, 0, 0, 0, 0, 0, 0, 1.4584788084030151, -3.6017005443573, -0.15061570703983307
14666, 0.05876699835062027, 0.007728090975433588, 0.012866833247244358, 0.19439326226711273, 0.16643564403057098, 0.2063598334789276, 0.0025244909338653088, -0.0047953324392437935, 1.0020335912704468, 1.4609967470169067, -3.6081204414367676, -0.15087087452411652, 0.0, 0.0, 0.0, 0, 0, 0, 0, 0, 0, 1.4609967470169067, -3.6081204414367676, -0.15087087452411652
14676, 0.05853164196014404, 0.007621712051331997, 0.01143446285277605, 0.06724106520414352, 0.10705588012933731, -0.17390063405036926, 0.0030440560076385736, -0.005996047053486109, 1.001240611076355, 1.4635175466537476, -3.614546775817871, -0.15112419426441193, 0.0, 0.0, 0.0, 0, 0, 0, 0, 0, 0, 1.4635175466537476, -3.614546775817871, -0.15112419426441193
14686, 0.05849280208349228, 0.0069616809487342834, 0.012477027252316475, 0.04634110629558563, 0.1969684511423111, 0.15443874895572662, 0.0017471621977165341, -0.006533583626151085, 0.9991462230682373, 1.466041088104248, -3.6209795475006104, -0.15137600898742676, 0.0, 0.0, 0.0, 0, 0, 0, 0, 0, 0, 1.466041088104248, -3.6209795475006104, -0.15137600898742676
14696, 0.05936051532626152, 0.008316297084093094, 0.012482981197535992, 0.1887105107307434, -0.14001259207725525, 0.05196419358253479, 0.003203317057341337, -0.004748235456645489, 0.9988274574279785, 1.46856689453125, -3.6274192333221436, -0.15162785351276398, 0.0, 0.0, 0.0, 0, 0, 0, 0, 0, 0, 1.46856689453125, -3.6274192333221436, -0.15162785351276398
14706, 0.058232102543115616, 0.008797729387879372, 0.012158596888184547, -0.19974955916404724, -0.12161636352539062, -0.02533588372170925, 0.0021864096634089947, -0.0027291530277580023, 0.9986283779144287, 1.4710952043533325, -3.6338651180267334, -0.15188078582286835, 0.0, 0.0, 0.0, 0, 0, 0, 0, 0, 0, 1.4710952043533325, -3.6338651180267334, -0.15188078582286835
14716, 0.05823952704668045, 0.00884907878935337, 0.013560513034462929, 0.1200743094086647, -0.17545366287231445, 0.09343001246452332, 0.0011035375064238906, -0.004698688164353371, 1.0006295442581177, 1.4736257791519165, -3.640315532684326, -0.1521349549293518, 0.0, 0.0, 0.0, 0, 0, 0, 0, 0, 0, 1.4736257791519165, -3.640315532684326, -0.1521349549293518
14726, 0.0574214830994606, 0.006185718346387148, 0.013060321100056171, -0.07676425576210022, 0.5831236243247986, 0.025934793055057526, 0.000344425265211612, -0.00604427233338356, 1.0005606412887573, 1.4761574268341064, -3.64677095413208, -0.15238943696022034, 0.0, 0.0, 0.0, 0, 0, 0, 0, 0, 0, 1.4761574268341064, -3.64677095413208, -0.15238943696022034
14736, 0.05731087923049927, 0.006958168465644121, 0.014065996743738651, 0.0027678227052092552, -0.2135651707649231, 0.018180688843131065, 0.0008902359404601157, -0.004346834030002356, 0.9995071291923523, 1.478689432144165, -3.6532328128814697, -0.1526433825492859, 0.0, 0.0, 0.0, 0, 0, 0, 0, 0, 0, 1.478689432144165, -3.6532328128814697, -0.1526433825492859
14746, 0.057225536555051804, 0.008085711859166622, 0.014164511114358902, -0.05703766644001007, -0.006768027786165476, 0.017183011397719383, 0.0012900071451440454, -0.005349396727979183, 0.999215304851532, 1.4812219142913818, -3.659700393676758, -0.15289728343486786, 0.0, 0.0, 0.0, 0, 0, 0, 0, 0, 0, 1.4812219142913818, -3.659700393676758, -0.15289728343486786
14756, 0.05672603100538254, 0.009480586275458336, 0.013543445616960526, -0.1156328022480011, -0.0797969326376915, -0.3216516673564911, 0.005111636593937874, -0.0070504555478692055, 1.0003727674484253, 1.4837558269500732, -3.6661739349365234, -0.15315169095993042, 0.0, 0.0, 0.0, 0, 0, 0, 0, 0, 0, 1.4837558269500732, -3.6661739349365234, -0.15315169095993042
14766, 0.05723017081618309, 0.010780212469398975, 0.012907074764370918, 0.09691441059112549, -0.3041597008705139, 0.03500278294086456, 0.005156178958714008, -0.005934968125075102, 1.0000873804092407, 1.4862931966781616, -3.672654628753662, -0.1534062772989273, 0.0, 0.0, 0.0, 0, 0, 0, 0, 0, 0, 1.4862931966781616, -3.672654628753662, -0.1534062772989273
14776, 0.05816357210278511, 0.01054546982049942, 0.013380556367337704, 0.004842953756451607, 0.11566397547721863, 0.08638240396976471, 0.0017921546241268516, -0.005426525138318539, 0.9995514154434204, 1.4888352155685425, -3.679142713546753, -0.15366072952747345, 0.0, 0.0, 0.0, 0, 0, 0, 0, 0, 0, 1.4888352155685425, -3.679142713546753, -0.15366072952747345
14786, 0.0571976937353611, 0.0097205163910985, 0.013348077423870564, -0.17169955372810364, 0.16566136479377747, 0.09328976273536682, 0.0005026035942137241, -0.005827976390719414, 0.9993098974227905, 1.491379976272583, -3.6856369972229004, -0.15391525626182556, 0.0, 0.0, 0.0, 0, 0, 0, 0, 0, 0, 1.491379976272583, -3.6856369972229004, -0.15391525626182556
14796, 0.05656775087118149, 0.008661532774567604, 0.013002690859138966, -0.060506757348775864, 0.27247747778892517, 0.0051169199869036674, 0.0010301925940439105, -0.005977921653538942, 0.9967443346977234, 1.4939255714416504, -3.6921377182006836, -0.15417048335075378, 0.0, 0.0, 0.0, 0, 0, 0, 0, 0, 0, 1.4939255714416504, -3.6921377182006836, -0.15417048335075378
