timeTick, roll, pitch, yaw, gyroX, gyroY, gyroZ, accX, accY, accZ, stateX, stateY, stateZ, target_x, target_y, target_z, otX, otY, otZ, otRoll, otPitch, otYaw, kalX, kalY, kalZ
10780, 0.03578043729066849, -0.05599035322666168, -0.017125897109508514, 0, 0, 0, 0, 0, 0, 0, 0, 0, 0, 0, 0, 0, 0, 0, 0, 0, 0, 0, 0, 0
10790, 0.03574849292635918, -0.05669118091464043, -0.016238611191511154, 0.015134324319660664, 0.039016611874103546, 0.25856927037239075, -0.003502868115901947, -0.002815625164657831, 0.9992372393608093, -0.3777939975261688, -0.3374914526939392, 0.02148306369781494, 0.0, 0.0, 0.0, 0, 0, 0, 0, 0, 0, -0.3786027133464813, -0.33846044540405273, 0.021595332771539688
10800, 0.03485439345240593, -0.057667192071676254, -0.015872349962592125, -0.0385824479162693, 0.200901597738266, 0.1563117951154709, -0.0026871918234974146, -0.0004046160029247403, 1.001592993736267, -0.3786027133464813, -0.33846044540405273, 0.021595332771539688, 0.0, 0.0, 0.0, 0, 0, 0, 0, 0, 0, -0.3794136643409729, -0.3394322693347931, 0.02170722745358944
10810, 0.03509090095758438, -0.058436647057533264, -0.015208597294986248, 0.026232369244098663, 0.21439796686172485, 0.04594472050666809, -0.0013606211869046092, 0.0008242526673711836, 1.0022892951965332, -0.3794136643409729, -0.3394322693347931, 0.02170722745358944, 0.0, 0.0, 0.0, 0, 0, 0, 0, 0, 0, -0.38022580742836, -0.34040525555610657, 0.021820377558469772
10820, 0.035769619047641754, -0.058736950159072876, -0.016472864896059036, 0.026238424703478813, -0.05991813540458679, -0.0864143967628479, -0.001965712755918503, -0.0014035251224413514, 1.0026837587356567, -0.38022580742836, -0.34040525555610657, 0.021820377558469772, 0.0, 0.0, 0.0, 0, 0, 0, 0, 0, 0, -0.3810386061668396, -0.3413788974285126, 0.021935945376753807
10830, 0.03641128167510033, -0.05714965611696243, -0.017526701092720032, 0.08867714554071426, -0.3867391049861908, -0.13091859221458435, -0.0006574997096322477, -0.0005684745265170932, 1.0007045269012451, -0.3810386061668396, -0.3413788974285126, 0.021935945376753807, 0.0, 0.0, 0.0, 0, 0, 0, 0, 0, 0, -0.3818522095680237, -0.3423539102077484, 0.022053677588701248
10840, 0.03522036597132683, -0.0550880990922451, -0.01819702424108982, -0.1527281105518341, -0.1535802185535431, 0.015051125548779964, -0.0010079082567244768, -0.0031303539872169495, 0.9985170364379883, -0.3818522095680237, -0.3423539102077484, 0.022053677588701248, 0.0, 0.0, 0.0, 0, 0, 0, 0, 0, 0, -0.38266605138778687, -0.3433310389518738, 0.02217218093574047
10850, 0.03529053181409836, -0.054254546761512756, -0.01792607456445694, -0.10741104185581207, 0.01339922659099102, -0.0658411830663681, -0.0011591454967856407, 0.00017625086184125394, 0.9995325207710266, -0.38266605138778687, -0.3433310389518738, 0.02217218093574047, 0.0, 0.0, 0.0, 0, 0, 0, 0, 0, 0, -0.3834798038005829, -0.3443106710910797, 0.022290095686912537
10860, 0.035028666257858276, -0.05590862035751343, -0.01834551990032196, -0.10672624409198761, 0.34983545541763306, -0.37319672107696533, -0.0003075244021601975, -0.0015327808214351535, 0.9996858239173889, -0.3834798038005829, -0.3443106710910797, 0.022290095686912537, 0.0, 0.0, 0.0, 0, 0, 0, 0, 0, 0, -0.38429325819015503, -0.3452918827533722, 0.02240721881389618
10870, 0.03601154685020447, -0.05495166778564453, -0.018892211839556694, 0.110760897397995, -0.09775043278932571, -0.18176551163196564, -0.00019178795628249645, -0.003820909420028329, 1.0009406805038452, -0.38429325819015503, -0.3452918827533722, 0.02240721881389618, 0.0, 0.0, 0.0, 0, 0, 0, 0, 0, 0, -0.38510629534721375, -0.34627512097358704, 0.022524405270814896
10880, 0.03602028638124466, -0.05720220506191254, -0.01880902796983719, -0.05494561791419983, 0.46967563033103943, -0.0016730118077248335, -0.00048725397209636867, -0.0002919994294643402, 0.9987586140632629, -0.38510629534721375, -0.34627512097358704, 0.022524405270814896, 0.0, 0.0, 0.0, 0, 0, 0, 0, 0, 0, -0.38591861724853516, -0.34726133942604065, 0.022641904652118683
10890, 0.035832274705171585, -0.05632121488451958, -0.019392909482121468, 0.04784887284040451, -0.1551511138677597, -0.10257896035909653, -0.002219490008428693, 0.000394572940422222, 1.001247525215149, -0.38591861724853516, -0.34726133942604065, 0.022641904652118683, 0.0, 0.0, 0.0, 0, 0, 0, 0, 0, 0, -0.38673070073127747, -0.3482489585876465, 0.022759150713682175
10900, 0.0363532155752182, -0.05586517974734306, -0.019891371950507164, -0.028384989127516747, -0.03898799046874046, -0.14066153764724731, -0.002924123080447316, -0.0008071740157902241, 1.0002453327178955, -0.38673070073127747, -0.3482489585876465, 0.022759150713682175, 0.0, 0.0, 0.0, 0, 0, 0, 0, 0, 0, -0.38754409551620483, -0.3492371737957001, 0.022876927629113197
10910, 0.03586339205503464, -0.05569065362215042, -0.019962728023529053, -0.10857941210269928, -0.04044308885931969, -0.029530098661780357, -0.0014862553216516972, -0.003662234405055642, 0.9995689392089844, -0.38754409551620483, -0.3492371737957001, 0.022876927629113197, 0.0, 0.0, 0.0, 0, 0, 0, 0, 0, 0, -0.38835909962654114, -0.3502272963523865, 0.022995274513959885
10920, 0.035916466265916824, -0.05410049483180046, -0.018113471567630768, 0.048231396824121475, -0.14207762479782104, 0.22985413670539856, -0.0019254569197073579, -0.0006682651001028717, 1.0011202096939087, -0.3891751766204834, -0.35122016072273254, 0.023113714531064034, 0.0, 0.0, 0.0, 0, 0, 0, 0, 0, 0, -0.3891751766204834, -0.35122016072273254, 0.023113714531064034
10930, 0.03589929640293121, -0.055291641503572464, -0.018227314576506615, -0.009748819284141064, 0.22865821421146393, 0.13991814851760864, -0.0011474175844341516, 0.0003926877398043871, 0.9993851184844971, -0.3899920880794525, -0.3522146940231323, 0.02323247119784355, 0.0, 0.0, 0.0, 0, 0, 0, 0, 0, 0, -0.3899920880794525, -0.3522146940231323, 0.02323247119784355
10940, 0.03524938225746155, -0.056051477789878845, -0.017476290464401245, -0.012784359976649284, 0.1517435759305954, 0.02943819761276245, -0.0009649036219343543, -0.0015908358618617058, 0.9990630745887756, -0.3908095359802246, -0.3532100021839142, 0.023350903764367104, 0.0, 0.0, 0.0, 0, 0, 0, 0, 0, 0, -0.3908095359802246, -0.3532100021839142, 0.023350903764367104
10950, 0.034999653697013855, -0.05848529934883118, -0.01793103665113449, -0.021902550011873245, 0.2818290889263153, -0.05870247632265091, -0.003868860425427556, -0.0002581533044576645, 0.9994062185287476, -0.39162757992744446, -0.3542068898677826, 0.023468345403671265, 0.0, 0.0, 0.0, 0, 0, 0, 0, 0, 0, -0.39162757992744446, -0.3542068898677826, 0.023468345403671265
10960, 0.03462480008602142, -0.060293298214673996, -0.017895687371492386, -0.08288057893514633, -0.021826384589076042, 0.007527120877057314, -0.0020164388697594404, -0.0014633346581831574, 1.001997470855713, -0.39244723320007324, -0.35520511865615845, 0.02358565665781498, 0.0, 0.0, 0.0, 0, 0, 0, 0, 0, 0, -0.39244723320007324, -0.35520511865615845, 0.02358565665781498
10970, 0.03401128575205803, -0.05991419032216072, -0.018119387328624725, 0.010962440632283688, -0.029965054243803024, 0.04551560804247856, -0.0015134926652535796, -0.0033278490882366896, 1.0003124475479126, -0.3932681679725647, -0.356205016374588, 0.02370408922433853, 0.0, 0.0, 0.0, 0, 0, 0, 0, 0, 0, -0.3932681679725647, -0.356205016374588, 0.02370408922433853
10980, 0.034467969089746475, -0.05840667709708214, -0.017751634120941162, -0.06475979834794998, -0.2701517641544342, -0.11338499933481216, -0.00018421006097923964, -0.002117876661941409, 0.999805212020874, -0.3940892815589905, -0.3572079837322235, 0.023823175579309464, 0.0, 0.0, 0.0, 0, 0, 0, 0, 0, 0, -0.3940892815589905, -0.3572079837322235, 0.023823175579309464
10990, 0.034911807626485825, -0.05741660296916962, -0.016412194818258286, 0.057016972452402115, 0.1709655374288559, 0.35701271891593933, -0.0008632800308987498, -0.001644396921619773, 1.0005217790603638, -0.39491012692451477, -0.3582135736942291, 0.02394227124750614, 0.0, 0.0, 0.0, 0, 0, 0, 0, 0, 0, -0.39491012692451477, -0.3582135736942291, 0.02394227124750614
11000, 0.03481319174170494, -0.05851946398615837, -0.01647111028432846, 0.051653724163770676, -0.15082557499408722, -0.011555037461221218, -0.004500705283135176, -0.0006216773181222379, 0.9980713725090027, -0.39573147892951965, -0.35922107100486755, 0.024061240255832672, 0.0, 0.0, 0.0, 0, 0, 0, 0, 0, 0, -0.39573147892951965, -0.35922107100486755, 0.024061240255832672
11010, 0.03475096821784973, -0.05875501036643982, -0.017002416774630547, -0.14953449368476868, 0.20387257635593414, -0.035884544253349304, -0.002715903567150235, -0.0013900920748710632, 0.9987973570823669, -0.39573147892951965, -0.35922107100486755, 0.024061240255832672, 0.0, 0.0, 0.0, 0, 0, 0, 0, 0, 0, -0.3965548574924469, -0.36023038625717163, 0.024179069325327873
11020, 0.03493725508451462, -0.0586983747780323, -0.017558598890900612, 0.10872001200914383, -0.1476033627986908, -0.1253986358642578, -0.0019117495976388454, -0.002234057756140828, 0.9986194372177124, -0.3965548574924469, -0.36023038625717163, 0.024179069325327873, 0.0, 0.0, 0.0, 0, 0, 0, 0, 0, 0, -0.39738017320632935, -0.36124157905578613, 0.0242953822016716
11030, 0.035242583602666855, -0.057602230459451675, -0.015590771101415157, 0.03100544586777687, -0.15521351993083954, 0.16925521194934845, -0.001987851457670331, -0.0027531811501830816, 0.9993818402290344, -0.39738017320632935, -0.36124157905578613, 0.0242953822016716, 0.0, 0.0, 0.0, 0, 0, 0, 0, 0, 0, -0.39820635318756104, -0.3622550070285797, 0.024410678073763847
11040, 0.034411296248435974, -0.05990511178970337, -0.017037808895111084, -0.09458282589912415, 0.24919110536575317, -0.07255130261182785, -6.0276492149569094e-05, -0.0024365102872252464, 0.9994322061538696, -0.39820635318756104, -0.3622550070285797, 0.024410678073763847, 0.0, 0.0, 0.0, 0, 0, 0, 0, 0, 0, -0.39911559224128723, -0.3633732497692108, 0.024536585435271263
11050, 0.034687526524066925, -0.06046413257718086, -0.017323818057775497, 0.04735589399933815, -0.10608143359422684, -0.05884034186601639, -0.0004163108242210001, 0.0003272698086220771, 1.0010751485824585, -0.39911559224128723, -0.3633732497692108, 0.024536585435271263, 0.0, 0.0, 0.0, 0, 0, 0, 0, 0, 0, -0.4000243842601776, -0.36449456214904785, 0.024662312120199203
11060, 0.034858863800764084, -0.060343824326992035, -0.017028873786330223, 0.07538648694753647, -0.005371786188334227, 0.2274637669324875, -0.0015946287894621491, -0.0015374417416751385, 1.000409722328186, -0.4000243842601776, -0.36449456214904785, 0.024662312120199203, 0.0, 0.0, 0.0, 0, 0, 0, 0, 0, 0, -0.4008500874042511, -0.3655153512954712, 0.02477739192545414
11070, 0.035039763897657394, -0.060115206986665726, -0.017271097749471664, -0.034759920090436935, 0.02830917201936245, -0.23654404282569885, -0.001576367300003767, -0.001871381071396172, 0.9989338517189026, -0.4008500874042511, -0.3655153512954712, 0.02477739192545414, 0.0, 0.0, 0.0, 0, 0, 0, 0, 0, 0, -0.4016762375831604, -0.36653783917427063, 0.02489243634045124
11080, 0.03550174832344055, -0.062032006680965424, -0.017043661326169968, 0.035644520074129105, 0.3587260842323303, -0.13103236258029938, -0.0005454719648696482, -0.0006494543049484491, 1.001373529434204, -0.4016762375831604, -0.36653783917427063, 0.02489243634045124, 0.0, 0.0, 0.0, 0, 0, 0, 0, 0, 0, -0.40250256657600403, -0.3675621747970581, 0.025007277727127075
11090, 0.03457517549395561, -0.06092189624905586, -0.017778800800442696, -0.12205662578344345, -0.09364590793848038, -0.18558207154273987, -0.0019321066793054342, -0.0013531576842069626, 1.0006225109100342, -0.40250256657600403, -0.3675621747970581, 0.025007277727127075, 0.0, 0.0, 0.0, 0, 0, 0, 0, 0, 0, -0.4033287763595581, -0.3685879409313202, 0.025122961029410362
11100, 0.03395354747772217, -0.059311650693416595, -0.016888320446014404, -0.15134266018867493, 0.07641211897134781, -0.07104351371526718, -0.0011289691319689155, -0.0028747040778398514, 1.0009673833847046, -0.4033287763595581, -0.3685879409313202, 0.025122961029410362, 0.0, 0.0, 0.0, 0, 0, 0, 0, 0, 0, -0.4041552245616913, -0.36961600184440613, 0.025239409878849983
11110, 0.03452325984835625, -0.059376299381256104, -0.016705265268683434, 0.06178602576255798, -0.01715032197535038, -0.16796304285526276, 0.0005774396122433245, -0.00046064855996519327, 0.9997110366821289, -0.4041552245616913, -0.36961600184440613, 0.025239409878849983, 0.0, 0.0, 0.0, 0, 0, 0, 0, 0, 0, -0.40498095750808716, -0.37064650654792786, 0.025356194004416466
11120, 0.0344194620847702, -0.059602733701467514, -0.016164211556315422, 0.04375878721475601, -0.08631359040737152, 0.03798333555459976, 0.000284690031548962, -0.00046239281073212624, 1.0018162727355957, -0.40498095750808716, -0.37064650654792786, 0.025356194004416466, 0.0, 0.0, 0.0, 0, 0, 0, 0, 0, 0, -0.4058052897453308, -0.37167829275131226, 0.025473706424236298
11130, 0.03449277579784393, -0.059553734958171844, -0.01670799031853676, -0.02869943156838417, 0.06959176808595657, -0.11777787655591965, -0.003005912061780691, -0.0018758090445771813, 1.0011119842529297, -0.4058052897453308, -0.37167829275131226, 0.025473706424236298, 0.0, 0.0, 0.0, 0, 0, 0, 0, 0, 0, -0.40662938356399536, -0.3727116286754608, 0.02559271827340126
11140, 0.0343991294503212, -0.0592704713344574, -0.016436060890555382, -0.0789031982421875, -0.07184704393148422, -0.027507871389389038, -0.0022222958505153656, -0.0027405335567891598, 0.9996636509895325, -0.40662938356399536, -0.3727116286754608, 0.02559271827340126, 0.0, 0.0, 0.0, 0, 0, 0, 0, 0, 0, -0.40745484828948975, -0.37374749779701233, 0.025712473317980766
11150, 0.03353038802742958, -0.060571033507585526, -0.01569495163857937, -0.19137150049209595, 0.18995918333530426, -0.014440322294831276, -0.001858344185166061, -0.0009775046491995454, 0.9993956685066223, -0.40745484828948975, -0.37374749779701233, 0.025712473317980766, 0.0, 0.0, 0.0, 0, 0, 0, 0, 0, 0, -0.4082815647125244, -0.37478572130203247, 0.025831807404756546
11160, 0.0345970056951046, -0.06002069264650345, -0.015543170273303986, 0.12837064266204834, -0.12211901694536209, -0.050579946488142014, -0.002052752301096916, 0.0005679171299561858, 1.0000020265579224, -0.4082815647125244, -0.37478572130203247, 0.025831807404756546, 0.0, 0.0, 0.0, 0, 0, 0, 0, 0, 0, -0.4091092050075531, -0.375824898481369, 0.025950787588953972
11170, 0.03541221097111702, -0.05975744128227234, -0.01621054671704769, 0.05474179610610008, 0.22243990004062653, -0.06636988371610641, -0.0009017842239700258, -0.0005855479394085705, 0.9988886117935181, -0.4091092050075531, -0.375824898481369, 0.025950787588953972, 0.0, 0.0, 0.0, 0, 0, 0, 0, 0, 0, -0.4099375903606415, -0.37686464190483093, 0.026069318875670433
11180, 0.03586576506495476, -0.06025400385260582, -0.016547275707125664, 0.00918680988252163, 0.11658325791358948, -0.14947369694709778, -0.000932066875975579, -0.0010397384176030755, 1.000046730041504, -0.4099375903606415, -0.37686464190483093, 0.026069318875670433, 0.0, 0.0, 0.0, 0, 0, 0, 0, 0, 0, -0.4107659161090851, -0.37790560722351074, 0.02618737891316414
11190, 0.03479238972067833, -0.059604477137327194, -0.017982210963964462, -0.06928537786006927, -0.04468078538775444, -0.20931151509284973, -0.0017281266627833247, -0.0009800182888284326, 0.9986151456832886, -0.4107659161090851, -0.37790560722351074, 0.02618737891316414, 0.0, 0.0, 0.0, 0, 0, 0, 0, 0, 0, -0.4115944802761078, -0.3789481520652771, 0.026305079460144043
11200, 0.034997519105672836, -0.05906197056174278, -0.01829054392874241, 0.14523164927959442, -0.22429759800434113, -0.03554447367787361, 0.00042809773003682494, -0.0016894355649128556, 1.000869870185852, -0.4115944802761078, -0.3789481520652771, 0.026305079460144043, 0.0, 0.0, 0.0, 0, 0, 0, 0, 0, 0, -0.4124230444431305, -0.3799925744533539, 0.026422452181577682
11210, 0.03535887226462364, -0.05744558945298195, -0.01936911791563034, 0.08346251398324966, -0.2638894021511078, -0.19223317503929138, -0.0005717663443647325, 6.293260958045721e-05, 1.0030211210250854, -0.4124230444431305, -0.3799925744533539, 0.026422452181577682, 0.0, 0.0, 0.0, 0, 0, 0, 0, 0, 0, -0.41325074434280396, -0.381038635969162, 0.02654125913977623
11220, 0.034360647201538086, -0.058572832494974136, -0.020803995430469513, -0.008225214667618275, 0.11641182005405426, -0.31537964940071106, -0.0014888930600136518, 0.00034784767194651067, 1.000672698020935, -0.41325074434280396, -0.381038635969162, 0.02654125913977623, 0.0, 0.0, 0.0, 0, 0, 0, 0, 0, 0, -0.4140780568122864, -0.38208550214767456, 0.026661984622478485
11230, 0.03419046849012375, -0.056863971054553986, -0.02191312238574028, -0.12598025798797607, -0.1390220820903778, -0.11856743693351746, -0.0025264823343604803, 0.0004163165867794305, 0.9999999403953552, -0.4140780568122864, -0.38208550214767456, 0.026661984622478485, 0.0, 0.0, 0.0, 0, 0, 0, 0, 0, 0, -0.4149060547351837, -0.38313254714012146, 0.02678344026207924
11240, 0.03527262061834335, -0.0591694600880146, -0.021672319620847702, 0.19980446994304657, 0.3037107288837433, 0.10422904789447784, -0.0020077889785170555, -7.824318163329735e-05, 1.001041293144226, -0.4149060547351837, -0.38313254714012146, 0.02678344026207924, 0.0, 0.0, 0.0, 0, 0, 0, 0, 0, 0, -0.4157353639602661, -0.3841795325279236, 0.026905482634902
11250, 0.034469183534383774, -0.061010539531707764, -0.02148541249334812, -0.19323164224624634, 0.2292586863040924, 0.049875110387802124, -0.0014112001517787576, -0.004092501010745764, 1.0003304481506348, -0.4157353639602661, -0.3841795325279236, 0.026905482634902, 0.0, 0.0, 0.0, 0, 0, 0, 0, 0, 0, -0.41656577587127686, -0.38522839546203613, 0.027028052136301994
11260, 0.034797389060258865, -0.06107333302497864, -0.022469043731689453, -0.017543964087963104, 0.08074901252985, -0.12592902779579163, -0.002577065024524927, -0.003697528038173914, 0.9993282556533813, -0.41656577587127686, -0.38522839546203613, 0.027028052136301994, 0.0, 0.0, 0.0, 0, 0, 0, 0, 0, 0, -0.4173969626426697, -0.38628143072128296, 0.027150621637701988
11270, 0.0354953370988369, -0.05815146118402481, -0.023414246737957, 0.05108140781521797, -0.347736656665802, -0.19884920120239258, -0.0016792251262813807, -0.0011761614587157965, 0.9988638162612915, -0.4173969626426697, -0.38628143072128296, 0.027150621637701988, 0.0, 0.0, 0.0, 0, 0, 0, 0, 0, 0, -0.4182293713092804, -0.3873378038406372, 0.027272524312138557
11280, 0.03659534081816673, -0.05837593600153923, -0.02262577787041664, 0.22365859150886536, 0.3071513772010803, 0.11781913042068481, -0.0017802307847887278, 0.000466126628452912, 0.997921347618103, -0.4182293713092804, -0.3873378038406372, 0.027272524312138557, 0.0, 0.0, 0.0, 0, 0, 0, 0, 0, 0, -0.4190627634525299, -0.3883953094482422, 0.027393020689487457
11290, 0.03547443822026253, -0.05977435037493706, -0.025100069120526314, -0.18619370460510254, 0.24395093321800232, -0.24414461851119995, -0.0023872393649071455, -0.0009114766726270318, 0.9992051124572754, -0.4190627634525299, -0.3883953094482422, 0.027393020689487457, 0.0, 0.0, 0.0, 0, 0, 0, 0, 0, 0, -0.4198969304561615, -0.38945335149765015, 0.02751217596232891
11300, 0.03549002483487129, -0.06026298925280571, -0.02508140169084072, -0.10050661116838455, -0.02555769495666027, 0.12391413003206253, -0.0030966708436608315, -0.002501062583178282, 0.9999546408653259, -0.4198969304561615, -0.38945335149765015, 0.02751217596232891, 0.0, 0.0, 0.0, 0, 0, 0, 0, 0, 0, -0.4207324981689453, -0.3905133306980133, 0.027630699798464775
11310, 0.03551029413938522, -0.05887147784233093, -0.025190535932779312, 0.04460161179304123, -0.10020474344491959, 0.034549057483673096, -0.0034186907578259706, -0.0006505393539555371, 0.9975857734680176, -0.4207324981689453, -0.3905133306980133, 0.027630699798464775, 0.0, 0.0, 0.0, 0, 0, 0, 0, 0, 0, -0.4215700030326843, -0.3915756642818451, 0.02774806320667267
11320, 0.03519916906952858, -0.05780962482094765, -0.024402448907494545, -0.08224944770336151, -0.07695623487234116, -0.10939998924732208, -0.0018664601957425475, -0.0009446778567507863, 1.0004541873931885, -0.4215700030326843, -0.3915756642818451, 0.02774806320667267, 0.0, 0.0, 0.0, 0, 0, 0, 0, 0, 0, -0.422409325838089, -0.3926396369934082, 0.027864398434758186
11330, 0.03387074917554855, -0.057309940457344055, -0.024254554882645607, -0.21451963484287262, -0.04861637204885483, -0.05992050841450691, -0.0028065419755876064, -0.0023477140348404646, 1.000785231590271, -0.422409325838089, -0.3926396369934082, 0.027864398434758186, 0.0, 0.0, 0.0, 0, 0, 0, 0, 0, 0, -0.4232499897480011, -0.3937053084373474, 0.027981001883745193
11340, 0.03433649241924286, -0.05778787285089493, -0.023848554119467735, 0.19113151729106903, 0.06122239679098129, -0.00397406006231904, -0.002695565577596426, -0.001663791830651462, 1.0017335414886475, -0.4232499897480011, -0.3937053084373474, 0.027981001883745193, 0.0, 0.0, 0.0, 0, 0, 0, 0, 0, 0, -0.4240924119949341, -0.39477330446243286, 0.02809879742562771
11350, 0.03390612453222275, -0.057936664670705795, -0.023077072575688362, 0.02724735252559185, -0.010984030552208424, 0.1603073924779892, -0.0005077410023659468, 0.0022938100155442953, 1.0008219480514526, -0.4240924119949341, -0.39477330446243286, 0.02809879742562771, 0.0, 0.0, 0.0, 0, 0, 0, 0, 0, 0, -0.42493578791618347, -0.3958424925804138, 0.028217852115631104
11360, 0.0339602530002594, -0.0601034052670002, -0.021935436874628067, 0.022006753832101822, 0.28684568405151367, 0.10054600238800049, -0.002678516786545515, 0.0018439325504004955, 1.002363920211792, -0.42493578791618347, -0.3958424925804138, 0.028217852115631104, 0.0, 0.0, 0.0, 0, 0, 0, 0, 0, 0, -0.4257795810699463, -0.3969106376171112, 0.028338197618722916
11370, 0.033902186900377274, -0.06032255291938782, -0.022200722247362137, 0.06382204592227936, -0.09797696024179459, -0.07990103214979172, -0.0022976433392614126, -0.0015416564419865608, 1.0000715255737305, -0.4257795810699463, -0.3969106376171112, 0.028338197618722916, 0.0, 0.0, 0.0, 0, 0, 0, 0, 0, 0, -0.42662471532821655, -0.3979783356189728, 0.028459738940000534
11380, 0.034224893897771835, -0.060277484357357025, -0.022659210488200188, -0.04889674484729767, -0.07258403301239014, -0.05547480285167694, 0.0005656482535414398, -0.0023912822362035513, 1.0004777908325195, -0.42662471532821655, -0.3979783356189728, 0.028459738940000534, 0.0, 0.0, 0.0, 0, 0, 0, 0, 0, 0, -0.4274701178073883, -0.3990480899810791, 0.028581785038113594
11390, 0.03566259518265724, -0.06197374314069748, -0.021409090608358383, 0.17833420634269714, 0.08064989000558853, 0.12476170808076859, -0.0005628063227050006, -8.872496982803568e-05, 0.99922114610672, -0.4274701178073883, -0.3990480899810791, 0.028581785038113594, 0.0, 0.0, 0.0, 0, 0, 0, 0, 0, 0, -0.4283148944377899, -0.40011996030807495, 0.028703803196549416
11400, 0.035641614347696304, -0.06341695785522461, -0.0204656720161438, 0.10236236453056335, 0.11679983139038086, 0.1033727154135704, -0.0012149870162829757, 0.0011607827618718147, 0.9977898597717285, -0.4283148944377899, -0.40011996030807495, 0.028703803196549416, 0.0, 0.0, 0.0, 0, 0, 0, 0, 0, 0, -0.4291591942310333, -0.40119245648384094, 0.028824614360928535
11410, 0.035438887774944305, -0.06411603093147278, -0.019689207896590233, -0.062109727412462234, 0.10082264989614487, 0.0038197932299226522, -0.0009486941271461546, -0.001208863453939557, 0.9994632601737976, -0.4291591942310333, -0.40119245648384094, 0.028824614360928535, 0.0, 0.0, 0.0, 0, 0, 0, 0, 0, 0, -0.4300033152103424, -0.4022654891014099, 0.028944140300154686
11420, 0.03537401929497719, -0.06539488583803177, -0.020274637266993523, -0.049473024904727936, 0.07035761326551437, -0.02400081790983677, 0.0006981304613873363, -0.001520819845609367, 0.99956214427948, -0.4300033152103424, -0.4022654891014099, 0.028944140300154686, 0.0, 0.0, 0.0, 0, 0, 0, 0, 0, 0, -0.43084681034088135, -0.4033401310443878, 0.029063161462545395
11430, 0.035540707409381866, -0.0633225291967392, -0.01957305707037449, 0.023409271612763405, -0.08040720969438553, 0.059109654277563095, -0.0014920398825779557, -0.0008159036515280604, 1.0003687143325806, -0.43084681034088135, -0.4033401310443878, 0.029063161462545395, 0.0, 0.0, 0.0, 0, 0, 0, 0, 0, 0, -0.4316893517971039, -0.40441659092903137, 0.029181968420743942
11440, 0.03600280359387398, -0.06400839239358902, -0.018049675971269608, -0.03076370805501938, 0.2795545756816864, 0.14446796476840973, -0.0037512655835598707, -0.001374470186419785, 1.001943588256836, -0.4316893517971039, -0.40441659092903137, 0.029181968420743942, 0.0, 0.0, 0.0, 0, 0, 0, 0, 0, 0, -0.43253272771835327, -0.40549445152282715, 0.029301542788743973
11450, 0.036090005189180374, -0.06387405842542648, -0.017518553882837296, 0.0523112528026104, -0.0010348372161388397, -0.00731357978656888, -0.002379989018663764, -0.0006904900074005127, 1.001904845237732, -0.43253272771835327, -0.40549445152282715, 0.029301542788743973, 0.0, 0.0, 0.0, 0, 0, 0, 0, 0, 0, -0.4333780109882355, -0.4065740704536438, 0.029422905296087265
11460, 0.03599413484334946, -0.06224378943443298, -0.01703217625617981, 0.004768175072968006, -0.07993834465742111, 0.0024667142424732447, -0.001898597925901413, -0.0002654555719345808, 0.9993093013763428, -0.4333780109882355, -0.4065740704536438, 0.029422905296087265, 0.0, 0.0, 0.0, 0, 0, 0, 0, 0, 0, -0.43422457575798035, -0.4076552093029022, 0.029545260593295097
11470, 0.036170851439237595, -0.061032213270664215, -0.016366899013519287, -0.06282825022935867, -0.15978635847568512, -0.10977179557085037, -0.0014785499079152942, -0.0008454403141513467, 1.0011430978775024, -0.43422457575798035, -0.4076552093029022, 0.029545260593295097, 0.0, 0.0, 0.0, 0, 0, 0, 0, 0, 0, -0.43507182598114014, -0.40873757004737854, 0.029667776077985764
11480, 0.03741494193673134, -0.06095854938030243, -0.015852825716137886, 0.0940966010093689, -0.22992920875549316, 0.16698439419269562, -0.0033209945540875196, -0.0019409318920224905, 1.0010204315185547, -0.43507182598114014, -0.40873757004737854, 0.029667776077985764, 0.0, 0.0, 0.0, 0, 0, 0, 0, 0, 0, -0.4359201490879059, -0.4098217487335205, 0.029791204258799553
11490, 0.03712005540728569, -0.061043672263622284, -0.01695650815963745, -0.12459961324930191, 0.07496893405914307, -0.05206518992781639, -0.002342276507988572, -0.0006590873235836625, 0.998969554901123, -0.4359201490879059, -0.4098217487335205, 0.029791204258799553, 0.0, 0.0, 0.0, 0, 0, 0, 0, 0, 0, -0.4367702007293701, -0.41090792417526245, 0.02991502359509468
11500, 0.03699177876114845, -0.0615442618727684, -0.016452975571155548, -0.006066591944545507, 0.16678549349308014, 0.21834814548492432, -0.0001525845000287518, -0.0022638209629803896, 0.9992766976356506, -0.4367702007293701, -0.41090792417526245, 0.02991502359509468, 0.0, 0.0, 0.0, 0, 0, 0, 0, 0, 0, -0.4376209080219269, -0.41199612617492676, 0.03003803640604019
11510, 0.037715524435043335, -0.06261231750249863, -0.016478857025504112, 0.07577405124902725, -0.019860096275806427, 0.07726142555475235, -0.0032743792980909348, -0.0016970966244116426, 0.9971504211425781, -0.4376209080219269, -0.41199612617492676, 0.03003803640604019, 0.0, 0.0, 0.0, 0, 0, 0, 0, 0, 0, -0.43847203254699707, -0.4130866229534149, 0.030159639194607735
11520, 0.035949308425188065, -0.062166184186935425, -0.01724257878959179, -0.217668354511261, -0.07026666402816772, -0.17602045834064484, -0.003148214425891638, -0.0021775371860712767, 1.0004239082336426, -0.43847203254699707, -0.4130866229534149, 0.030159639194607735, 0.0, 0.0, 0.0, 0, 0, 0, 0, 0, 0, -0.4393250048160553, -0.4141795039176941, 0.03027988038957119
11530, 0.03583569452166557, -0.061540402472019196, -0.01729413866996765, -0.05127566680312157, -0.06952665746212006, -0.1062810868024826, -0.0010613597696647048, -0.0009698144858703017, 1.0011804103851318, -0.4393250048160553, -0.4141795039176941, 0.03027988038957119, 0.0, 0.0, 0.0, 0, 0, 0, 0, 0, 0, -0.4401792287826538, -0.4152747690677643, 0.030400464311242104
11540, 0.034365199506282806, -0.06385817378759384, -0.016903774812817574, -0.04164329543709755, 0.3199271559715271, -0.06126127392053604, -0.0014448035508394241, -0.0015161503106355667, 1.0004326105117798, -0.4401792287826538, -0.4152747690677643, 0.030400464311242104, 0.0, 0.0, 0.0, 0, 0, 0, 0, 0, 0, -0.44103386998176575, -0.4163721203804016, 0.03052203357219696
11550, 0.035359691828489304, -0.06503124535083771, -0.017275817692279816, 0.11752402037382126, 2.922739804489538e-05, -0.13493473827838898, -0.0013455214211717248, -5.268011591397226e-05, 1.0004892349243164, -0.44103386998176575, -0.4163721203804016, 0.03052203357219696, 0.0, 0.0, 0.0, 0, 0, 0, 0, 0, 0, -0.4418889880180359, -0.4174709916114807, 0.03064410574734211
11560, 0.035093970596790314, -0.06648097187280655, -0.01641915552318096, 0.04390424117445946, 0.24185144901275635, 0.14122401177883148, -0.0012650926364585757, 0.001244104583747685, 1.0011518001556396, -0.4418889880180359, -0.4174709916114807, 0.03064410574734211, 0.0, 0.0, 0.0, 0, 0, 0, 0, 0, 0, -0.4427444338798523, -0.4185698628425598, 0.030766665935516357
11570, 0.03513439744710922, -0.06424181163311005, -0.017189573496580124, -0.038930922746658325, -0.091669000685215, -0.11433258652687073, -0.0019530574791133404, -0.0022694694343954325, 1.002821445465088, -0.4427444338798523, -0.4185698628425598, 0.030766665935516357, 0.0, 0.0, 0.0, 0, 0, 0, 0, 0, 0, -0.443600594997406, -0.4196693003177643, 0.030890773981809616
11580, 0.03566703572869301, -0.06418411433696747, -0.01652657613158226, 0.0339701883494854, 0.11002221703529358, 0.13096755743026733, -0.0019479822367429733, -0.0012637227773666382, 0.9990785717964172, -0.443600594997406, -0.4196693003177643, 0.030890773981809616, 0.0, 0.0, 0.0, 0, 0, 0, 0, 0, 0, -0.44445767998695374, -0.4207707345485687, 0.031016264110803604
11590, 0.03541146591305733, -0.0635298565030098, -0.016230972483754158, -0.012602617032825947, -0.1729380339384079, 0.18535687029361725, -0.0020485660061240196, -0.001854972681030631, 0.9999178647994995, -0.44445767998695374, -0.4207707345485687, 0.031016264110803604, 0.0, 0.0, 0.0, 0, 0, 0, 0, 0, 0, -0.4453156888484955, -0.4218742847442627, 0.031141676008701324
11600, 0.03589741885662079, -0.06449107825756073, -0.015441573224961758, -0.006168303545564413, 0.33140966296195984, 0.1104435846209526, -0.002492449013516307, -0.0017590702045708895, 1.0009417533874512, -0.4453156888484955, -0.4218742847442627, 0.031141676008701324, 0.0, 0.0, 0.0, 0, 0, 0, 0, 0, 0, -0.4461749196052551, -0.42298007011413574, 0.03126717731356621
11610, 0.036157213151454926, -0.06412521004676819, -0.014046724885702133, 0.04549085721373558, 0.001893507200293243, 0.11281594634056091, -0.0006754057249054313, -0.0016477068420499563, 1.0010992288589478, -0.4461749196052551, -0.42298007011413574, 0.03126717731356621, 0.0, 0.0, 0.0, 0, 0, 0, 0, 0, 0, -0.4470351040363312, -0.4240882098674774, 0.03139347583055496
11620, 0.0356716550886631, -0.06437382847070694, -0.01335812360048294, -0.07025743275880814, 0.14921654760837555, -0.0017755746375769377, -2.0684550690930337e-05, -0.0010384618071839213, 1.0019150972366333, -0.4470351040363312, -0.4240882098674774, 0.03139347583055496, 0.0, 0.0, 0.0, 0, 0, 0, 0, 0, 0, -0.4478949308395386, -0.4251985549926758, 0.03152121976017952
11630, 0.03690784424543381, -0.06490565836429596, -0.013002227991819382, 0.20732402801513672, 0.10951775312423706, -0.10413668304681778, -0.0010889264522120357, -0.000409548229072243, 0.9994859099388123, -0.4478949308395386, -0.4251985549926758, 0.03152121976017952, 0.0, 0.0, 0.0, 0, 0, 0, 0, 0, 0, -0.44875410199165344, -0.4263101816177368, 0.03164983168244362
11640, 0.036847762763500214, -0.06470593065023422, -0.011390965431928635, 0.12454605847597122, -0.04307401180267334, 0.16635383665561676, 0.00012056339619448408, -0.00084469880675897, 1.0007758140563965, -0.44875410199165344, -0.4263101816177368, 0.03164983168244362, 0.0, 0.0, 0.0, 0, 0, 0, 0, 0, 0, -0.4496127963066101, -0.4274228513240814, 0.03177874907851219
11650, 0.03624817728996277, -0.06669152528047562, -0.01104260329157114, 0.03204667195677757, 0.33171597123146057, -0.05310298129916191, -0.0005583423771895468, -0.0021089387591928244, 0.9984753727912903, -0.4496127963066101, -0.4274228513240814, 0.03177874907851219, 0.0, 0.0, 0.0, 0, 0, 0, 0, 0, 0, -0.45047059655189514, -0.42853736877441406, 0.03190763667225838
11660, 0.03785211592912674, -0.0645422711968422, -0.011172551661729813, 0.26809898018836975, -0.2888336777687073, 0.15314655005931854, -0.0017112254863604903, -0.0008460897370241582, 1.0010048151016235, -0.45047059655189514, -0.42853736877441406, 0.03190763667225838, 0.0, 0.0, 0.0, 0, 0, 0, 0, 0, 0, -0.45132794976234436, -0.42965391278266907, 0.03203625604510307
11670, 0.03720380738377571, -0.06468230485916138, -0.010668233968317509, -0.1863146275281906, 0.18587152659893036, 0.39048805832862854, -0.0023622210137546062, -0.00017309117538388819, 1.0011699199676514, -0.45132794976234436, -0.42965391278266907, 0.03203625604510307, 0.0, 0.0, 0.0, 0, 0, 0, 0, 0, 0, -0.45218613743782043, -0.4307716488838196, 0.03216544911265373
11680, 0.03744129091501236, -0.06322377920150757, -0.011907024309039116, 0.08097755908966064, -0.35125303268432617, -0.21234464645385742, 0.0006721844547428191, -0.0009290933376178145, 0.999717652797699, -0.45218613743782043, -0.4307716488838196, 0.03216544911265373, 0.0, 0.0, 0.0, 0, 0, 0, 0, 0, 0, -0.45304426550865173, -0.4318903684616089, 0.03229532390832901
11690, 0.03653417527675629, -0.06287094950675964, -0.011803187429904938, -0.09968513995409012, -0.05545130372047424, 0.30679282546043396, -0.001997509738430381, -0.001241939258761704, 0.9999315738677979, -0.45304426550865173, -0.4318903684616089, 0.03229532390832901, 0.0, 0.0, 0.0, 0, 0, 0, 0, 0, 0, -0.4539016783237457, -0.43301069736480713, 0.03242510184645653
11700, 0.03644637390971184, -0.06196032464504242, -0.011787804774940014, -0.13637512922286987, -0.07770247012376785, -0.03982018679380417, -0.0009559844038449228, -0.0024469271302223206, 0.9995545148849487, -0.4539016783237457, -0.43301069736480713, 0.03242510184645653, 0.0, 0.0, 0.0, 0, 0, 0, 0, 0, 0, -0.4547591805458069, -0.43413347005844116, 0.0325545072555542
11710, 0.036521945148706436, -0.06407607346773148, -0.011291212402284145, 0.06838282197713852, 0.07420051842927933, 0.3305584788322449, -0.002703732578083873, -0.0007944636163301766, 1.0014092922210693, -0.4547591805458069, -0.43413347005844116, 0.0325545072555542, 0.0, 0.0, 0.0, 0, 0, 0, 0, 0, 0, -0.45561710000038147, -0.4352588951587677, 0.032684262841939926
11720, 0.03618697077035904, -0.06620403379201889, -0.01185957808047533, -0.13927149772644043, 0.1147303357720375, -0.07115790992975235, -0.0009259352809749544, 0.000507876742631197, 1.001381278038025, -0.45561710000038147, -0.4352588951587677, 0.032684262841939926, 0.0, 0.0, 0.0, 0, 0, 0, 0, 0, 0, -0.45647579431533813, -0.4363858103752136, 0.032814983278512955
11730, 0.036692939698696136, -0.06567735970020294, -0.014050163328647614, 0.13332363963127136, 0.07058781385421753, -0.14797095954418182, -0.0005465476424433291, 0.0008077495731413364, 1.0000603199005127, -0.45647579431533813, -0.4363858103752136, 0.032814983278512955, 0.0, 0.0, 0.0, 0, 0, 0, 0, 0, 0, -0.4573344886302948, -0.4375128746032715, 0.032946448773145676
11740, 0.035886622965335846, -0.06715129315853119, -0.01381272729486227, -0.09353780746459961, 0.1717134714126587, -0.03675762191414833, -0.00015180528862401843, -0.0012609116965904832, 0.9997310638427734, -0.4573344886302948, -0.4375128746032715, 0.032946448773145676, 0.0, 0.0, 0.0, 0, 0, 0, 0, 0, 0, -0.458192378282547, -0.4386399984359741, 0.03307807072997093
11750, 0.03468506783246994, -0.06754043698310852, -0.01538538746535778, -0.1499873399734497, 0.32940274477005005, -0.20269103348255157, -0.0001087957207346335, -0.001143133151344955, 0.9990258812904358, -0.458192378282547, -0.4386399984359741, 0.03307807072997093, 0.0, 0.0, 0.0, 0, 0, 0, 0, 0, 0, -0.4590494632720947, -0.43976837396621704, 0.03320930525660515
11760, 0.03554737940430641, -0.06661130487918854, -0.014327156357467175, 0.029734855517745018, -0.2510567903518677, -0.0011653403053060174, -0.0004371097020339221, -0.001978400396183133, 1.0009889602661133, -0.4590494632720947, -0.43976837396621704, 0.03320930525660515, 0.0, 0.0, 0.0, 0, 0, 0, 0, 0, 0, -0.4599910378456116, -0.44101205468177795, 0.03335315361618996
11770, 0.03646509349346161, -0.06618622690439224, -0.013991291634738445, 0.11707299947738647, -0.11056878417730331, -0.16479119658470154, -0.002854954916983843, -0.0008659116574563086, 1.0006099939346313, -0.4599910378456116, -0.44101205468177795, 0.03335315361618996, 0.0, 0.0, 0.0, 0, 0, 0, 0, 0, 0, -0.4599910378456116, -0.44101205468177795, 0.03335315361618996
11780, 0.0359608456492424, -0.06939883530139923, -0.01492735929787159, -0.05600395053625107, 0.5287355184555054, -0.2110614776611328, -0.0032464393880218267, -0.002091757720336318, 0.9991775155067444, -0.460846871137619, -0.44214490056037903, 0.03348422423005104, 0.0, 0.0, 0.0, 0, 0, 0, 0, 0, 0, -0.460846871137619, -0.44214490056037903, 0.03348422423005104
11790, 0.036379218101501465, -0.06915745884180069, -0.014950242824852467, 0.05416807532310486, -0.09902327507734299, -0.00938092265278101, -0.0025800671428442, -0.0013080930802971125, 0.9983851909637451, -0.46170440316200256, -0.4432799816131592, 0.03361550346016884, 0.0, 0.0, 0.0, 0, 0, 0, 0, 0, 0, -0.46170440316200256, -0.4432799816131592, 0.03361550346016884
11800, 0.0363004207611084, -0.06840960681438446, -0.015197541564702988, -0.05048895254731178, -0.25469639897346497, -0.04280189052224159, -0.002181202871724963, -0.0014557346003130078, 0.999604344367981, -0.4625639021396637, -0.44441741704940796, 0.03374581038951874, 0.0, 0.0, 0.0, 0, 0, 0, 0, 0, 0, -0.4625639021396637, -0.44441741704940796, 0.03374581038951874
11810, 0.03610275313258171, -0.07056090980768204, -0.014647713862359524, 0.05021990090608597, 0.11982271820306778, -0.13871651887893677, -0.0011162440059706569, -0.001240747282281518, 1.0019654035568237, -0.4634247422218323, -0.4455571174621582, 0.033875178545713425, 0.0, 0.0, 0.0, 0, 0, 0, 0, 0, 0, -0.4634247422218323, -0.4455571174621582, 0.033875178545713425
11820, 0.03593779727816582, -0.06969086080789566, -0.014782221056520939, -0.07345554977655411, -0.1371760070323944, -0.14000023901462555, -0.0022824197076261044, 0.0018591874977573752, 1.001797080039978, -0.4642861485481262, -0.4466988444328308, 0.03400518000125885, 0.0, 0.0, 0.0, 0, 0, 0, 0, 0, 0, -0.4642861485481262, -0.4466988444328308, 0.03400518000125885
11830, 0.036271072924137115, -0.06936153769493103, -0.014244317077100277, 0.03663860633969307, 0.10120481997728348, 0.09740181267261505, -0.0009653764427639544, 0.0017334730364382267, 0.999877393245697, -0.465148001909256, -0.44784095883369446, 0.034136757254600525, 0.0, 0.0, 0.0, 0, 0, 0, 0, 0, 0, -0.465148001909256, -0.44784095883369446, 0.034136757254600525
11840, 0.03617336228489876, -0.07009414583444595, -0.013970511965453625, 0.012589439749717712, 0.13919833302497864, 0.08422725647687912, -0.0014399188803508878, -0.0005358270136639476, 0.9992560744285583, -0.46601009368896484, -0.4489820599555969, 0.03426933288574219, 0.0, 0.0, 0.0, 0, 0, 0, 0, 0, 0, -0.46601009368896484, -0.4489820599555969, 0.03426933288574219
11850, 0.03660234436392784, -0.07017665356397629, -0.015183011069893837, 0.06426790356636047, -0.11381325125694275, -0.21054117381572723, -0.0023413309827446938, -0.0019811331294476986, 1.0014879703521729, -0.4668722152709961, -0.45012298226356506, 0.03440185263752937, 0.0, 0.0, 0.0, 0, 0, 0, 0, 0, 0, -0.4668722152709961, -0.45012298226356506, 0.03440185263752937
11860, 0.036010608077049255, -0.06968090683221817, -0.014553788118064404, 0.054712820798158646, -0.15179525315761566, -0.011119969189167023, -0.0001969844743143767, -0.0013966677943244576, 0.999201238155365, -0.46773505210876465, -0.4512653350830078, 0.03453469276428223, 0.0, 0.0, 0.0, 0, 0, 0, 0, 0, 0, -0.46773505210876465, -0.4512653350830078, 0.03453469276428223
11870, 0.034993287175893784, -0.07167378067970276, -0.014055057428777218, -0.06417755037546158, 0.35791879892349243, 0.0022843126207590103, -0.0018878155387938023, -0.0021636842284351587, 1.0003095865249634, -0.4685981571674347, -0.4524097442626953, 0.03466782346367836, 0.0, 0.0, 0.0, 0, 0, 0, 0, 0, 0, -0.4685981571674347, -0.4524097442626953, 0.03466782346367836
11880, 0.0352475605905056, -0.07060535252094269, -0.015730321407318115, 0.12188258767127991, -0.1986941546201706, -0.16560032963752747, -0.0033804592676460743, -0.0022258630488067865, 0.9992207884788513, -0.469461053609848, -0.45355644822120667, 0.03480076417326927, 0.0, 0.0, 0.0, 0, 0, 0, 0, 0, 0, -0.469461053609848, -0.45355644822120667, 0.03480076417326927
11890, 0.034511491656303406, -0.07180862128734589, -0.016548337414860725, -0.12530499696731567, 0.10540066659450531, -0.18756286799907684, -0.001818432123400271, -5.8685232943389565e-05, 1.0004394054412842, -0.4703250229358673, -0.4547058343887329, 0.034933559596538544, 0.0, 0.0, 0.0, 0, 0, 0, 0, 0, 0, -0.4703250229358673, -0.4547058343887329, 0.034933559596538544
11900, 0.03462005406618118, -0.07315365970134735, -0.015184782445430756, 0.09837662428617477, 0.1576392650604248, 0.12240348011255264, -0.002190985716879368, 0.001590958097949624, 1.001778483390808, -0.471190482378006, -0.4558572471141815, 0.035066258162260056, 0.0, 0.0, 0.0, 0, 0, 0, 0, 0, 0, -0.471190482378006, -0.4558572471141815, 0.035066258162260056
11910, 0.034093089401721954, -0.07300040870904922, -0.014819991774857044, -0.053291767835617065, 0.05084245651960373, -0.053255945444107056, -0.0005337208276614547, -0.0008970923372544348, 1.0010606050491333, -0.4720568358898163, -0.45700880885124207, 0.035199787467718124, 0.0, 0.0, 0.0, 0, 0, 0, 0, 0, 0, -0.4720568358898163, -0.45700880885124207, 0.035199787467718124
11920, 0.035127367824316025, -0.07356415688991547, -0.012207225896418095, 0.12383726984262466, 0.03190211206674576, 0.3924544155597687, -0.0007227546884678304, -0.0009749226737767458, 0.9997544884681702, -0.4729233384132385, -0.45816025137901306, 0.03533461317420006, 0.0, 0.0, 0.0, 0, 0, 0, 0, 0, 0, -0.4729233384132385, -0.45816025137901306, 0.03533461317420006
11930, 0.03649534285068512, -0.07519593089818954, -0.011004670523107052, 0.13505609333515167, 0.21036432683467865, 0.17961470782756805, -0.0026630377396941185, -0.0014904008712619543, 0.9976990818977356, -0.4737892746925354, -0.45931288599967957, 0.035470180213451385, 0.0, 0.0, 0.0, 0, 0, 0, 0, 0, 0, -0.4737892746925354, -0.45931288599967957, 0.035470180213451385
11940, 0.037167273461818695, -0.07473253458738327, -0.012072875164449215, 0.030290815979242325, -0.1653026044368744, -0.11205357313156128, -0.0006658225320279598, -0.0027730907313525677, 0.9988187551498413, -0.4746553301811218, -0.460467129945755, 0.03560493141412735, 0.0, 0.0, 0.0, 0, 0, 0, 0, 0, 0, -0.4746553301811218, -0.460467129945755, 0.03560493141412735
11950, 0.03689676895737648, -0.07558076828718185, -0.011999054811894894, -0.04732108116149902, -0.03818301111459732, 0.022074859589338303, -0.00019243094720877707, -0.0027344562113285065, 0.9981354475021362, -0.47552168369293213, -0.4616239070892334, 0.03573811799287796, 0.0, 0.0, 0.0, 0, 0, 0, 0, 0, 0, -0.47552168369293213, -0.4616239070892334, 0.03573811799287796
11960, 0.03791132941842079, -0.07688083499670029, -0.010396232828497887, 0.06433168798685074, 0.19219914078712463, 0.17496970295906067, -0.00040307652670890093, -0.0011229346273466945, 1.0004457235336304, -0.47638723254203796, -0.4627840518951416, 0.03586992248892784, 0.0, 0.0, 0.0, 0, 0, 0, 0, 0, 0, -0.47638723254203796, -0.4627840518951416, 0.03586992248892784
11970, 0.03831813856959343, -0.07670966535806656, -0.009929679334163666, -0.055438291281461716, 0.07300429791212082, -0.04865161329507828, 0.0005558913690038025, -0.002562661888077855, 0.9998486042022705, -0.47725164890289307, -0.4639469087123871, 0.03600087761878967, 0.0, 0.0, 0.0, 0, 0, 0, 0, 0, 0, -0.47725164890289307, -0.4639469087123871, 0.03600087761878967
11980, 0.03817039355635643, -0.07616528123617172, -0.010294889099895954, -0.010133424773812294, -0.05301891639828682, -0.04548749700188637, -0.0001945689000422135, -0.0020925295539200306, 1.000450849533081, -0.4781147837638855, -0.46511226892471313, 0.036131832748651505, 0.0, 0.0, 0.0, 0, 0, 0, 0, 0, 0, -0.4781147837638855, -0.46511226892471313, 0.036131832748651505
11990, 0.038115814328193665, -0.07462736964225769, -0.011184721253812313, -0.0007852161070331931, -0.1891101896762848, -0.06711705029010773, -0.002511658938601613, -0.00023466792481485754, 1.0019598007202148, -0.4789764881134033, -0.46628060936927795, 0.03626318648457527, 0.0, 0.0, 0.0, 0, 0, 0, 0, 0, 0, -0.4789764881134033, -0.46628060936927795, 0.03626318648457527
12000, 0.037192195653915405, -0.0755058005452156, -0.010501035489141941, -0.27040615677833557, 0.14428147673606873, 0.16659031808376312, -0.0016473510768264532, 0.0011941205011680722, 1.0004045963287354, -0.47983798384666443, -0.46745121479034424, 0.03639569878578186, 0.0, 0.0, 0.0, 0, 0, 0, 0, 0, 0, -0.47983798384666443, -0.46745121479034424, 0.03639569878578186
12010, 0.038888461887836456, -0.07310175895690918, -0.010663462802767754, 0.17545892298221588, -0.3266037106513977, -0.04670233279466629, 0.0003792960196733475, -0.0015524314949288964, 1.000527024269104, -0.4807002544403076, -0.4686223268508911, 0.036529283970594406, 0.0, 0.0, 0.0, 0, 0, 0, 0, 0, 0, -0.4807002544403076, -0.4686223268508911, 0.036529283970594406
12020, 0.038997191935777664, -0.07566840201616287, -0.010527001693844795, 0.06812217086553574, 0.43452391028404236, 0.22390778362751007, -0.0012431119102984667, -0.003303652396425605, 1.001747965812683, -0.48156222701072693, -0.4697941541671753, 0.036663319915533066, 0.0, 0.0, 0.0, 0, 0, 0, 0, 0, 0, -0.48156222701072693, -0.4697941541671753, 0.036663319915533066
12030, 0.03950592130422592, -0.07262440025806427, -0.011291696690022945, 0.13846008479595184, -0.40341073274612427, -0.04585081338882446, -0.0030825447756797075, -0.0023591003846377134, 1.0011013746261597, -0.48242342472076416, -0.4709686040878296, 0.03679828345775604, 0.0, 0.0, 0.0, 0, 0, 0, 0, 0, 0, -0.48242342472076416, -0.4709686040878296, 0.03679828345775604
12040, 0.03995596244931221, -0.07451101392507553, -0.011070450767874718, 0.08210067451000214, 0.16116338968276978, 0.10913598537445068, 0.00034149407292716205, -0.0021300464868545532, 1.000260591506958, -0.48328518867492676, -0.47214627265930176, 0.03693464770913124, 0.0, 0.0, 0.0, 0, 0, 0, 0, 0, 0, -0.48328518867492676, -0.47214627265930176, 0.03693464770913124
12050, 0.04088516905903816, -0.07520243525505066, -0.011577022261917591, 0.1750989556312561, -0.021943004801869392, -0.12352915853261948, 0.0011551878415048122, -0.0004821772745344788, 1.0004342794418335, -0.4841471314430237, -0.47332683205604553, 0.03707181289792061, 0.0, 0.0, 0.0, 0, 0, 0, 0, 0, 0, -0.4841471314430237, -0.47332683205604553, 0.03707181289792061
12060, 0.04130449518561363, -0.07649143040180206, -0.012035832740366459, 0.17073476314544678, 0.10923425108194351, -0.10698455572128296, -0.0018315559718757868, -0.0009907042840495706, 1.0010247230529785, -0.48500752449035645, -0.4745095670223236, 0.03720917925238609, 0.0, 0.0, 0.0, 0, 0, 0, 0, 0, 0, -0.48500752449035645, -0.4745095670223236, 0.03720917925238609
12070, 0.04162800684571266, -0.07501865923404694, -0.012160335667431355, 0.16665275394916534, -0.36545273661613464, -0.12596876919269562, -0.004191956017166376, -0.0009513329132460058, 0.999977707862854, -0.485866904258728, -0.47569379210472107, 0.037346940487623215, 0.0, 0.0, 0.0, 0, 0, 0, 0, 0, 0, -0.485866904258728, -0.47569379210472107, 0.037346940487623215
12080, 0.04062874987721443, -0.07569560408592224, -0.012626036070287228, 0.017810147255659103, -0.01693502441048622, -0.14933833479881287, -0.0016651144251227379, -0.0006047062342986465, 1.001030683517456, -0.4867275655269623, -0.476879745721817, 0.03748507425189018, 0.0, 0.0, 0.0, 0, 0, 0, 0, 0, 0, -0.4867275655269623, -0.476879745721817, 0.03748507425189018
12090, 0.03909876197576523, -0.07471495866775513, -0.013723491691052914, -0.1682620644569397, 0.02037953957915306, -0.17110437154769897, -0.0005358001799322665, -0.0009215243626385927, 1.0028491020202637, -0.4875900149345398, -0.4780672490596771, 0.037623532116413116, 0.0, 0.0, 0.0, 0, 0, 0, 0, 0, 0, -0.4875900149345398, -0.4780672490596771, 0.037623532116413116
12100, 0.04007263109087944, -0.0726563036441803, -0.012943233363330364, 0.15045855939388275, -0.23425571620464325, 0.11918950080871582, -0.000791562779340893, -4.866861490882002e-05, 1.0008164644241333, -0.48845264315605164, -0.4792560935020447, 0.037763480097055435, 0.0, 0.0, 0.0, 0, 0, 0, 0, 0, 0, -0.48845264315605164, -0.4792560935020447, 0.037763480097055435
12110, 0.04012610763311386, -0.0722377672791481, -0.014906380325555801, 0.027292411774396896, 0.0270206481218338, -0.015745041891932487, -0.00041197071550413966, -0.0020114644430577755, 1.0005689859390259, -0.4893146753311157, -0.4804461598396301, 0.03790527582168579, 0.0, 0.0, 0.0, 0, 0, 0, 0, 0, 0, -0.4893146753311157, -0.4804461598396301, 0.03790527582168579
12120, 0.039703525602817535, -0.0723247155547142, -0.015492589212954044, -0.1451297253370285, 0.08734800666570663, -0.01548910140991211, -0.001206753309816122, -0.001840280252508819, 1.0007776021957397, -0.49017611145973206, -0.48163777589797974, 0.03804797679185867, 0.0, 0.0, 0.0, 0, 0, 0, 0, 0, 0, -0.49017611145973206, -0.48163777589797974, 0.03804797679185867
12130, 0.040294356644153595, -0.07332006096839905, -0.014937151223421097, 0.1497735232114792, 0.15814648568630219, 0.03004937432706356, -0.003093449864536524, -0.001596029382199049, 1.0008429288864136, -0.4910370707511902, -0.4828318953514099, 0.03819115459918976, 0.0, 0.0, 0.0, 0, 0, 0, 0, 0, 0, -0.4910370707511902, -0.4828318953514099, 0.03819115459918976
12140, 0.04028557986021042, -0.07235724478960037, -0.014247171580791473, -0.04049457237124443, -0.14275604486465454, 0.11512329429388046, -0.0010836644796654582, 0.0006046200869604945, 1.0027706623077393, -0.4918987452983856, -0.4840284585952759, 0.03833494707942009, 0.0, 0.0, 0.0, 0, 0, 0, 0, 0, 0, -0.4918987452983856, -0.4840284585952759, 0.03833494707942009
12150, 0.03982444480061531, -0.07364159822463989, -0.013339219614863396, -0.034147072583436966, 0.16511306166648865, 0.11966613680124283, -0.0007083407253958285, -0.00021842603746335953, 0.9988977313041687, -0.49276140332221985, -0.4852263331413269, 0.03848036378622055, 0.0, 0.0, 0.0, 0, 0, 0, 0, 0, 0, -0.49276140332221985, -0.4852263331413269, 0.03848036378622055
12160, 0.03963474929332733, -0.07197219878435135, -0.013172721490263939, -0.129192054271698, -0.17284554243087769, -0.06653518974781036, -0.0017075499054044485, -0.0017457588110119104, 0.9979040622711182, -0.4936240315437317, -0.4864247739315033, 0.03862674906849861, 0.0, 0.0, 0.0, 0, 0, 0, 0, 0, 0, -0.4936240315437317, -0.4864247739315033, 0.03862674906849861
12170, 0.039498813450336456, -0.0711665228009224, -0.012379969470202923, 0.1011928915977478, -0.2396354228258133, 0.05176734924316406, -0.0009657206246629357, -0.0030130937229841948, 0.9999307990074158, -0.49448642134666443, -0.4876246452331543, 0.03877181559801102, 0.0, 0.0, 0.0, 0, 0, 0, 0, 0, 0, -0.49448642134666443, -0.4876246452331543, 0.03877181559801102
12180, 0.040375325828790665, -0.07037568837404251, -0.010987821966409683, 0.09352563321590424, -0.14667195081710815, 0.15924447774887085, 0.00028423764160834253, -0.003870794316753745, 1.0023791790008545, -0.49534881114959717, -0.48882731795310974, 0.038915492594242096, 0.0, 0.0, 0.0, 0, 0, 0, 0, 0, 0, -0.49534881114959717, -0.48882731795310974, 0.038915492594242096
12190, 0.03877627104520798, -0.07095468789339066, -0.011241316795349121, -0.294586181640625, 0.10808893293142319, -0.057248637080192566, -0.0018669256241992116, 0.00024718785425648093, 1.002009630203247, -0.49621066451072693, -0.49003395438194275, 0.03906005248427391, 0.0, 0.0, 0.0, 0, 0, 0, 0, 0, 0, -0.49621066451072693, -0.49003395438194275, 0.03906005248427391
12200, 0.03837904334068298, -0.07231723517179489, -0.01018865779042244, -0.07071994990110397, 0.1782941222190857, 0.18451236188411713, -0.0010876399464905262, 0.0016622262774035335, 0.9994497299194336, -0.4970722198486328, -0.4912434220314026, 0.039206795394420624, 0.0, 0.0, 0.0, 0, 0, 0, 0, 0, 0, -0.4970722198486328, -0.4912434220314026, 0.039206795394420624
12210, 0.038325030356645584, -0.07221323251724243, -0.009800580330193043, -0.032490432262420654, -0.005625603720545769, 0.09678865224123001, -0.0012607190292328596, -0.00033504192833788693, 1.000519871711731, -0.4979343116283417, -0.4924529194831848, 0.03935437276959419, 0.0, 0.0, 0.0, 0, 0, 0, 0, 0, 0, -0.4979343116283417, -0.4924529194831848, 0.03935437276959419
12220, 0.037353839725255966, -0.07431162148714066, -0.009906701743602753, -0.19781392812728882, 0.43995872139930725, -0.008910187520086765, -0.0010109554277732968, -0.002940816804766655, 0.9993470907211304, -0.4987965524196625, -0.49366214871406555, 0.03950190544128418, 0.0, 0.0, 0.0, 0, 0, 0, 0, 0, 0, -0.4987965524196625, -0.49366214871406555, 0.03950190544128418
12230, 0.037279147654771805, -0.07773636281490326, -0.008397056721150875, -0.057454053312540054, 0.39726072549819946, 0.159998819231987, -0.0021151243709027767, 7.065144018270075e-05, 0.9984336495399475, -0.49965858459472656, -0.49487319588661194, 0.03964930400252342, 0.0, 0.0, 0.0, 0, 0, 0, 0, 0, 0, -0.49965858459472656, -0.49487319588661194, 0.03964930400252342
12240, 0.03741860389709473, -0.07789198309183121, -0.009302139282226562, 0.021533343940973282, -0.11537127196788788, -0.03932557255029678, -0.0018102370668202639, 0.0016554018948227167, 1.00051748752594, -0.5005207061767578, -0.49608638882637024, 0.0397958979010582, 0.0, 0.0, 0.0, 0, 0, 0, 0, 0, 0, -0.5005207061767578, -0.49608638882637024, 0.0397958979010582
12250, 0.03799370303750038, -0.07804207503795624, -0.01082327775657177, 0.015998153015971184, 0.18978722393512726, -0.11942913383245468, -0.0033353720791637897, 0.0010821041651070118, 1.0013266801834106, -0.501383364200592, -0.4972997307777405, 0.03994198888540268, 0.0, 0.0, 0.0, 0, 0, 0, 0, 0, 0, -0.501383364200592, -0.4972997307777405, 0.03994198888540268
12260, 0.03850541263818741, -0.07815201580524445, -0.012451550923287868, 0.15280881524085999, -0.03546786308288574, -0.1571653038263321, -0.0010731517104431987, -0.00019316133693791926, 1.0028873682022095, -0.502247154712677, -0.49851223826408386, 0.04008881375193596, 0.0, 0.0, 0.0, 0, 0, 0, 0, 0, 0, -0.502247154712677, -0.49851223826408386, 0.04008881375193596
12270, 0.03883438929915428, -0.07600012421607971, -0.011755554005503654, 0.0348350889980793, -0.26177075505256653, 0.16663654148578644, -0.0005624619079753757, -0.0008297787862829864, 1.0004318952560425, -0.5031118392944336, -0.49972471594810486, 0.04023747146129608, 0.0, 0.0, 0.0, 0, 0, 0, 0, 0, 0, -0.5031118392944336, -0.49972471594810486, 0.04023747146129608
12280, 0.04041462391614914, -0.07560472935438156, -0.010898969136178493, 0.2738323211669922, -0.046815890818834305, 0.25794321298599243, -0.0009183174115605652, -0.0018049328355118632, 0.9981292486190796, -0.5039762258529663, -0.5009382963180542, 0.04038752615451813, 0.0, 0.0, 0.0, 0, 0, 0, 0, 0, 0, -0.5039762258529663, -0.5009382963180542, 0.04038752615451813
12290, 0.040817759931087494, -0.07602622359991074, -0.009704506024718285, 0.06413259357213974, 0.06631311774253845, 0.2054131180047989, -0.002131342189386487, 3.782072599278763e-05, 1.0011452436447144, -0.504840075969696, -0.5021536946296692, 0.040537167340517044, 0.0, 0.0, 0.0, 0, 0, 0, 0, 0, 0, -0.504840075969696, -0.5021536946296692, 0.040537167340517044
12300, 0.04141812026500702, -0.07640964537858963, -0.01021699607372284, -0.024883510544896126, 0.07123168557882309, -0.12482507526874542, -0.002770138904452324, -0.00299256294965744, 1.0029603242874146, -0.5057041645050049, -0.5033706426620483, 0.04068624600768089, 0.0, 0.0, 0.0, 0, 0, 0, 0, 0, 0, -0.5057041645050049, -0.5033706426620483, 0.04068624600768089
12310, 0.0406087189912796, -0.07596944272518158, -0.010550585575401783, -0.1844753921031952, -0.02497001178562641, -0.018749820068478584, -0.004450416658073664, -0.0020817737095057964, 1.0012733936309814, -0.5065691471099854, -0.5045896172523499, 0.04083692654967308, 0.0, 0.0, 0.0, 0, 0, 0, 0, 0, 0, -0.5065691471099854, -0.5045896172523499, 0.04083692654967308
12320, 0.04030245169997215, -0.07564399391412735, -0.011072928085923195, 0.03715150058269501, -0.20916159451007843, 0.07415727525949478, -0.003579216543585062, -0.0023714033886790276, 1.0000792741775513, -0.5074359774589539, -0.5058116316795349, 0.0409899540245533, 0.0, 0.0, 0.0, 0, 0, 0, 0, 0, 0, -0.5074359774589539, -0.5058116316795349, 0.0409899540245533
12330, 0.03967413306236267, -0.07702907919883728, -0.009812991134822369, -5.348902413970791e-05, 0.11131121963262558, 0.05495455488562584, -0.0037022526375949383, -0.0006144054350443184, 0.9997550845146179, -0.5083053112030029, -0.5070366859436035, 0.04114391282200813, 0.0, 0.0, 0.0, 0, 0, 0, 0, 0, 0, -0.5083053112030029, -0.5070366859436035, 0.04114391282200813
12340, 0.039302319288253784, -0.07607056945562363, -0.011578119359910488, -0.08546719700098038, -0.169666588306427, -0.21314172446727753, -0.00021962029859423637, -0.0016917511820793152, 1.0015698671340942, -0.5091769099235535, -0.5082641839981079, 0.041297797113657, 0.0, 0.0, 0.0, 0, 0, 0, 0, 0, 0, -0.5091769099235535, -0.5094935297966003, 0.04145219549536705
12350, 0.04109187424182892, -0.07583294808864594, -0.010442032478749752, 0.12032976001501083, -0.09480728954076767, -0.0028440766036510468, 0.000197337256395258, -0.002401789417490363, 1.002180576324463, -0.5100495219230652, -0.5094935297966003, 0.04145219549536705, 0.0, 0.0, 0.0, 0, 0, 0, 0, 0, 0, -0.5100495219230652, -0.5094935297966003, 0.04145219549536705
12360, 0.0412936732172966, -0.07642485201358795, -0.011088774539530277, -0.09435739368200302, 0.04318247362971306, -0.1091734915971756, -0.001902349991723895, -0.002868514508008957, 1.0000888109207153, -0.510921061038971, -0.5107252597808838, 0.04160809516906738, 0.0, 0.0, 0.0, 0, 0, 0, 0, 0, 0, -0.510921061038971, -0.5107252597808838, 0.04160809516906738
12370, 0.04191133752465248, -0.07400650531053543, -0.01174433995038271, -0.07053306698799133, -0.30355408787727356, -0.05638235807418823, -0.0017132890643551946, -0.002268831245601177, 0.9996339082717896, -0.5117918252944946, -0.5119600892066956, 0.04176513850688934, 0.0, 0.0, 0.0, 0, 0, 0, 0, 0, 0, -0.5117918252944946, -0.5119600892066956, 0.04176513850688934
12380, 0.04175952449440956, -0.07531530410051346, -0.011438075453042984, -0.06756426393985748, 0.2480706125497818, -0.13479530811309814, -0.001518936944194138, -0.0017804090166464448, 0.9989694356918335, -0.5126631855964661, -0.5131980180740356, 0.04192216694355011, 0.0, 0.0, 0.0, 0, 0, 0, 0, 0, 0, -0.5135348439216614, -0.5144387483596802, 0.04207868129014969
12390, 0.04122651740908623, -0.07594484835863113, -0.010402390733361244, -0.06122823432087898, 0.10297328233718872, 0.07698213309049606, -0.001839252421632409, -0.0025706554297357798, 1.0004041194915771, -0.5135348439216614, -0.5144387483596802, 0.04207868129014969, 0.0, 0.0, 0.0, 0, 0, 0, 0, 0, 0, -0.5135348439216614, -0.5144387483596802, 0.04207868129014969
12400, 0.04120798781514168, -0.077630415558815, -0.010859773494303226, 0.08608204871416092, 0.19371946156024933, -0.07054094970226288, -0.0016756457043811679, -0.00099939142819494, 1.0018651485443115, -0.5144068002700806, -0.515682578086853, 0.04223503917455673, 0.0, 0.0, 0.0, 0, 0, 0, 0, 0, 0, -0.5144068002700806, -0.515682578086853, 0.04223503917455673
12410, 0.040588803589344025, -0.07648803293704987, -0.01175611186772585, -0.07441866397857666, -0.04800419881939888, 0.0018617884488776326, -0.0016970071010291576, -0.0016035313019528985, 0.9997992515563965, -0.5152791142463684, -0.5169290900230408, 0.04239221662282944, 0.0, 0.0, 0.0, 0, 0, 0, 0, 0, 0, -0.5152791142463684, -0.5169290900230408, 0.04239221662282944
12420, 0.04017200693488121, -0.07648343592882156, -0.011365759186446667, -0.02839168906211853, 0.09104473888874054, 0.020354021340608597, -0.0017841660883277655, -0.0013413005508482456, 1.0021238327026367, -0.5161516070365906, -0.5181778073310852, 0.04255038499832153, 0.0, 0.0, 0.0, 0, 0, 0, 0, 0, 0, -0.5170243978500366, -0.5194286704063416, 0.04270950332283974
12430, 0.04050550237298012, -0.07584287226200104, -0.010025931522250175, 0.0546170212328434, -0.09353424608707428, 0.20035499334335327, 9.033436072058976e-05, -0.001226480002515018, 1.0014995336532593, -0.5170243978500366, -0.5194286704063416, 0.04270950332283974, 0.0, 0.0, 0.0, 0, 0, 0, 0, 0, 0, -0.5178969502449036, -0.5206813812255859, 0.04287018999457359
12440, 0.039852313697338104, -0.07657860964536667, -0.009900964796543121, 0.07010814547538757, 0.10430671274662018, -0.0017027824651449919, 0.0005372618325054646, -0.0017746437806636095, 1.0005592107772827, -0.5178969502449036, -0.5206813812255859, 0.04287018999457359, 0.0, 0.0, 0.0, 0, 0, 0, 0, 0, 0, -0.5187681913375854, -0.5219359397888184, 0.04303203895688057
12450, 0.039277441799640656, -0.07931256294250488, -0.011679165996611118, -0.1295970231294632, 0.4485441744327545, -0.1971656233072281, -0.0012712222523987293, -0.00016402802430093288, 0.9994251132011414, -0.5187681913375854, -0.5219359397888184, 0.04303203895688057, 0.0, 0.0, 0.0, 0, 0, 0, 0, 0, 0, -0.5196382999420166, -0.5231921672821045, 0.0431939959526062
12460, 0.03816503658890724, -0.08089350908994675, -0.01065561268478632, -0.24476613104343414, 0.19829803705215454, 0.11350575089454651, -0.0009138975292444229, -0.002955941716209054, 0.9997780323028564, -0.5196382999420166, -0.5231921672821045, 0.0431939959526062, 0.0, 0.0, 0.0, 0, 0, 0, 0, 0, 0, -0.5205079913139343, -0.5244505405426025, 0.04335571452975273
12470, 0.038171567022800446, -0.08095892518758774, -0.01170959323644638, -0.008464672602713108, 0.12167108803987503, -0.2860267758369446, -0.0013202863046899438, -0.0024124004412442446, 1.0024076700210571, -0.5205079913139343, -0.5244505405426025, 0.04335571452975273, 0.0, 0.0, 0.0, 0, 0, 0, 0, 0, 0, -0.5213773250579834, -0.5257118940353394, 0.04351817071437836
12480, 0.03901011496782303, -0.08072217553853989, -0.011480748653411865, 0.12921695411205292, -0.030519552528858185, 0.13386783003807068, -0.002966577187180519, -0.002563397167250514, 1.0012620687484741, -0.5213773250579834, -0.5257118940353394, 0.04351817071437836, 0.0, 0.0, 0.0, 0, 0, 0, 0, 0, 0, -0.5222471356391907, -0.5269763469696045, 0.04368215054273605
12490, 0.039249710738658905, -0.08089626580476761, -0.011178744025528431, 0.05494092404842377, -0.05020752176642418, 0.08797884732484818, -0.0023717747535556555, -0.0014698246959596872, 0.9983762502670288, -0.5222471356391907, -0.5269763469696045, 0.04368215054273605, 0.0, 0.0, 0.0, 0, 0, 0, 0, 0, 0, -0.5231180191040039, -0.5282435417175293, 0.04384637996554375
12500, 0.040425799787044525, -0.0798492431640625, -0.010045621544122696, 0.2952694892883301, -0.11547758430242538, 0.092286616563797, -0.00044171023182570934, -0.001925964024849236, 0.9998660683631897, -0.5231180191040039, -0.5282435417175293, 0.04384637996554375, 0.0, 0.0, 0.0, 0, 0, 0, 0, 0, 0, -0.5239893794059753, -0.5295129418373108, 0.04400976002216339
12510, 0.04087917506694794, -0.08075561374425888, -0.009515488520264626, 0.0405428521335125, 0.2077542543411255, 0.12181442975997925, -0.000773139763623476, -0.0006024183239787817, 1.0003653764724731, -0.5239893794059753, -0.5295129418373108, 0.04400976002216339, 0.0, 0.0, 0.0, 0, 0, 0, 0, 0, 0, -0.5248600840568542, -0.5307844877243042, 0.044172998517751694
12520, 0.04103892296552658, -0.08219478279352188, -0.008684016764163971, 0.043863918632268906, 0.21828065812587738, 0.1419840306043625, -0.002169684274122119, 0.0020227886270731688, 1.00001060962677, -0.5248600840568542, -0.5307844877243042, 0.044172998517751694, 0.0, 0.0, 0.0, 0, 0, 0, 0, 0, 0, -0.5248600840568542, -0.5307844877243042, 0.044172998517751694
12530, 0.04072156921029091, -0.0826731026172638, -0.00880303606390953, -0.07637682557106018, 0.21686166524887085, -0.0648832693696022, 0.0007562316604889929, -0.0017561488784849644, 0.9977815747261047, -0.5258177518844604, -0.5321836471557617, 0.04435279220342636, 0.0, 0.0, 0.0, 0, 0, 0, 0, 0, 0, -0.5258177518844604, -0.5321836471557617, 0.04435279220342636
12540, 0.04072156921029091, -0.0826731026172638, -0.00880303606390953, 0.09514040499925613, 0.08597420156002045, 0.12061964720487595, -0.0015849468763917685, -0.0006300804088823497, 0.9985389709472656, -0.5266883373260498, -0.5334559679031372, 0.04451540485024452, 0.0, 0.0, 0.0, 0, 0, 0, 0, 0, 0, -0.5266883373260498, -0.5334559679031372, 0.04451540485024452
12550, 0.041419047862291336, -0.08313953131437302, -0.006785079371184111, 0.04318534955382347, 0.0731871947646141, 0.03249574080109596, -0.0031543909572064877, -0.0008540233829990029, 0.9995871782302856, -0.5276451706886292, -0.5348573327064514, 0.04469240456819534, 0.0, 0.0, 0.0, 0, 0, 0, 0, 0, 0, -0.5276451706886292, -0.5348573327064514, 0.04469240456819534
12560, 0.04082475230097771, -0.08259903639554977, -0.006145476829260588, 0.016934802755713463, 0.09384296089410782, -0.1807897835969925, -0.0009167429525405169, -0.0014902848051860929, 1.000293493270874, -0.5286024808883667, -0.5362606048583984, 0.044868264347314835, 0.0, 0.0, 0.0, 0, 0, 0, 0, 0, 0, -0.5286024808883667, -0.5362606048583984, 0.044868264347314835
12570, 0.039878249168395996, -0.08371998369693756, -0.0075959512032568455, -0.07469519227743149, 0.3021922707557678, -0.09492079168558121, -0.002181117655709386, -0.0006846199394203722, 0.9996010661125183, -0.5294733047485352, -0.5375382900238037, 0.04502788186073303, 0.0, 0.0, 0.0, 0, 0, 0, 0, 0, 0, -0.5294733047485352, -0.5375382900238037, 0.04502788186073303
12580, 0.03974801301956177, -0.08502798527479172, -0.007543371524661779, 0.003029428655281663, 0.08802414685487747, 0.15019576251506805, -0.002336912788450718, 0.002261473797261715, 1.001713752746582, -0.5303446054458618, -0.5388175249099731, 0.045187465846538544, 0.0, 0.0, 0.0, 0, 0, 0, 0, 0, 0, -0.5303446054458618, -0.5388175249099731, 0.045187465846538544
12590, 0.038950514048337936, -0.08624932169914246, -0.00644620880484581, 0.01485154777765274, 0.034027546644210815, 0.025522084906697273, 0.0004539936489891261, 0.0007159367087297142, 0.9983766674995422, -0.5312167406082153, -0.5400967001914978, 0.045347753912210464, 0.0, 0.0, 0.0, 0, 0, 0, 0, 0, 0, -0.5312167406082153, -0.5400967001914978, 0.045347753912210464
12600, 0.03970152884721756, -0.08603648096323013, -0.006823635660111904, -0.02303108014166355, 0.022765973582863808, -0.012153183110058308, -0.002361728111281991, 0.0007763789617456496, 1.0026540756225586, -0.5320883989334106, -0.5413752198219299, 0.04550817236304283, 0.0, 0.0, 0.0, 0, 0, 0, 0, 0, 0, -0.5320883989334106, -0.5413752198219299, 0.04550817236304283
12610, 0.03989677503705025, -0.08701196312904358, -0.006389237940311432, 0.1237020343542099, 0.09905879199504852, -0.26006579399108887, -0.002417339012026787, 0.0004274638195056468, 1.0007201433181763, -0.5329596996307373, -0.5426535606384277, 0.045669157058000565, 0.0, 0.0, 0.0, 0, 0, 0, 0, 0, 0, -0.5329596996307373, -0.5426535606384277, 0.045669157058000565
12620, 0.040746189653873444, -0.08802508562803268, -0.007055713329464197, -0.04393076151609421, 0.25537970662117004, -0.25669923424720764, -0.0022990924771875143, 0.0001136423961725086, 1.000710129737854, -0.5338319540023804, -0.5439320206642151, 0.04583157226443291, 0.0, 0.0, 0.0, 0, 0, 0, 0, 0, 0, -0.5338319540023804, -0.5439320206642151, 0.04583157226443291
12630, 0.04039893299341202, -0.09082584828138351, -0.007842382416129112, 0.0736270472407341, 0.03545653820037842, -0.01668291911482811, -0.0005800864310003817, -0.00025530674611218274, 0.9992639422416687, -0.5347049832344055, -0.5452108383178711, 0.04599454998970032, 0.0, 0.0, 0.0, 0, 0, 0, 0, 0, 0, -0.5347049832344055, -0.5452108383178711, 0.04599454998970032
12640, 0.04026752710342407, -0.09119445085525513, -0.008717309683561325, 0.13164258003234863, -0.16024141013622284, -0.07116743177175522, 0.0003903578035533428, -0.0017739774193614721, 1.0004903078079224, -0.5355777144432068, -0.5464904308319092, 0.04615750163793564, 0.0, 0.0, 0.0, 0, 0, 0, 0, 0, 0, -0.5355777144432068, -0.5464904308319092, 0.04615750163793564
12650, 0.040989212691783905, -0.09014303982257843, -0.009312096051871777, -0.08770997822284698, -0.02755383960902691, 0.21684317290782928, -0.0007845344371162355, -0.0030161889735609293, 1.0009740591049194, -0.5364488363265991, -0.5477719306945801, 0.04632047191262245, 0.0, 0.0, 0.0, 0, 0, 0, 0, 0, 0, -0.5364488363265991, -0.5477719306945801, 0.04632047191262245
12660, 0.04082256928086281, -0.08898434042930603, -0.00902467593550682, -0.028551319614052773, 0.22876282036304474, 0.2282913625240326, -0.0007861022604629397, -0.0037887264043092728, 1.0004441738128662, -0.5373185276985168, -0.5490567088127136, 0.04648421332240105, 0.0, 0.0, 0.0, 0, 0, 0, 0, 0, 0, -0.5373185276985168, -0.5490567088127136, 0.04648421332240105
12670, 0.040205374360084534, -0.08972387760877609, -0.007856366224586964, -0.03351627662777901, -0.23754657804965973, -0.1696956902742386, -0.0008762003853917122, -0.002190066734328866, 0.999835729598999, -0.5381875038146973, -0.5503456592559814, 0.04664866253733635, 0.0, 0.0, 0.0, 0, 0, 0, 0, 0, 0, -0.5381875038146973, -0.5503456592559814, 0.04664866253733635
12680, 0.03945295885205269, -0.08876263350248337, -0.009173625148832798, -0.07743507623672485, 0.17080596089363098, 0.049255743622779846, -0.001021544449031353, -0.0016385788330808282, 0.9999111890792847, -0.5390558838844299, -0.5516382455825806, 0.04681331664323807, 0.0, 0.0, 0.0, 0, 0, 0, 0, 0, 0, -0.5390558838844299, -0.5516382455825806, 0.04681331664323807
12690, 0.03871961310505867, -0.08992807567119598, -0.009193887934088707, -0.19169968366622925, -0.16369184851646423, -0.07586804777383804, -0.0011504057329148054, -0.002306224312633276, 1.0013946294784546, -0.5399238467216492, -0.5529334545135498, 0.046978145837783813, 0.0, 0.0, 0.0, 0, 0, 0, 0, 0, 0, -0.5399238467216492, -0.5529334545135498, 0.046978145837783813
12700, 0.03909052163362503, -0.08939086645841599, -0.009055580012500286, 0.12419472634792328, 0.18081432580947876, -0.007858428172767162, -0.0015363676939159632, -0.003516698721796274, 1.001694917678833, -0.5407915115356445, -0.5542315244674683, 0.04714380204677582, 0.0, 0.0, 0.0, 0, 0, 0, 0, 0, 0, -0.5407915115356445, -0.5542315244674683, 0.04714380204677582
12710, 0.03976994380354881, -0.09022291749715805, -0.00846547819674015, 0.15038371086120605, -0.07524093985557556, 0.160953551530838, 0.00039637956069782376, 0.0003155719896312803, 1.0004998445510864, -0.541658878326416, -0.5555331110954285, 0.047310832887887955, 0.0, 0.0, 0.0, 0, 0, 0, 0, 0, 0, -0.541658878326416, -0.5555331110954285, 0.047310832887887955
12720, 0.04081667959690094, -0.08970178663730621, -0.008745088241994381, 0.11263763159513474, 0.008366471156477928, -0.04864828288555145, 0.0006717953365296125, 0.0014036486390978098, 0.9991847276687622, -0.5425251722335815, -0.556836724281311, 0.04747859761118889, 0.0, 0.0, 0.0, 0, 0, 0, 0, 0, 0, -0.5425251722335815, -0.556836724281311, 0.04747859761118889
12730, 0.04185844585299492, -0.09066006541252136, -0.008215224370360374, -0.09586664289236069, 0.19638855755329132, -0.026967180892825127, -0.0008245296776294708, 0.00021370845206547529, 0.9993348717689514, -0.5433895587921143, -0.5581403374671936, 0.04764613136649132, 0.0, 0.0, 0.0, 0, 0, 0, 0, 0, 0, -0.5433895587921143, -0.5581403374671936, 0.04764613136649132
12740, 0.04109838232398033, -0.09064877033233643, -0.0076710814610123634, 0.00646775308996439, 0.28302496671676636, -0.19440606236457825, -0.0016161842504516244, -0.00021289459255058318, 0.9997161626815796, -0.5442526340484619, -0.5594440698623657, 0.047813355922698975, 0.0, 0.0, 0.0, 0, 0, 0, 0, 0, 0, -0.5442526340484619, -0.5594440698623657, 0.047813355922698975
12750, 0.04042552784085274, -0.0914057120680809, -0.008760092779994011, 0.07535228133201599, -0.38653507828712463, -0.005637952126562595, -0.00014106373419053853, -0.00100483070127666, 0.998944103717804, -0.5451151132583618, -0.5607484579086304, 0.047980327159166336, 0.0, 0.0, 0.0, 0, 0, 0, 0, 0, 0, -0.5451151132583618, -0.5607484579086304, 0.047980327159166336
12760, 0.03923599794507027, -0.09034180641174316, -0.008811680600047112, 0.05736958235502243, -0.19812452793121338, -0.006516961846500635, -0.0014146538451313972, -0.0024213327560573816, 0.9987858533859253, -0.5459766387939453, -0.5620539784431458, 0.04814654216170311, 0.0, 0.0, 0.0, 0, 0, 0, 0, 0, 0, -0.5459766387939453, -0.5620539784431458, 0.04814654216170311
12770, 0.03971260040998459, -0.08874190598726273, -0.009060204960405827, -0.04566076770424843, 0.1454315036535263, -0.12027718871831894, -0.003173898672685027, -0.0005427137948572636, 1.0012118816375732, -0.5468375086784363, -0.563361644744873, 0.04831164702773094, 0.0, 0.0, 0.0, 0, 0, 0, 0, 0, 0, -0.5468375086784363, -0.563361644744873, 0.04831164702773094
12780, 0.0397317111492157, -0.08801648020744324, -0.009944409132003784, 0.030092230066657066, -0.003755699610337615, -0.040294647216796875, -0.0029226148035377264, 0.00016416220751125365, 1.00054931640625, -0.5476992726325989, -0.5646712779998779, 0.048476796597242355, 0.0, 0.0, 0.0, 0, 0, 0, 0, 0, 0, -0.5476992726325989, -0.5646712779998779, 0.048476796597242355
12790, 0.03953206166625023, -0.08704822510480881, -0.009991975501179695, -0.07461082190275192, 0.050441060215234756, -0.03828512877225876, -0.0012998301535844803, 0.00026816732133738697, 1.0006352663040161, -0.5485624074935913, -0.5659815073013306, 0.048642709851264954, 0.0, 0.0, 0.0, 0, 0, 0, 0, 0, 0, -0.5485624074935913, -0.5659815073013306, 0.048642709851264954
12800, 0.03932272270321846, -0.08757485449314117, -0.010092565789818764, -0.14142845571041107, -0.1645633727312088, -0.15131038427352905, 0.00010556101187830791, -0.0011028237640857697, 1.0004634857177734, -0.5494258999824524, -0.5672922134399414, 0.04880912974476814, 0.0, 0.0, 0.0, 0, 0, 0, 0, 0, 0, -0.5494258999824524, -0.5672922134399414, 0.04880912974476814
12810, 0.039550792425870895, -0.0866546705365181, -0.009131920523941517, -0.029177837073802948, -0.2167864292860031, -0.2860180735588074, -0.0012971126707270741, -0.0002158731804229319, 1.0007587671279907, -0.5502884387969971, -0.5686041712760925, 0.04897628352046013, 0.0, 0.0, 0.0, 0, 0, 0, 0, 0, 0, -0.5502884387969971, -0.5686041712760925, 0.04897628352046013
12820, 0.03999728709459305, -0.08377952128648758, -0.01083129458129406, 0.08660199493169785, -0.2778191566467285, -0.15946146845817566, -0.0015729605220258236, -0.0014568802434951067, 1.00044846534729, -0.5511503219604492, -0.5699173808097839, 0.0491441935300827, 0.0, 0.0, 0.0, 0, 0, 0, 0, 0, 0, -0.5511503219604492, -0.5699173808097839, 0.0491441935300827
12830, 0.04049761965870857, -0.08263392746448517, -0.012424537912011147, 0.009146339260041714, 0.09274651855230331, -0.04742167890071869, -0.004308427218347788, -0.0015990238171070814, 1.0001686811447144, -0.5520123243331909, -0.5712321400642395, 0.04931269586086273, 0.0, 0.0, 0.0, 0, 0, 0, 0, 0, 0, -0.5520123243331909, -0.5712321400642395, 0.04931269586086273
12840, 0.04056510329246521, -0.08206944167613983, -0.012467197142541409, 0.10343374311923981, -0.24125325679779053, -0.1989271491765976, -0.001559397904202342, -0.002203388372436166, 0.99764484167099, -0.5528755784034729, -0.5725492835044861, 0.04948147013783455, 0.0, 0.0, 0.0, 0, 0, 0, 0, 0, 0, -0.5528755784034729, -0.5725492835044861, 0.04948147013783455
12850, 0.04044671729207039, -0.08101210743188858, -0.013822158798575401, -0.012361057102680206, 0.13523703813552856, 0.1593729853630066, -0.0007258827099576592, -0.001996728591620922, 0.9991201758384705, -0.5537399053573608, -0.573868989944458, 0.04964908957481384, 0.0, 0.0, 0.0, 0, 0, 0, 0, 0, 0, -0.5537399053573608, -0.573868989944458, 0.04964908957481384
12860, 0.04011502116918564, -0.08188895881175995, -0.01351104211062193, 0.323642373085022, 0.10081194341182709, 0.006946318317204714, -0.0007230945629999042, -2.7072113880421966e-05, 1.0009130239486694, -0.5546038150787354, -0.5751911401748657, 0.049815427511930466, 0.0, 0.0, 0.0, 0, 0, 0, 0, 0, 0, -0.5546038150787354, -0.5751911401748657, 0.049815427511930466
12870, 0.04081306979060173, -0.08199986070394516, -0.012500153854489326, -0.2240874022245407, 0.17182275652885437, -0.01070456113666296, 0.00025899274623952806, -0.0021903151646256447, 0.9989154934883118, -0.5554669499397278, -0.5765150189399719, 0.049981918185949326, 0.0, 0.0, 0.0, 0, 0, 0, 0, 0, 0, -0.5554669499397278, -0.5765150189399719, 0.049981918185949326
12880, 0.03940208628773689, -0.08237338811159134, -0.012531423009932041, 0.18185070157051086, 0.14926044642925262, 0.0624685063958168, -0.002236178144812584, -0.0032501285895705223, 1.000948190689087, -0.5563291311264038, -0.5778408050537109, 0.05014822632074356, 0.0, 0.0, 0.0, 0, 0, 0, 0, 0, 0, -0.5563291311264038, -0.5778408050537109, 0.05014822632074356
12890, 0.04000186175107956, -0.08345755934715271, -0.011966658756136894, -0.08422005921602249, 0.0661296620965004, -0.03352172672748566, -0.0023731007240712643, -0.0025255661457777023, 1.0028685331344604, -0.5571912527084351, -0.5791699886322021, 0.050314731895923615, 0.0, 0.0, 0.0, 0, 0, 0, 0, 0, 0, -0.5571912527084351, -0.5791699886322021, 0.050314731895923615
12900, 0.03954644128680229, -0.08391707390546799, -0.012309504672884941, -0.1335340142250061, 0.22613684833049774, -0.0015366539591923356, -0.0016618547961115837, -0.0011332465801388025, 0.9994255900382996, -0.5580542087554932, -0.5805026292800903, 0.050483040511608124, 0.0, 0.0, 0.0, 0, 0, 0, 0, 0, 0, -0.5580542087554932, -0.5805026292800903, 0.050483040511608124
12910, 0.038563717156648636, -0.08648146688938141, -0.012726277112960815, -0.01991439051926136, 0.2743299603462219, 0.06946329027414322, -0.002885380294173956, 0.0003510492679197341, 0.999492347240448, -0.5589175820350647, -0.5818374752998352, 0.0506521575152874, 0.0, 0.0, 0.0, 0, 0, 0, 0, 0, 0, -0.5589175820350647, -0.5818374752998352, 0.0506521575152874
12920, 0.03838072344660759, -0.0877426415681839, -0.012212879955768585, -0.38862696290016174, -0.14026254415512085, -0.1339467465877533, -0.000616750679910183, -0.0011691948166117072, 1.000427007675171, -0.5597817301750183, -0.583173394203186, 0.050820548087358475, 0.0, 0.0, 0.0, 0, 0, 0, 0, 0, 0, -0.5597817301750183, -0.583173394203186, 0.050820548087358475
12930, 0.036219511181116104, -0.08627606183290482, -0.013752675615251064, 0.10596756637096405, 0.22412250936031342, 0.15012292563915253, -0.0018530339002609253, -0.0005525415763258934, 1.0001357793807983, -0.5606461763381958, -0.5845104455947876, 0.050988852977752686, 0.0, 0.0, 0.0, 0, 0, 0, 0, 0, 0, -0.5606461763381958, -0.5845104455947876, 0.050988852977752686
12940, 0.036116309463977814, -0.08706030249595642, -0.013662377372384071, -0.08853980153799057, 0.17473392188549042, -0.11012322455644608, -0.002999180229380727, -0.0005764911766164005, 1.001289963722229, -0.5615106821060181, -0.585848867893219, 0.05115772411227226, 0.0, 0.0, 0.0, 0, 0, 0, 0, 0, 0, -0.5615106821060181, -0.585848867893219, 0.05115772411227226
12950, 0.03575175628066063, -0.08822167664766312, -0.013881911523640156, 0.10018569976091385, 0.13615724444389343, -0.10711238533258438, -0.0017548076575621963, -0.0009739586967043579, 0.9995972514152527, -0.5623761415481567, -0.5871886014938354, 0.051327306777238846, 0.0, 0.0, 0.0, 0, 0, 0, 0, 0, 0, -0.5623761415481567, -0.5871886014938354, 0.051327306777238846
12960, 0.03631480038166046, -0.08920785039663315, -0.014855434186756611, -0.19041039049625397, -0.22602173686027527, 0.006942219100892544, -0.004341724328696728, 0.0014365626266226172, 0.9988049864768982, -0.5632424354553223, -0.5885295867919922, 0.05149728059768677, 0.0, 0.0, 0.0, 0, 0, 0, 0, 0, 0, -0.5632424354553223, -0.5885295867919922, 0.05149728059768677
12970, 0.03556147962808609, -0.0880289301276207, -0.014782731421291828, 0.04875782132148743, 0.07840532064437866, 0.13009007275104523, -0.002819211920723319, 0.0003390237980056554, 0.9988182187080383, -0.564110279083252, -0.589870810508728, 0.05166653171181679, 0.0, 0.0, 0.0, 0, 0, 0, 0, 0, 0, -0.564110279083252, -0.589870810508728, 0.05166653171181679
12980, 0.03491780534386635, -0.08761648088693619, -0.014796605333685875, 0.21396642923355103, -0.11070321500301361, -0.11220983415842056, -0.00191406044177711, -0.0013641990954056382, 1.000754714012146, -0.5649797320365906, -0.5912120938301086, 0.051834724843502045, 0.0, 0.0, 0.0, 0, 0, 0, 0, 0, 0, -0.5649797320365906, -0.5912120938301086, 0.051834724843502045
12990, 0.03631168231368065, -0.08498954027891159, -0.015359527431428432, -0.17085766792297363, 0.13294462859630585, 0.14111176133155823, -0.0014281024923548102, -0.0015694908797740936, 1.003371238708496, -0.5658498406410217, -0.5925546884536743, 0.052003245800733566, 0.0, 0.0, 0.0, 0, 0, 0, 0, 0, 0, -0.5658498406410217, -0.5925546884536743, 0.052003245800733566
13000, 0.035691261291503906, -0.08510755002498627, -0.015558294951915741, 0.10352972894906998, 0.21499845385551453, -0.11911328881978989, -0.0005143646849319339, -0.0018243605736643076, 1.0034949779510498, -0.5667200684547424, -0.5938994288444519, 0.05217409506440163, 0.0, 0.0, 0.0, 0, 0, 0, 0, 0, 0, -0.5667200684547424, -0.5938994288444519, 0.05217409506440163
13010, 0.03611540049314499, -0.08524750918149948, -0.015818066895008087, -0.041470225900411606, -0.13208016753196716, -0.24236129224300385, -0.0010127406567335129, -0.0010324717732146382, 1.0010695457458496, -0.5675897002220154, -0.5952463746070862, 0.052348099648952484, 0.0, 0.0, 0.0, 0, 0, 0, 0, 0, 0, -0.5675897002220154, -0.5952463746070862, 0.052348099648952484
13020, 0.03641064092516899, -0.08381237089633942, -0.016587035730481148, -0.10271430015563965, 0.08937811851501465, 0.020547349005937576, -0.0006930399686098099, -0.0016564809484407306, 1.000887155532837, -0.5684586763381958, -0.5965951085090637, 0.05252426490187645, 0.0, 0.0, 0.0, 0, 0, 0, 0, 0, 0, -0.5684586763381958, -0.5965951085090637, 0.05252426490187645
13030, 0.03619800880551338, -0.08430415391921997, -0.0153334466740489, 0.03133627027273178, 0.14810419082641602, 0.08342721313238144, 0.0003502365725580603, -0.004077056422829628, 0.9984042644500732, -0.5693268775939941, -0.5979458093643188, 0.05270129069685936, 0.0, 0.0, 0.0, 0, 0, 0, 0, 0, 0, -0.5693268775939941, -0.5979458093643188, 0.05270129069685936
13040, 0.03712709993124008, -0.08279871940612793, -0.014541681855916977, 0.10350525379180908, 0.05261976644396782, -0.13407249748706818, -0.0016078685875982046, -0.0020766702946275473, 0.9993369579315186, -0.5701936483383179, -0.5992998480796814, 0.05287792533636093, 0.0, 0.0, 0.0, 0, 0, 0, 0, 0, 0, -0.5701936483383179, -0.5992998480796814, 0.05287792533636093
13050, 0.03795407712459564, -0.08174256235361099, -0.015425179153680801, -0.07574987411499023, -0.31711703538894653, 0.06397013366222382, -0.0032749928068369627, -0.0019595737103372812, 0.9981871247291565, -0.5710597634315491, -0.6006574630737305, 0.05305350944399834, 0.0, 0.0, 0.0, 0, 0, 0, 0, 0, 0, -0.5710597634315491, -0.6006574630737305, 0.05305350944399834
13060, 0.037066344171762466, -0.08103414624929428, -0.014315670356154442, -0.05448863282799721, 0.07601402699947357, -0.039501484483480453, -0.002648778725415468, -0.001084467163309455, 0.999506413936615, -0.5719269514083862, -0.6020176410675049, 0.053227998316287994, 0.0, 0.0, 0.0, 0, 0, 0, 0, 0, 0, -0.5719269514083862, -0.6020176410675049, 0.053227998316287994
13070, 0.037656333297491074, -0.08181539177894592, -0.014404571615159512, 0.057270850986242294, -0.01431320421397686, -0.2970776855945587, -0.0022303760051727295, -0.0020048427395522594, 1.0010309219360352, -0.5727956295013428, -0.6033797860145569, 0.053401704877614975, 0.0, 0.0, 0.0, 0, 0, 0, 0, 0, 0, -0.5727956295013428, -0.6033797860145569, 0.053401704877614975
13080, 0.03732092306017876, -0.08175209909677505, -0.01626698486506939, -0.11281659454107285, 0.3080088794231415, -0.06079431250691414, -0.0029946882277727127, -0.0009163359645754099, 1.002612829208374, -0.5736653804779053, -0.6047440767288208, 0.05357605591416359, 0.0, 0.0, 0.0, 0, 0, 0, 0, 0, 0, -0.5736653804779053, -0.6047440767288208, 0.05357605591416359
13090, 0.03728225827217102, -0.08309078216552734, -0.017144016921520233, -0.1962466984987259, -0.07866973429918289, -0.03633970767259598, -0.00160518242046237, -0.0015426258323714137, 1.002082109451294, -0.5745363235473633, -0.6061103940010071, 0.05375245213508606, 0.0, 0.0, 0.0, 0, 0, 0, 0, 0, 0, -0.5745363235473633, -0.6061103940010071, 0.05375245213508606
13100, 0.03726858273148537, -0.08309737592935562, -0.017678523436188698, -0.37940287590026855, 0.30049246549606323, -0.0015925118932500482, -0.0011018594959750772, -0.001385855721309781, 1.0007480382919312, -0.5754078030586243, -0.6074785590171814, 0.05393105745315552, 0.0, 0.0, 0.0, 0, 0, 0, 0, 0, 0, -0.5754078030586243, -0.6074785590171814, 0.05393105745315552
13110, 0.035903289914131165, -0.08411995321512222, -0.01751340925693512, 0.01367974653840065, -0.08305943012237549, 0.1251985877752304, -0.0017710801912471652, -0.00044705442269332707, 1.0009857416152954, -0.5762792825698853, -0.6088488698005676, 0.0541110560297966, 0.0, 0.0, 0.0, 0, 0, 0, 0, 0, 0, -0.5762792825698853, -0.6088488698005676, 0.0541110560297966
13120, 0.03589197248220444, -0.08467351645231247, -0.016422778367996216, -0.015904897823929787, 0.08955200016498566, 0.13515761494636536, -0.0010601263493299484, -0.00038427943945862353, 1.001075267791748, -0.5771508812904358, -0.6102208495140076, 0.05429190397262573, 0.0, 0.0, 0.0, 0, 0, 0, 0, 0, 0, -0.5771508812904358, -0.6102208495140076, 0.05429190397262573
13130, 0.03572436794638634, -0.08577929437160492, -0.015831856057047844, 0.03149325028061867, 0.1305381804704666, -0.19333919882774353, -0.00032185783493332565, -0.0015145729994401336, 1.001856803894043, -0.5780222415924072, -0.6115939617156982, 0.05447369068861008, 0.0, 0.0, 0.0, 0, 0, 0, 0, 0, 0, -0.5780222415924072, -0.6115939617156982, 0.05447369068861008
13140, 0.03580822795629501, -0.08698248118162155, -0.017025243490934372, 0.0021749031729996204, -0.019906533882021904, 0.03822627291083336, -0.0005251927650533617, -0.003192086471244693, 1.0025410652160645, -0.5788927674293518, -0.6129688024520874, 0.054656896740198135, 0.0, 0.0, 0.0, 0, 0, 0, 0, 0, 0, -0.5788927674293518, -0.6129688024520874, 0.054656896740198135
13150, 0.035633429884910583, -0.08757735788822174, -0.01725778728723526, -0.10013815015554428, 0.08177629858255386, -0.10169453918933868, -6.389703776221722e-05, -0.0033685339149087667, 0.9997047185897827, -0.5797622203826904, -0.6143466830253601, 0.05484180524945259, 0.0, 0.0, 0.0, 0, 0, 0, 0, 0, 0, -0.5797622203826904, -0.6143466830253601, 0.05484180524945259
13160, 0.035983607172966, -0.08855787664651871, -0.01784431003034115, -0.028323490172624588, 0.148818701505661, 0.06762304157018661, -1.1708657439157832e-05, -0.0020998655818402767, 0.9986168146133423, -0.5806303024291992, -0.6157283186912537, 0.05502724647521973, 0.0, 0.0, 0.0, 0, 0, 0, 0, 0, 0, -0.5806303024291992, -0.6157283186912537, 0.05502724647521973
13170, 0.03623156622052193, -0.08952553570270538, -0.01818086951971054, 0.11358840763568878, -0.10286387801170349, 0.11608178913593292, -0.0022653741762042046, -0.0027039414271712303, 1.002346158027649, -0.5814972519874573, -0.6171131134033203, 0.055211976170539856, 0.0, 0.0, 0.0, 0, 0, 0, 0, 0, 0, -0.5814972519874573, -0.6171131134033203, 0.055211976170539856
13180, 0.03633614629507065, -0.08906975388526917, -0.01804623007774353, 0.10919789969921112, 0.14578363299369812, -0.01669393852353096, -0.0009897267445921898, -0.00099844706710428, 1.0022428035736084, -0.582364022731781, -0.6185007095336914, 0.05539752542972565, 0.0, 0.0, 0.0, 0, 0, 0, 0, 0, 0, -0.582364022731781, -0.6185007095336914, 0.05539752542972565
13190, 0.03776783123612404, -0.08974073082208633, -0.017461935058236122, 0.016146792098879814, -0.13476525247097015, 0.15015055239200592, -0.0032984998542815447, -0.0017411713488399982, 1.0010342597961426, -0.5832309126853943, -0.6198906302452087, 0.05558532103896141, 0.0, 0.0, 0.0, 0, 0, 0, 0, 0, 0, -0.5832309126853943, -0.6198906302452087, 0.05558532103896141
13200, 0.03811013326048851, -0.08931201696395874, -0.01665368862450123, -0.0215282179415226, 0.39868250489234924, 0.019901564344763756, -0.0023682396858930588, -0.0018535008421167731, 1.0008327960968018, -0.5840983986854553, -0.6212825775146484, 0.055774640291929245, 0.0, 0.0, 0.0, 0, 0, 0, 0, 0, 0, -0.5840983986854553, -0.6212825775146484, 0.055774640291929245
13210, 0.03786361962556839, -0.09028055518865585, -0.01673795096576214, 0.0702056959271431, 0.28220874071121216, -0.0023874088656157255, -0.0011005515698343515, -0.0009668785496614873, 0.9999033808708191, -0.5849670767784119, -0.6226767897605896, 0.05596500635147095, 0.0, 0.0, 0.0, 0, 0, 0, 0, 0, 0, -0.5849670767784119, -0.6226767897605896, 0.05596500635147095
13220, 0.037910282611846924, -0.09147056937217712, -0.017156515270471573, 0.04707888141274452, 0.09750664979219437, 0.21755065023899078, -0.0016146019333973527, -0.0007172867772169411, 0.9984777569770813, -0.5858360528945923, -0.6240729689598083, 0.05615585297346115, 0.0, 0.0, 0.0, 0, 0, 0, 0, 0, 0, -0.5858360528945923, -0.6240729689598083, 0.05615585297346115
13230, 0.03824525699019432, -0.09213609993457794, -0.015763631090521812, 0.02174133062362671, 0.051071226596832275, -0.026369906961917877, -0.0019367337226867676, 0.0006445656181313097, 0.9974669814109802, -0.5867047905921936, -0.6254705786705017, 0.05634572356939316, 0.0, 0.0, 0.0, 0, 0, 0, 0, 0, 0, -0.5867047905921936, -0.6254705786705017, 0.05634572356939316
13240, 0.03855317831039429, -0.0933256521821022, -0.015492568723857403, 0.0075612301006913185, 0.008567390032112598, -0.009582430124282837, -0.001477687037549913, -0.000524659117218107, 0.9988895058631897, -0.5875736474990845, -0.6268688440322876, 0.056533560156822205, 0.0, 0.0, 0.0, 0, 0, 0, 0, 0, 0, -0.5875736474990845, -0.6268688440322876, 0.056533560156822205
13250, 0.03805852681398392, -0.09514626860618591, -0.014827007427811623, -0.014012712985277176, -0.20481239259243011, -0.1170882135629654, 0.0002733044675551355, -0.0007894833106547594, 0.9996646642684937, -0.5884426236152649, -0.6282677054405212, 0.05671970918774605, 0.0, 0.0, 0.0, 0, 0, 0, 0, 0, 0, -0.5884426236152649, -0.6282677054405212, 0.05671970918774605
13260, 0.037592459470033646, -0.09478140622377396, -0.014711441472172737, -0.05862080305814743, -0.01689513772726059, 0.2950619161128998, -0.0007682638824917376, -0.0006887976196594536, 1.0015658140182495, -0.5893107056617737, -0.6296677589416504, 0.056905318051576614, 0.0, 0.0, 0.0, 0, 0, 0, 0, 0, 0, -0.5893107056617737, -0.6296677589416504, 0.056905318051576614
13270, 0.03773046284914017, -0.09472072869539261, -0.013052982278168201, 0.06702955812215805, -0.22490428388118744, 0.07439683377742767, -0.002079401630908251, -0.0005509603070095181, 1.0013455152511597, -0.5901777148246765, -0.6310691237449646, 0.05709169805049896, 0.0, 0.0, 0.0, 0, 0, 0, 0, 0, 0, -0.5901777148246765, -0.6310691237449646, 0.05709169805049896
13280, 0.0377647690474987, -0.09120659530162811, -0.01284106820821762, -0.0005328768747858703, 0.03381751477718353, -0.31832072138786316, -0.0024515255354344845, -0.0003547433589119464, 0.9992143511772156, -0.5910446643829346, -0.6324715614318848, 0.05727935954928398, 0.0, 0.0, 0.0, 0, 0, 0, 0, 0, 0, -0.5910446643829346, -0.6324715614318848, 0.05727935954928398
13290, 0.0378689281642437, -0.08956577628850937, -0.013854236342012882, -0.06664222478866577, -0.5177649855613708, -0.01977160945534706, -0.0003965548821724951, -0.0018394200596958399, 0.9989262819290161, -0.5919122695922852, -0.6338751912117004, 0.05746718496084213, 0.0, 0.0, 0.0, 0, 0, 0, 0, 0, 0, -0.5919122695922852, -0.6338751912117004, 0.05746718496084213
13300, 0.036872245371341705, -0.08619905263185501, -0.014448980800807476, 0.16999287903308868, -0.028155099600553513, 0.11985243856906891, -0.00042563886381685734, -0.0002727207902353257, 1.0006349086761475, -0.5927796363830566, -0.6352806091308594, 0.057654157280921936, 0.0, 0.0, 0.0, 0, 0, 0, 0, 0, 0, -0.5927796363830566, -0.6352806091308594, 0.057654157280921936
13310, 0.03765746206045151, -0.08655455708503723, -0.013364255428314209, 0.042021796107292175, 0.07797378301620483, -0.1467398703098297, -0.0007383908960036933, -0.0007363558979704976, 1.0019700527191162, -0.5936458706855774, -0.6366875767707825, 0.0578409880399704, 0.0, 0.0, 0.0, 0, 0, 0, 0, 0, 0, -0.5936458706855774, -0.6366875767707825, 0.0578409880399704
13320, 0.037670087069272995, -0.08584924042224884, -0.01438918337225914, -0.06698836386203766, -0.032284367829561234, -0.1608530879020691, -0.0018849974730983377, 0.000808404409326613, 1.0035603046417236, -0.5945112109184265, -0.6380955576896667, 0.058029040694236755, 0.0, 0.0, 0.0, 0, 0, 0, 0, 0, 0, -0.5945112109184265, -0.6380955576896667, 0.058029040694236755
13330, 0.03700033947825432, -0.08459179848432541, -0.015627756714820862, 0.06535741686820984, -0.2034245878458023, 0.23518027365207672, -0.0028265146538615227, 0.0004970437730662525, 1.0009907484054565, -0.5953763127326965, -0.6395041346549988, 0.05821951851248741, 0.0, 0.0, 0.0, 0, 0, 0, 0, 0, 0, -0.5953763127326965, -0.6395041346549988, 0.05821951851248741
13340, 0.036846619099378586, -0.08476913720369339, -0.014876177534461021, -0.17655964195728302, 0.40483358502388, 0.2711830735206604, -0.002763276919722557, 0.0017971370834857225, 1.002170205116272, -0.5962421894073486, -0.640912652015686, 0.05841226503252983, 0.0, 0.0, 0.0, 0, 0, 0, 0, 0, 0, -0.5962421894073486, -0.640912652015686, 0.05841226503252983
13350, 0.03664149343967438, -0.08635818213224411, -0.013817088678479195, 0.03975619748234749, -0.13218463957309723, -0.1428820639848709, 6.279408262344077e-05, -0.0033180774189531803, 1.0006463527679443, -0.5971090197563171, -0.6423211097717285, 0.05860668420791626, 0.0, 0.0, 0.0, 0, 0, 0, 0, 0, 0, -0.5971090197563171, -0.6423211097717285, 0.05860668420791626
13360, 0.037148792296648026, -0.0855381116271019, -0.01380170602351427, -0.026572272181510925, 0.06553631275892258, 0.08229096233844757, -0.00038110296009108424, -0.0022556402254849672, 1.0001270771026611, -0.597975492477417, -0.643731415271759, 0.05880226939916611, 0.0, 0.0, 0.0, 0, 0, 0, 0, 0, 0, -0.597975492477417, -0.643731415271759, 0.05880226939916611
13370, 0.03690827637910843, -0.08555714786052704, -0.013458752073347569, -0.059609975665807724, -0.14629009366035461, 0.08227900415658951, 0.0015749065205454826, -0.0013068184489384294, 1.0005475282669067, -0.598840594291687, -0.6451447010040283, 0.05899816006422043, 0.0, 0.0, 0.0, 0, 0, 0, 0, 0, 0, -0.598840594291687, -0.6451447010040283, 0.05899816006422043
13380, 0.037245720624923706, -0.08527819067239761, -0.012354944832623005, 0.04557904973626137, 0.17924359440803528, 0.13411374390125275, 0.0005628608050756156, -0.0013245525769889355, 1.0003547668457031, -0.5997036099433899, -0.6465602517127991, 0.05919449031352997, 0.0, 0.0, 0.0, 0, 0, 0, 0, 0, 0, -0.5997036099433899, -0.6465602517127991, 0.05919449031352997
13390, 0.03742459416389465, -0.08578020334243774, -0.012377689592540264, 0.023087378591299057, 0.0007959202630445361, -0.1781342774629593, -0.0009565831278450787, -0.003846916602924466, 1.0009589195251465, -0.6005644798278809, -0.6479781270027161, 0.059391483664512634, 0.0, 0.0, 0.0, 0, 0, 0, 0, 0, 0, -0.6005644798278809, -0.6479781270027161, 0.059391483664512634
13400, 0.03784004971385002, -0.08550137281417847, -0.013199379667639732, 0.25529366731643677, 0.02610880322754383, 0.12437241524457932, 0.00048211816465482116, -0.00372806703671813, 1.0011664628982544, -0.6014240980148315, -0.6493993401527405, 0.05958930775523186, 0.0, 0.0, 0.0, 0, 0, 0, 0, 0, 0, -0.6014240980148315, -0.6493993401527405, 0.05958930775523186
13410, 0.039336368441581726, -0.0862748995423317, -0.012962893582880497, -0.06518107652664185, 0.05818883329629898, -0.05761578679084778, -0.0003197735350113362, -0.0022060766350477934, 0.9996774792671204, -0.6022822260856628, -0.6508246660232544, 0.05978802591562271, 0.0, 0.0, 0.0, 0, 0, 0, 0, 0, 0, -0.6022822260856628, -0.6508246660232544, 0.05978802591562271
13420, 0.039009321480989456, -0.08735094219446182, -0.013480464927852154, -0.033594101667404175, 0.015706870704889297, -0.043770480901002884, -0.0028744360897690058, -0.0012108997907489538, 1.0003244876861572, -0.6031389236450195, -0.6522530317306519, 0.05998709052801132, 0.0, 0.0, 0.0, 0, 0, 0, 0, 0, 0, -0.6031389236450195, -0.6522530317306519, 0.05998709052801132
13430, 0.038867104798555374, -0.08705355226993561, -0.01342295203357935, 0.1275770217180252, -0.10976202040910721, -0.14743384718894958, -0.0021550722885876894, -0.0008863217663019896, 0.9991710186004639, -0.6039958000183105, -0.6536833643913269, 0.060186177492141724, 0.0, 0.0, 0.0, 0, 0, 0, 0, 0, 0, -0.6039958000183105, -0.6536833643913269, 0.060186177492141724
13440, 0.03881867229938507, -0.08617684245109558, -0.014298913069069386, 0.1769152134656906, -0.09868134558200836, -0.0006162149948067963, 0.0002088291512336582, -0.001156897866167128, 1.0010944604873657, -0.6048535108566284, -0.6551151871681213, 0.06038524582982063, 0.0, 0.0, 0.0, 0, 0, 0, 0, 0, 0, -0.6048535108566284, -0.6551151871681213, 0.06038524582982063
13450, 0.039681922644376755, -0.08498377352952957, -0.01576474867761135, -0.03178130462765694, -0.26957276463508606, 0.0001429979020031169, -0.0009145595831796527, -0.002502230927348137, 0.9999088644981384, -0.6057106852531433, -0.6565486192703247, 0.06058487668633461, 0.0, 0.0, 0.0, 0, 0, 0, 0, 0, 0, -0.6057106852531433, -0.6565486192703247, 0.06058487668633461
13460, 0.039122577756643295, -0.08260263502597809, -0.015481313690543175, -0.016142094507813454, 0.33549562096595764, -0.12143128365278244, -0.0005605267360806465, -0.0014983336441218853, 0.9982590079307556, -0.6065667867660522, -0.6579843163490295, 0.06078505143523216, 0.0, 0.0, 0.0, 0, 0, 0, 0, 0, 0, -0.6065667867660522, -0.6579843163490295, 0.06078505143523216
13470, 0.03880908340215683, -0.08333635330200195, -0.016606243327260017, -0.08314301818609238, -0.09080523997545242, -0.27539172768592834, -0.0035171492490917444, -0.0019894330762326717, 0.9975728988647461, -0.6074225902557373, -0.6594224572181702, 0.06098385527729988, 0.0, 0.0, 0.0, 0, 0, 0, 0, 0, 0, -0.6074225902557373, -0.6594224572181702, 0.06098385527729988
13480, 0.03869069367647171, -0.08228569477796555, -0.017123041674494743, 0.14717282354831696, 0.2007000744342804, -0.10871420055627823, -0.0017165567260235548, 0.00035685134935192764, 0.9991974234580994, -0.6082793474197388, -0.6608628034591675, 0.061180341988801956, 0.0, 0.0, 0.0, 0, 0, 0, 0, 0, 0, -0.6082793474197388, -0.6608628034591675, 0.061180341988801956
13490, 0.040547944605350494, -0.08128559589385986, -0.01703495904803276, -0.11231085658073425, -0.28183192014694214, 0.21643663942813873, -0.0001402833149768412, 0.00030350947054103017, 0.9989944100379944, -0.6091370582580566, -0.6623042821884155, 0.061375293880701065, 0.0, 0.0, 0.0, 0, 0, 0, 0, 0, 0, -0.6091370582580566, -0.6623042821884155, 0.061375293880701065
13500, 0.04096519201993942, -0.07921572774648666, -0.016404442489147186, -0.09133343398571014, 0.04710301011800766, 0.081532783806324, -0.0015134746208786964, -0.0010070708813145757, 0.9985437393188477, -0.6099942922592163, -0.6637461185455322, 0.06156910955905914, 0.0, 0.0, 0.0, 0, 0, 0, 0, 0, 0, -0.6099942922592163, -0.6637461185455322, 0.06156910955905914
13510, 0.03996001556515694, -0.07951460033655167, -0.015805881470441818, 0.0968613475561142, -0.2525321841239929, -0.1254405975341797, -0.002859357511624694, -0.0021014574449509382, 0.9995459914207458, -0.6108512878417969, -0.6651891469955444, 0.061761751770973206, 0.0, 0.0, 0.0, 0, 0, 0, 0, 0, 0, -0.6108512878417969, -0.6651891469955444, 0.061761751770973206
13520, 0.04080658033490181, -0.07779832929372787, -0.016516566276550293, -0.0038196472451090813, 0.1302390992641449, 0.011564088985323906, -0.0026981476694345474, -0.004087887704372406, 0.9986855387687683, -0.6117092967033386, -0.6666346192359924, 0.06195356324315071, 0.0, 0.0, 0.0, 0, 0, 0, 0, 0, 0, -0.6117092967033386, -0.6666346192359924, 0.06195356324315071
13530, 0.04024516046047211, -0.07882378995418549, -0.016615021973848343, 0.00864488072693348, 0.15772645175457, 0.1860751211643219, -0.0026803778018802404, -0.0024593255948275328, 1.0000332593917847, -0.612568736076355, -0.668083906173706, 0.06214451417326927, 0.0, 0.0, 0.0, 0, 0, 0, 0, 0, 0, -0.612568736076355, -0.668083906173706, 0.06214451417326927
13540, 0.040941644459962845, -0.07910080254077911, -0.01613003760576248, -0.06324179470539093, 0.019962795078754425, 0.08348125964403152, -0.002146295504644513, -0.002210313221439719, 1.0019112825393677, -0.6134293675422668, -0.6695370674133301, 0.06233508884906769, 0.0, 0.0, 0.0, 0, 0, 0, 0, 0, 0, -0.6134293675422668, -0.6695370674133301, 0.06233508884906769
13550, 0.04058251157402992, -0.08018030971288681, -0.016942737624049187, -0.008649601601064205, 0.08346529304981232, 0.014075972139835358, -0.0014226724160835147, -0.0009725957061164081, 1.0027776956558228, -0.6142908334732056, -0.670992910861969, 0.06252681463956833, 0.0, 0.0, 0.0, 0, 0, 0, 0, 0, 0, -0.6142908334732056, -0.670992910861969, 0.06252681463956833
13560, 0.039942435920238495, -0.0807889848947525, -0.01670612022280693, -0.09531042724847794, -0.03990193083882332, 0.10194384306669235, -0.0024794526398181915, -0.0034787063486874104, 1.001814603805542, -0.6151525974273682, -0.6724509596824646, 0.06272079795598984, 0.0, 0.0, 0.0, 0, 0, 0, 0, 0, 0, -0.6151525974273682, -0.6724509596824646, 0.06272079795598984
13570, 0.03891133889555931, -0.08046115934848785, -0.017072420567274094, -0.11623714864253998, -0.24195046722888947, -0.13834427297115326, -0.002699787961319089, -0.0015346250729635358, 1.0013819932937622, -0.6160151362419128, -0.6739119291305542, 0.06291692703962326, 0.0, 0.0, 0.0, 0, 0, 0, 0, 0, 0, -0.6160151362419128, -0.6739119291305542, 0.06291692703962326
13580, 0.03836805745959282, -0.07876415550708771, -0.017602447420358658, 0.07002190500497818, 0.06667443364858627, -0.00793332327157259, -0.0014204921899363399, 0.0006647263653576374, 1.0023598670959473, -0.616878867149353, -0.6753755211830139, 0.06311454623937607, 0.0, 0.0, 0.0, 0, 0, 0, 0, 0, 0, -0.616878867149353, -0.6753755211830139, 0.06311454623937607
13590, 0.039252474904060364, -0.08001989126205444, -0.01784392073750496, -0.0755770280957222, -0.16867835819721222, -0.09297385811805725, -0.001657865010201931, 0.0002456445072311908, 1.0003881454467773, -0.617743194103241, -0.6768400073051453, 0.06331387907266617, 0.0, 0.0, 0.0, 0, 0, 0, 0, 0, 0, -0.617743194103241, -0.6768400073051453, 0.06331387907266617
13600, 0.039080072194337845, -0.07966147363185883, -0.01799769699573517, -0.06321073323488235, 0.1619928628206253, 0.07184525579214096, -0.001499223755672574, -0.0007252548239193857, 0.9968079924583435, -0.6186078786849976, -0.6783047914505005, 0.06351418793201447, 0.0, 0.0, 0.0, 0, 0, 0, 0, 0, 0, -0.6186078786849976, -0.6783047914505005, 0.06351418793201447
13610, 0.03807908296585083, -0.07968130707740784, -0.018331162631511688, -0.08881153911352158, 0.19274745881557465, 0.22403141856193542, -0.0010566279524937272, -0.004171506501734257, 0.997654378414154, -0.6194727420806885, -0.6797708868980408, 0.06371297687292099, 0.0, 0.0, 0.0, 0, 0, 0, 0, 0, 0, -0.6194727420806885, -0.6797708868980408, 0.06371297687292099
13620, 0.03727059066295624, -0.07934734225273132, -0.017483968287706375, -0.11720624566078186, 0.1572449654340744, -0.028452647849917412, -0.0017392231384292245, -0.002778947353363037, 0.9991836547851562, -0.6203373670578003, -0.681240439414978, 0.06390920281410217, 0.0, 0.0, 0.0, 0, 0, 0, 0, 0, 0, -0.6203373670578003, -0.681240439414978, 0.06390920281410217
13630, 0.036854300647974014, -0.08084369450807571, -0.01698734052479267, 0.006883579771965742, -0.018864881247282028, -0.03543248027563095, -0.0013923755614086986, -0.003214925527572632, 0.999575138092041, -0.6212018728256226, -0.6827139258384705, 0.06410408765077591, 0.0, 0.0, 0.0, 0, 0, 0, 0, 0, 0, -0.6212018728256226, -0.6827139258384705, 0.06410408765077591
13640, 0.03750372305512428, -0.07923166453838348, -0.0170886367559433, -0.001956268446519971, -0.3464852273464203, -0.054886817932128906, -0.00017659661534707993, -0.0021997636649757624, 0.9999661445617676, -0.6220664381980896, -0.6841909885406494, 0.06429843604564667, 0.0, 0.0, 0.0, 0, 0, 0, 0, 0, 0, -0.6220664381980896, -0.6841909885406494, 0.06429843604564667
13650, 0.03765636682510376, -0.0760272815823555, -0.016977133229374886, 0.031129080802202225, -0.051398128271102905, -0.0782204270362854, -0.0004244774754624814, -0.0019704464357346296, 0.9996272325515747, -0.6229304671287537, -0.685671329498291, 0.0644925907254219, 0.0, 0.0, 0.0, 0, 0, 0, 0, 0, 0, -0.6229304671287537, -0.685671329498291, 0.0644925907254219
13660, 0.0368516631424427, -0.07521798461675644, -0.017687620595097542, -0.026751551777124405, -0.13286665081977844, 0.10306516289710999, -0.0023141454439610243, -0.003387944772839546, 1.00157630443573, -0.623793363571167, -0.687154233455658, 0.06468669325113297, 0.0, 0.0, 0.0, 0, 0, 0, 0, 0, 0, -0.623793363571167, -0.687154233455658, 0.06468669325113297
13670, 0.036984216421842575, -0.07568370550870895, -0.01746204122900963, 0.1234842911362648, -0.03648142144083977, 0.16769900918006897, -0.005219988524913788, -0.0022098699118942022, 0.9999674558639526, -0.6246564388275146, -0.6886404752731323, 0.06488125026226044, 0.0, 0.0, 0.0, 0, 0, 0, 0, 0, 0, -0.6246564388275146, -0.6886404752731323, 0.06488125026226044
13680, 0.037408482283353806, -0.07428822666406631, -0.016509147360920906, 0.14175213873386383, -0.2198186218738556, -0.10529853403568268, -0.0023110939655452967, -7.192586053861305e-05, 0.9980573654174805, -0.6255218982696533, -0.690129816532135, 0.06507633626461029, 0.0, 0.0, 0.0, 0, 0, 0, 0, 0, 0, -0.6255218982696533, -0.690129816532135, 0.06507633626461029
13690, 0.0373302660882473, -0.07357774674892426, -0.017261018976569176, -0.1136028915643692, 0.1977524608373642, -0.09501878917217255, -0.0003096017462667078, -0.00023421617515850812, 0.9974533915519714, -0.6263893842697144, -0.6916207671165466, 0.065270334482193, 0.0, 0.0, 0.0, 0, 0, 0, 0, 0, 0, -0.6263893842697144, -0.6916207671165466, 0.065270334482193
13700, 0.03762492537498474, -0.07430757582187653, -0.017434917390346527, -0.043372344225645065, 0.07080691307783127, -0.11657029390335083, -0.0014837410999462008, -0.0013864096254110336, 0.9991286396980286, -0.6272568702697754, -0.6931127309799194, 0.06546203792095184, 0.0, 0.0, 0.0, 0, 0, 0, 0, 0, 0, -0.6272568702697754, -0.6931127309799194, 0.06546203792095184
13710, 0.03761724755167961, -0.07330844551324844, -0.018106672912836075, 0.11973653733730316, -0.1397978961467743, 0.06650207936763763, 0.00020821194630116224, -0.001967362128198147, 0.9996429681777954, -0.628123939037323, -0.6946061849594116, 0.06565207988023758, 0.0, 0.0, 0.0, 0, 0, 0, 0, 0, 0, -0.628123939037323, -0.6946061849594116, 0.06565207988023758
13720, 0.03845508024096489, -0.07324540615081787, -0.01844022423028946, 0.037873003631830215, -0.07401017844676971, 0.32790425419807434, -0.00155503093264997, -0.00411791680380702, 0.9995543360710144, -0.6289905905723572, -0.6961019039154053, 0.06584147363901138, 0.0, 0.0, 0.0, 0, 0, 0, 0, 0, 0, -0.6289905905723572, -0.6961019039154053, 0.06584147363901138
13730, 0.03884384408593178, -0.07196236401796341, -0.01631566882133484, 0.04364826902747154, 0.27496138215065, -0.16345427930355072, 0.0006942962063476443, -0.0025931852869689465, 0.9991406798362732, -0.6298565864562988, -0.6976014375686646, 0.06603039801120758, 0.0, 0.0, 0.0, 0, 0, 0, 0, 0, 0, -0.6298565864562988, -0.6976014375686646, 0.06603039801120758
13740, 0.039483822882175446, -0.07341500371694565, -0.016835125163197517, 0.04739692062139511, -0.08953820168972015, 0.04468030482530594, -0.0023356094025075436, -0.00045046399463899434, 0.9978725910186768, -0.6307217478752136, -0.699104905128479, 0.06621873378753662, 0.0, 0.0, 0.0, 0, 0, 0, 0, 0, 0, -0.6307217478752136, -0.699104905128479, 0.06621873378753662
13750, 0.03998442366719246, -0.07275454699993134, -0.017860235646367073, 0.04816948622465134, -0.18807126581668854, -0.10720563679933548, -0.0019881916232407093, -0.0009667146950960159, 0.9986982941627502, -0.6315865516662598, -0.7006104588508606, 0.06640564650297165, 0.0, 0.0, 0.0, 0, 0, 0, 0, 0, 0, -0.6315865516662598, -0.7006104588508606, 0.06640564650297165
13760, 0.03906271606683731, -0.071019247174263, -0.019566962495446205, 0.005002783611416817, -0.23732155561447144, 0.12989413738250732, -0.0011158543638885021, -0.0008223608019761741, 0.9992376565933228, -0.6324519515037537, -0.7021176218986511, 0.0665908008813858, 0.0, 0.0, 0.0, 0, 0, 0, 0, 0, 0, -0.6324519515037537, -0.7021176218986511, 0.0665908008813858
13770, 0.038327377289533615, -0.07050555944442749, -0.019684113562107086, 0.12260355800390244, 0.08067696541547775, 0.11483141034841537, 0.0008736771997064352, -0.0007584500126540661, 0.9982234239578247, -0.6333173513412476, -0.7036265730857849, 0.06677478551864624, 0.0, 0.0, 0.0, 0, 0, 0, 0, 0, 0, -0.6333173513412476, -0.7036265730857849, 0.06677478551864624
13780, 0.03881923481822014, -0.07142294198274612, -0.018557671457529068, -0.030855916440486908, 0.0103269312530756, -0.03167678415775299, -0.0022862362675368786, -0.0012764153070747852, 1.001358985900879, -0.6341816782951355, -0.7051370739936829, 0.06695794314146042, 0.0, 0.0, 0.0, 0, 0, 0, 0, 0, 0, -0.6341816782951355, -0.7051370739936829, 0.06695794314146042
13790, 0.039018359035253525, -0.0709325298666954, -0.017879066988825798, 0.05570607632398605, -0.10514656454324722, -0.009753908030688763, -0.00330305565148592, -0.002907251939177513, 1.001493215560913, -0.6350458860397339, -0.7066496014595032, 0.06714135408401489, 0.0, 0.0, 0.0, 0, 0, 0, 0, 0, 0, -0.6350458860397339, -0.7066496014595032, 0.06714135408401489
13800, 0.039520565420389175, -0.07171837985515594, -0.018078560009598732, 0.08358567208051682, -0.020992660894989967, -0.11400304734706879, -0.0009904541075229645, -0.0011625549523159862, 1.0012718439102173, -0.6359115242958069, -0.7081649899482727, 0.06732618808746338, 0.0, 0.0, 0.0, 0, 0, 0, 0, 0, 0, -0.6359115242958069, -0.7081649899482727, 0.06732618808746338
13810, 0.03959397226572037, -0.07329024374485016, -0.01917903497815132, -0.02308211661875248, -0.006857219617813826, -0.1646605283021927, -0.0019644175190478563, -0.0008160594152286649, 0.9996885061264038, -0.6367779970169067, -0.7096829414367676, 0.06751249730587006, 0.0, 0.0, 0.0, 0, 0, 0, 0, 0, 0, -0.6367779970169067, -0.7096829414367676, 0.06751249730587006
13820, 0.04067648947238922, -0.0725066140294075, -0.019944526255130768, 0.008324339054524899, -0.05399998649954796, 0.002839677967131138, 3.320144605822861e-05, -0.004127560183405876, 0.9998675584793091, -0.6376445889472961, -0.7112027406692505, 0.06769946217536926, 0.0, 0.0, 0.0, 0, 0, 0, 0, 0, 0, -0.6376445889472961, -0.7112027406692505, 0.06769946217536926
13830, 0.041054241359233856, -0.07255557179450989, -0.019229035824537277, -0.030575625598430634, -0.10713774710893631, -0.23113824427127838, -0.00010612756886985153, -0.0007281488506123424, 0.9997149109840393, -0.6385104060173035, -0.7127255797386169, 0.06788627058267593, 0.0, 0.0, 0.0, 0, 0, 0, 0, 0, 0, -0.6385104060173035, -0.7127255797386169, 0.06788627058267593
13840, 0.040807731449604034, -0.0730065405368805, -0.020264534279704094, 0.002083626575767994, 0.035614319145679474, -0.13984118402004242, -0.0005156575352884829, -0.0027757221832871437, 1.0014064311981201, -0.6393749713897705, -0.7142513990402222, 0.06807299703359604, 0.0, 0.0, 0.0, 0, 0, 0, 0, 0, 0, -0.6393749713897705, -0.7142513990402222, 0.06807299703359604
13850, 0.04102655127644539, -0.07358750700950623, -0.020572436973452568, 0.058016639202833176, 0.013055396266281605, 0.2469026744365692, 0.0010890942066907883, -0.0035395980812609196, 1.0013742446899414, -0.6402387022972107, -0.7157798409461975, 0.06826043128967285, 0.0, 0.0, 0.0, 0, 0, 0, 0, 0, 0, -0.6402387022972107, -0.7157798409461975, 0.06826043128967285
13860, 0.04061100631952286, -0.07404860109090805, -0.02008431777358055, 0.02576463297009468, -0.1659650206565857, -0.019378403201699257, 1.149175386672141e-05, -0.002411947352811694, 0.9994239807128906, -0.6411009430885315, -0.7173119187355042, 0.068449005484581, 0.0, 0.0, 0.0, 0, 0, 0, 0, 0, 0, -0.6411009430885315, -0.7173119187355042, 0.068449005484581
13870, 0.04067881032824516, -0.07296139001846313, -0.02100694365799427, -0.07783215492963791, -0.1261785626411438, 0.09388665854930878, -0.0015225375536829233, -0.001567893079482019, 1.0010398626327515, -0.6419615745544434, -0.7188471555709839, 0.06863808631896973, 0.0, 0.0, 0.0, 0, 0, 0, 0, 0, 0, -0.6419615745544434, -0.7188471555709839, 0.06863808631896973
13880, 0.04099384322762489, -0.07216599583625793, -0.019859502092003822, -0.0773472785949707, 0.6050653457641602, 0.028904825448989868, -0.0005094080697745085, -0.001661325222812593, 1.0003920793533325, -0.6428216099739075, -0.7203848361968994, 0.06882776319980621, 0.0, 0.0, 0.0, 0, 0, 0, 0, 0, 0, -0.6428216099739075, -0.7203848361968994, 0.06882776319980621
13890, 0.04066930711269379, -0.07574030011892319, -0.020388899371027946, 0.03156931698322296, 0.0307825468480587, 0.06689255684614182, -0.00131408276502043, -0.0018162018386647105, 1.000388264656067, -0.6436813473701477, -0.7219246625900269, 0.06901807337999344, 0.0, 0.0, 0.0, 0, 0, 0, 0, 0, 0, -0.6436813473701477, -0.7219246625900269, 0.06901807337999344
13900, 0.040812283754348755, -0.07555585354566574, -0.020558785647153854, 0.09191364794969559, -0.10906116664409637, 0.06258836388587952, -0.0018799037206918001, 0.0007282995502464473, 1.0020291805267334, -0.6445406675338745, -0.7234669327735901, 0.06920885294675827, 0.0, 0.0, 0.0, 0, 0, 0, 0, 0, 0, -0.6445406675338745, -0.7234669327735901, 0.06920885294675827
13910, 0.04054173827171326, -0.07416299730539322, -0.020054874941706657, -0.06595190614461899, 0.3486141562461853, 0.08883599191904068, -0.0039388807490468025, 0.0005202891770750284, 1.0020945072174072, -0.6454002857208252, -0.725010335445404, 0.06940111517906189, 0.0, 0.0, 0.0, 0, 0, 0, 0, 0, 0, -0.6454002857208252, -0.725010335445404, 0.06940111517906189
13920, 0.03990956395864487, -0.0765177384018898, -0.019815584644675255, -0.1481814980506897, 0.09178677946329117, 0.029689064249396324, -0.0024332518223673105, -0.0023227427154779434, 1.000374436378479, -0.64626145362854, -0.7265540957450867, 0.06959526240825653, 0.0, 0.0, 0.0, 0, 0, 0, 0, 0, 0, -0.64626145362854, -0.7265540957450867, 0.06959526240825653
13930, 0.03937593847513199, -0.0768764466047287, -0.020225783810019493, 0.0070429216139018536, -0.2885744571685791, -0.03787757456302643, -0.0019276067614555359, -0.0016929397825151682, 1.002102017402649, -0.6471240520477295, -0.7280998229980469, 0.06979073584079742, 0.0, 0.0, 0.0, 0, 0, 0, 0, 0, 0, -0.6471240520477295, -0.7280998229980469, 0.06979073584079742
13940, 0.03998185694217682, -0.07578685879707336, -0.020707959309220314, -0.21639463305473328, -0.08987657725811005, 0.07212524116039276, -0.002136719413101673, -0.0003612276923377067, 1.0008450746536255, -0.6479873061180115, -0.7296480536460876, 0.06998768448829651, 0.0, 0.0, 0.0, 0, 0, 0, 0, 0, 0, -0.6479873061180115, -0.7296480536460876, 0.06998768448829651
13950, 0.038987718522548676, -0.07595718652009964, -0.020162079483270645, -0.07862135767936707, -0.3763864040374756, -0.2103591114282608, -0.0036993222311139107, 0.0005354676977731287, 0.9980730414390564, -0.6488513946533203, -0.7311975955963135, 0.07018548995256424, 0.0, 0.0, 0.0, 0, 0, 0, 0, 0, 0, -0.6488513946533203, -0.7311975955963135, 0.07018548995256424
13960, 0.03867335245013237, -0.07333406060934067, -0.021776670590043068, -0.07879070192575455, -0.05920460447669029, 0.030924564227461815, -0.000896186102181673, -0.0014099571853876114, 1.001265048980713, -0.6497170329093933, -0.7327476739883423, 0.07038256525993347, 0.0, 0.0, 0.0, 0, 0, 0, 0, 0, 0, -0.6497170329093933, -0.7327476739883423, 0.07038256525993347
13970, 0.03851482644677162, -0.07137541472911835, -0.022137727588415146, -0.045562002807855606, -0.24194806814193726, -0.052018530666828156, -0.00024749920703470707, -0.002733794040977955, 0.9998149871826172, -0.6505833864212036, -0.7342990636825562, 0.07057952135801315, 0.0, 0.0, 0.0, 0, 0, 0, 0, 0, 0, -0.6505833864212036, -0.7342990636825562, 0.07057952135801315
13980, 0.03853398561477661, -0.06939344108104706, -0.02207034081220627, 0.2909281253814697, 0.04674970358610153, 0.04953266680240631, -0.0013873811112716794, -0.0032421404030174017, 0.9987960457801819, -0.6514490246772766, -0.735853374004364, 0.07077685743570328, 0.0, 0.0, 0.0, 0, 0, 0, 0, 0, 0, -0.6514490246772766, -0.735853374004364, 0.07077685743570328
13990, 0.04010548070073128, -0.07006152719259262, -0.020537087693810463, -0.07043226808309555, -0.20984630286693573, 0.20146971940994263, -0.001776561955921352, -0.0005843293038196862, 1.0000156164169312, -0.6523142457008362, -0.7374112606048584, 0.0709734708070755, 0.0, 0.0, 0.0, 0, 0, 0, 0, 0, 0, -0.6523142457008362, -0.7374112606048584, 0.0709734708070755
14000, 0.039304643869400024, -0.06776606291532516, -0.02013467811048031, 0.01571025885641575, 0.035785771906375885, -0.04479927942156792, -0.001659713569097221, -0.002191641367971897, 1.0007901191711426, -0.6531797647476196, -0.7389718294143677, 0.07116948813199997, 0.0, 0.0, 0.0, 0, 0, 0, 0, 0, 0, -0.6531797647476196, -0.7389718294143677, 0.07116948813199997
14010, 0.038830120116472244, -0.06638393551111221, -0.019828680902719498, 0.12728539109230042, 0.12509694695472717, -0.1745612919330597, -0.0010062335059046745, -0.002068519126623869, 0.9991615414619446, -0.6540456414222717, -0.7405344843864441, 0.0713658481836319, 0.0, 0.0, 0.0, 0, 0, 0, 0, 0, 0, -0.6540456414222717, -0.7405344843864441, 0.0713658481836319
14020, 0.039254602044820786, -0.06477563828229904, -0.020341413095593452, -0.014151609502732754, 0.1287764012813568, 0.02488168515264988, -0.0019559315405786037, -0.0017636879347264767, 1.0014581680297852, -0.6549116373062134, -0.7420998215675354, 0.07156230509281158, 0.0, 0.0, 0.0, 0, 0, 0, 0, 0, 0, -0.6549116373062134, -0.7420998215675354, 0.07156230509281158
14030, 0.03935433551669121, -0.06531190127134323, -0.01960941217839718, -0.17807810008525848, -0.1357201784849167, -0.11200421303510666, -0.0017105573788285255, -0.0005146434996277094, 1.0013105869293213, -0.6557777523994446, -0.7436675429344177, 0.07175920903682709, 0.0, 0.0, 0.0, 0, 0, 0, 0, 0, 0, -0.6557777523994446, -0.7436675429344177, 0.07175920903682709
14040, 0.03871529549360275, -0.06617595255374908, -0.019837943837046623, -0.10638772696256638, 0.35483601689338684, -0.18623095750808716, -0.0025716095697134733, -0.00022074174194131047, 1.0017361640930176, -0.6566444635391235, -0.7452369928359985, 0.07195749878883362, 0.0, 0.0, 0.0, 0, 0, 0, 0, 0, 0, -0.6566444635391235, -0.7452369928359985, 0.07195749878883362
14050, 0.03809777647256851, -0.06658380478620529, -0.02215488813817501, 0.0029586805030703545, -0.05164873227477074, 0.05508003011345863, -0.0025810387451201677, 4.458184412214905e-05, 1.001046061515808, -0.6575123071670532, -0.7468073964118958, 0.07215726375579834, 0.0, 0.0, 0.0, 0, 0, 0, 0, 0, 0, -0.6575123071670532, -0.7468073964118958, 0.07215726375579834
14060, 0.03803841024637222, -0.06522401422262192, -0.022625932469964027, -0.04201998934149742, -0.11966978758573532, 0.22895555198192596, -0.002888657385483384, -0.00019354694813955575, 1.0008140802383423, -0.6583817005157471, -0.7483786344528198, 0.07235828787088394, 0.0, 0.0, 0.0, 0, 0, 0, 0, 0, 0, -0.6583817005157471, -0.7483786344528198, 0.07235828787088394
14070, 0.038459181785583496, -0.06518971174955368, -0.021048059687018394, 0.04959814250469208, -0.18200382590293884, -0.12017935514450073, -0.001506687025539577, -0.0004657687386497855, 0.9988699555397034, -0.6592525839805603, -0.7499505877494812, 0.07255996018648148, 0.0, 0.0, 0.0, 0, 0, 0, 0, 0, 0, -0.6592525839805603, -0.7499505877494812, 0.07255996018648148
