timeTick, roll, pitch, yaw, gyroX, gyroY, gyroZ, accX, accY, accZ, stateX, stateY, stateZ, target_x, target_y, target_z, otX, otY, otZ, otRoll, otPitch, otYaw, kalX, kalY, kalZ
12388, 0.008822707459330559, -0.03434087708592415, 0.0005188692593947053, 0, 0, 0, 0, 0, 0, 0, 0, 0, 0, 0, 0, 0, 0, 0, 0, 0, 0, 0, 0, 0
12398, 0.009362637996673584, -0.03528555482625961, 0.0020135671366006136, 0.09017129987478256, 0.19031000137329102, 0.29884713888168335, -0.001040239236317575, -0.0016774539835751057, 1.0002347230911255, -0.6327986717224121, -1.1176750659942627, -0.3655061721801758, 0.0, 0.0, 0.0, 0, 0, 0, 0, 0, 0, -0.6341185569763184, -1.1200637817382812, -0.36630183458328247
12408, 0.009067689999938011, -0.03319341316819191, 0.0008288928074762225, -0.032075658440589905, -0.40210339426994324, -0.24622385203838348, -0.0010300135472789407, -0.002927181776612997, 1.0007271766662598, -0.6341185569763184, -1.1200637817382812, -0.36630183458328247, 0.0, 0.0, 0.0, 0, 0, 0, 0, 0, 0, -0.635439395904541, -1.1224545240402222, -0.36709699034690857
12418, 0.009559323079884052, -0.03394492343068123, 0.0007363886688835919, 0.08315359801054001, 0.02456248737871647, 0.06291885673999786, -0.00110812287312001, -0.0023725591599941254, 0.9981017112731934, -0.635439395904541, -1.1224545240402222, -0.36709699034690857, 0.0, 0.0, 0.0, 0, 0, 0, 0, 0, 0, -0.6367604732513428, -1.1248478889465332, -0.3678925037384033
12428, 0.010309932753443718, -0.03449927642941475, -0.00017489460879005492, 0.06315107643604279, -0.09461104869842529, -0.28528255224227905, -0.0014371767174452543, -0.0019347609486430883, 0.9972615838050842, -0.6367604732513428, -1.1248478889465332, -0.3678925037384033, 0.0, 0.0, 0.0, 0, 0, 0, 0, 0, 0, -0.6380820870399475, -1.1272438764572144, -0.36869001388549805
12438, 0.009485673159360886, -0.03505600243806839, 0.0003768289170693606, -0.11128288507461548, -0.025321125984191895, 0.05540337786078453, -0.0016644144197925925, -0.0009956888388842344, 1.0004589557647705, -0.6380820870399475, -1.1272438764572144, -0.36869001388549805, 0.0, 0.0, 0.0, 0, 0, 0, 0, 0, 0, -0.6394046545028687, -1.1296415328979492, -0.3694893717765808
12448, 0.008892924524843693, -0.036455266177654266, 0.0009022016893140972, -0.037175893783569336, 0.18245071172714233, 0.19891224801540375, -0.0016583800315856934, -0.0021217591129243374, 1.000394582748413, -0.6394046545028687, -1.1296415328979492, -0.3694893717765808, 0.0, 0.0, 0.0, 0, 0, 0, 0, 0, 0, -0.6407282948493958, -1.1320406198501587, -0.37028878927230835
12458, 0.008363458327949047, -0.03655807301402092, 0.0019615020137280226, -0.04597436636686325, 0.04916192591190338, 0.058446671813726425, -0.0003621199575718492, -0.0022381097078323364, 0.9996710419654846, -0.6407282948493958, -1.1320406198501587, -0.37028878927230835, 0.0, 0.0, 0.0, 0, 0, 0, 0, 0, 0, -0.6420524716377258, -1.134441614151001, -0.37108808755874634
12468, 0.008779979310929775, -0.03843848407268524, 0.001970607088878751, 0.0648905411362648, 0.18774811923503876, -0.08137855678796768, -0.0031455138232558966, -0.001982714282348752, 0.9995538592338562, -0.6420524716377258, -1.134441614151001, -0.37108808755874634, 0.0, 0.0, 0.0, 0, 0, 0, 0, 0, 0, -0.6433774828910828, -1.1368449926376343, -0.37188783288002014
12478, 0.00890691950917244, -0.03792472183704376, 0.000478616013424471, 0.0888635441660881, -0.01407366432249546, -0.28894099593162537, -0.001727112801745534, -0.0017032329924404621, 0.9996656775474548, -0.6433774828910828, -1.1368449926376343, -0.37188783288002014, 0.0, 0.0, 0.0, 0, 0, 0, 0, 0, 0, -0.6447042226791382, -1.1392502784729004, -0.3726876378059387
12488, 0.009180751629173756, -0.03870997205376625, -0.0001806587679311633, 0.009098680689930916, -0.0070214285515248775, 0.00830334797501564, -0.0009341760305687785, -0.0017969434848055243, 0.9982342720031738, -0.6447042226791382, -1.1392502784729004, -0.3726876378059387, 0.0, 0.0, 0.0, 0, 0, 0, 0, 0, 0, -0.6460320949554443, -1.1416577100753784, -0.37348783016204834
12498, 0.008973091840744019, -0.039217475801706314, 0.0001736223784973845, 0.05052212253212929, -0.07334702461957932, 0.0033185146749019623, -0.0029254420660436153, -0.002597379731014371, 0.9975196719169617, -0.6460320949554443, -1.1416577100753784, -0.37348783016204834, 0.0, 0.0, 0.0, 0, 0, 0, 0, 0, 0, -0.6473607420921326, -1.144067406654358, -0.37428975105285645
12508, 0.008673661388456821, -0.037783145904541016, 0.0006914653931744397, 0.008291328325867653, -0.11450083553791046, 0.1942128837108612, -0.002652332652360201, -0.0028795360121876, 0.9991172552108765, -0.6473607420921326, -1.144067406654358, -0.37428975105285645, 0.0, 0.0, 0.0, 0, 0, 0, 0, 0, 0, -0.648690938949585, -1.1464794874191284, -0.3750936686992645
12518, 0.009857630357146263, -0.039881397038698196, 0.0022978615015745163, 0.21968290209770203, 0.217275008559227, 0.2379797101020813, -0.000968705746345222, -0.005636407062411308, 0.9984957575798035, -0.648690938949585, -1.1464794874191284, -0.3750936686992645, 0.0, 0.0, 0.0, 0, 0, 0, 0, 0, 0, -0.6500231027603149, -1.148895502090454, -0.3758991062641144
12528, 0.009895842522382736, -0.04247050732374191, 0.002655109390616417, 0.015056098811328411, 0.13991740345954895, -0.09640925377607346, -0.001151214586570859, -0.006809299346059561, 0.9977095127105713, -0.6500231027603149, -1.148895502090454, -0.3758991062641144, 0.0, 0.0, 0.0, 0, 0, 0, 0, 0, 0, -0.6513558030128479, -1.1513172388076782, -0.3767060935497284
12538, 0.010484136641025543, -0.043122269213199615, 0.00250354316085577, 0.1513444036245346, -0.03732918202877045, 0.07786889374256134, -0.0026953720953315496, -0.003644720884039998, 0.9998525977134705, -0.6513558030128479, -1.1513172388076782, -0.3767060935497284, 0.0, 0.0, 0.0, 0, 0, 0, 0, 0, 0, -0.6526892185211182, -1.1537445783615112, -0.37751448154449463
12548, 0.01047277357429266, -0.04455193132162094, 0.0023592556826770306, 0.05687412619590759, 0.18555207550525665, 0.00507764145731926, -0.0039580403827130795, -0.004398368764668703, 0.9996572136878967, -0.6526892185211182, -1.1537445783615112, -0.37751448154449463, 0.0, 0.0, 0.0, 0, 0, 0, 0, 0, 0, -0.6540248394012451, -1.1561764478683472, -0.378323495388031
12558, 0.009295470081269741, -0.043968044221401215, 0.00263775116764009, -0.213997945189476, -0.04472293332219124, 0.0575547069311142, -0.0016703603323549032, -0.004421823192387819, 0.9990179538726807, -0.6540248394012451, -1.1561764478683472, -0.378323495388031, 0.0, 0.0, 0.0, 0, 0, 0, 0, 0, 0, -0.6553627252578735, -1.1586127281188965, -0.37913280725479126
12568, 0.009069995954632759, -0.04541327804327011, 0.0032233207020908594, -0.1333022117614746, 0.1527692824602127, 0.07855674624443054, -0.0014651217497885227, -0.0028761315625160933, 0.998603343963623, -0.6553627252578735, -1.1586127281188965, -0.37913280725479126, 0.0, 0.0, 0.0, 0, 0, 0, 0, 0, 0, -0.6567018628120422, -1.1610528230667114, -0.379942923784256
12578, 0.009106363169848919, -0.048258133232593536, 0.003117543878033757, 0.07626444101333618, 0.20768937468528748, -0.06985160708427429, -0.001550937769934535, -0.005805931519716978, 0.9983320832252502, -0.6567018628120422, -1.1610528230667114, -0.379942923784256, 0.0, 0.0, 0.0, 0, 0, 0, 0, 0, 0, -0.65804123878479, -1.1634972095489502, -0.38075435161590576
12588, 0.009188670665025711, -0.0487254373729229, 0.003359477035701275, -0.04000788554549217, 0.0407516285777092, -0.027739467099308968, -0.0012872455408796668, -0.002616218291223049, 0.9995951652526855, -0.65804123878479, -1.1634972095489502, -0.38075435161590576, 0.0, 0.0, 0.0, 0, 0, 0, 0, 0, 0, -0.6593810319900513, -1.165946125984192, -0.38156670331954956
12598, 0.010352373123168945, -0.047535642981529236, 0.004737749230116606, 0.05402557924389839, -0.38253673911094666, 0.20690742135047913, -0.0009499184670858085, -0.002120177261531353, 0.9983791708946228, -0.6593810319900513, -1.165946125984192, -0.38156670331954956, 0.0, 0.0, 0.0, 0, 0, 0, 0, 0, 0, -0.6607212424278259, -1.168398141860962, -0.3823798596858978
12608, 0.011150242760777473, -0.04657052829861641, 0.00413305452093482, 0.02400611713528633, 0.026627009734511375, -0.25696447491645813, -0.0029635364189743996, -0.0024341947864741087, 0.998734712600708, -0.6607212424278259, -1.168398141860962, -0.3823798596858978, 0.0, 0.0, 0.0, 0, 0, 0, 0, 0, 0, -0.6620622873306274, -1.1708528995513916, -0.383194237947464
12618, 0.012467281892895699, -0.04461484029889107, 0.0037413123063743114, 0.08832810074090958, -0.1231125071644783, -0.20101353526115417, -2.8805075999116525e-05, -0.0018778396770358086, 0.9992467761039734, -0.6620622873306274, -1.1708528995513916, -0.383194237947464, 0.0, 0.0, 0.0, 0, 0, 0, 0, 0, 0, -0.6634044051170349, -1.1733098030090332, -0.3840101659297943
12628, 0.012726978398859501, -0.046354930847883224, 0.0040734861977398396, 0.04172977805137634, 0.28227493166923523, 0.05357920005917549, 0.001331658335402608, -0.0028885791543871164, 0.9987141489982605, -0.6634044051170349, -1.1733098030090332, -0.3840101659297943, 0.0, 0.0, 0.0, 0, 0, 0, 0, 0, 0, -0.6647456884384155, -1.1757690906524658, -0.38482722640037537
12638, 0.012239801697432995, -0.04545185714960098, 0.004929326009005308, 0.06264568865299225, -0.002652447670698166, 0.1985335350036621, -0.001943076029419899, -0.001439308631233871, 0.998366117477417, -0.6647456884384155, -1.1757690906524658, -0.38482722640037537, 0.0, 0.0, 0.0, 0, 0, 0, 0, 0, 0, -0.6660858392715454, -1.178230881690979, -0.38564518094062805
12648, 0.012586993165314198, -0.045412078499794006, 0.0036009890027344227, 0.09135641157627106, 0.008592618629336357, -0.30219051241874695, -0.003011655528098345, -0.0015808079624548554, 0.999199628829956, -0.6660858392715454, -1.178230881690979, -0.38564518094062805, 0.0, 0.0, 0.0, 0, 0, 0, 0, 0, 0, -0.6674268841743469, -1.1806946992874146, -0.386464387178421
12658, 0.011995845474302769, -0.04526495933532715, 0.0030809887684881687, -0.10026879608631134, 0.042183708399534225, -0.16947069764137268, -0.0006745063583366573, -0.002383313374593854, 0.9983999133110046, -0.6674268841743469, -1.1806946992874146, -0.386464387178421, 0.0, 0.0, 0.0, 0, 0, 0, 0, 0, 0, -0.6687692999839783, -1.183160662651062, -0.3872844874858856
12668, 0.012824290432035923, -0.04831203818321228, 0.0035427953116595745, 0.042686231434345245, 0.3813089430332184, 0.0771029070019722, -0.0027840682305395603, -0.0021123909391462803, 0.9966667890548706, -0.6687692999839783, -1.183160662651062, -0.3872844874858856, 0.0, 0.0, 0.0, 0, 0, 0, 0, 0, 0, -0.6701126098632812, -1.185628890991211, -0.3881062865257263
12678, 0.012380916625261307, -0.048942264169454575, 0.0025979287456721067, -0.0647117868065834, 0.3092052638530731, -0.09264802187681198, -0.0027753536123782396, -0.003121808171272278, 0.9973146319389343, -0.6701126098632812, -1.185628890991211, -0.3881062865257263, 0.0, 0.0, 0.0, 0, 0, 0, 0, 0, 0, -0.6714575886726379, -1.1880996227264404, -0.38893070816993713
12688, 0.011653423309326172, -0.04859807714819908, 0.0015827777097001672, -0.12290805578231812, -0.12675775587558746, -0.12250954657793045, -0.0007178567466326058, -0.0026681991294026375, 0.9984402060508728, -0.6714575886726379, -1.1880996227264404, -0.38893070816993713, 0.0, 0.0, 0.0, 0, 0, 0, 0, 0, 0, -0.6728039383888245, -1.1905732154846191, -0.38975760340690613
12698, 0.012369741685688496, -0.04732467979192734, 0.002155135152861476, 0.09542548656463623, -0.14474621415138245, 0.1047898456454277, -0.0025497584138065577, -0.0009219411876983941, 0.9980107545852661, -0.6728039383888245, -1.1905732154846191, -0.38975760340690613, 0.0, 0.0, 0.0, 0, 0, 0, 0, 0, 0, -0.6741508841514587, -1.193049430847168, -0.3905864953994751
12708, 0.011938859708607197, -0.04599972814321518, 0.002414649585261941, -0.17904962599277496, -0.053257185965776443, -0.002802667673677206, -0.003337510861456394, -0.0019012376433238387, 0.998005211353302, -0.6741508841514587, -1.193049430847168, -0.3905864953994751, 0.0, 0.0, 0.0, 0, 0, 0, 0, 0, 0, -0.6754993796348572, -1.19552743434906, -0.3914170563220978
12718, 0.012235567905008793, -0.04469193145632744, 0.002145557664334774, -0.045399487018585205, -0.1718599796295166, -0.0331546887755394, -0.0024949670769274235, -0.0028273204807192087, 0.9993285536766052, -0.6754993796348572, -1.19552743434906, -0.3914170563220978, 0.0, 0.0, 0.0, 0, 0, 0, 0, 0, 0, -0.6768501400947571, -1.1980077028274536, -0.392249196767807
12728, 0.013465256430208683, -0.04467614367604256, 0.003966981545090675, 0.15656526386737823, 0.14603197574615479, 0.32441726326942444, -0.001135614700615406, -0.004832336213439703, 0.9998536109924316, -0.6768501400947571, -1.1980077028274536, -0.392249196767807, 0.0, 0.0, 0.0, 0, 0, 0, 0, 0, 0, -0.6782019734382629, -1.2004916667938232, -0.39308205246925354
12738, 0.013281024061143398, -0.045351624488830566, 0.0035053237807005644, -0.018496889621019363, 0.0735783576965332, -0.08185234665870667, -0.00020608981139957905, -0.005866559222340584, 0.9991570711135864, -0.6782019734382629, -1.2004916667938232, -0.39308205246925354, 0.0, 0.0, 0.0, 0, 0, 0, 0, 0, 0, -0.6795539259910583, -1.2029802799224854, -0.3939152657985687
12748, 0.012802431359887123, -0.04526003822684288, 0.003915156703442335, -0.08284442126750946, -0.11758656799793243, 0.08788913488388062, -0.0010832051048055291, -0.005023188889026642, 0.9971224665641785, -0.6795539259910583, -1.2029802799224854, -0.3939152657985687, 0.0, 0.0, 0.0, 0, 0, 0, 0, 0, 0, -0.6809056997299194, -1.2054744958877563, -0.3947499394416809
12758, 0.013142263516783714, -0.04518229514360428, 0.004992086440324783, -0.015079887583851814, 0.10999417304992676, 0.05281775817275047, -0.004207819700241089, -0.0022851196117699146, 0.9994301199913025, -0.6809056997299194, -1.2054744958877563, -0.3947499394416809, 0.0, 0.0, 0.0, 0, 0, 0, 0, 0, 0, -0.682258129119873, -1.2079730033874512, -0.3955864906311035
12768, 0.013627844862639904, -0.044214531779289246, 0.005247003864496946, 0.13835032284259796, -0.12399701774120331, 0.1369817554950714, -0.003857098752632737, -0.00301248487085104, 0.9990644454956055, -0.682258129119873, -1.2079730033874512, -0.3955864906311035, 0.0, 0.0, 0.0, 0, 0, 0, 0, 0, 0, -0.6836133599281311, -1.2104744911193848, -0.3964243233203888
12778, 0.013927942141890526, -0.04336683452129364, 0.004220788367092609, 0.10860597342252731, -0.17132385075092316, -0.10943286865949631, -0.0023171950597316027, -0.0019168732687830925, 0.9965264797210693, -0.6836133599281311, -1.2104744911193848, -0.3964243233203888, 0.0, 0.0, 0.0, 0, 0, 0, 0, 0, 0, -0.6849713921546936, -1.212978720664978, -0.3972640037536621
12788, 0.013307485729455948, -0.043749723583459854, 0.0038724318146705627, -0.14043152332305908, -0.01511942408978939, 0.004944966174662113, -0.004077016841620207, -0.0013165830168873072, 0.9989941120147705, -0.6849713921546936, -1.212978720664978, -0.3972640037536621, 0.0, 0.0, 0.0, 0, 0, 0, 0, 0, 0, -0.6863317489624023, -1.2154850959777832, -0.3981058895587921
12798, 0.014344727620482445, -0.04413072392344475, 0.003404678078368306, 0.18829119205474854, 0.10430259257555008, -0.05520700663328171, -0.003648484591394663, -0.0015648137778043747, 0.9995314478874207, -0.6863317489624023, -1.2154850959777832, -0.3981058895587921, 0.0, 0.0, 0.0, 0, 0, 0, 0, 0, 0, -0.687694787979126, -1.2179933786392212, -0.3989490568637848
12808, 0.014031202532351017, -0.04183829203248024, 0.003269565524533391, 0.07542430609464645, -0.14246444404125214, -0.006103662773966789, -0.0026896679773926735, -0.003055353881791234, 1.0005664825439453, -0.687694787979126, -1.2179933786392212, -0.3989490568637848, 0.0, 0.0, 0.0, 0, 0, 0, 0, 0, 0, -0.6890602111816406, -1.2205039262771606, -0.3997924327850342
12818, 0.014429867267608643, -0.04010343551635742, 0.0031125464010983706, 0.07972443103790283, -0.18076372146606445, 0.08543326705694199, -0.0018574370769783854, -0.0031371202785521746, 1.00033438205719, -0.6890602111816406, -1.2205039262771606, -0.3997924327850342, 0.0, 0.0, 0.0, 0, 0, 0, 0, 0, 0, -0.6904275417327881, -1.2230173349380493, -0.40063557028770447
12828, 0.013986412435770035, -0.040345918387174606, 0.003658403642475605, 0.01033882424235344, 0.07225267589092255, 0.10107225179672241, -0.002634625416249037, -0.005064581520855427, 0.996955931186676, -0.6904275417327881, -1.2230173349380493, -0.40063557028770447, 0.0, 0.0, 0.0, 0, 0, 0, 0, 0, 0, -0.691796064376831, -1.2255347967147827, -0.4014793336391449
12838, 0.013336790725588799, -0.037988319993019104, 0.0037074615247547626, -0.02472434937953949, -0.34301289916038513, 0.04830781742930412, -0.002038262551650405, -0.004192183259874582, 0.9988656044006348, -0.691796064376831, -1.2255347967147827, -0.4014793336391449, 0.0, 0.0, 0.0, 0, 0, 0, 0, 0, 0, -0.693166196346283, -1.2280570268630981, -0.4023247957229614
12848, 0.012828221544623375, -0.03936389833688736, 0.002604525536298752, -0.11808281391859055, 0.23683986067771912, -0.08559316396713257, -0.0012922798050567508, -0.004252245184034109, 0.9980536103248596, -0.693166196346283, -1.2280570268630981, -0.4023247957229614, 0.0, 0.0, 0.0, 0, 0, 0, 0, 0, 0, -0.6945375800132751, -1.230583906173706, -0.40317192673683167
12858, 0.01244117971509695, -0.03983495384454727, 0.0021986423525959253, -0.053503409028053284, 0.12329718470573425, -0.04892527312040329, 0.00011144965537823737, -0.003685108618810773, 0.9997400045394897, -0.6945375800132751, -1.230583906173706, -0.40317192673683167, 0.0, 0.0, 0.0, 0, 0, 0, 0, 0, 0, -0.6959090828895569, -1.2331148386001587, -0.4040203392505646
12868, 0.012218971736729145, -0.039526887238025665, 0.002076829317957163, 0.008885174989700317, -0.07341647148132324, 0.11964516341686249, -0.0020245464984327555, -0.0021459285635501146, 1.0002689361572266, -0.6959090828895569, -1.2331148386001587, -0.4040203392505646, 0.0, 0.0, 0.0, 0, 0, 0, 0, 0, 0, -0.6972807049751282, -1.2356488704681396, -0.40486931800842285
12878, 0.011372437700629234, -0.04101027920842171, 0.0014487418811768293, -0.1198083758354187, 0.03419460728764534, -0.06953826546669006, -0.003997940570116043, -0.0031105417292565107, 0.9995244741439819, -0.6972807049751282, -1.2356488704681396, -0.40486931800842285, 0.0, 0.0, 0.0, 0, 0, 0, 0, 0, 0, -0.6986535787582397, -1.2381856441497803, -0.4057183563709259
12888, 0.012484257109463215, -0.04252419248223305, 0.002868202282115817, 0.01737309619784355, 0.19492842257022858, 0.0984213650226593, -0.004220903385430574, -0.0030829806346446276, 1.0001332759857178, -0.6986535787582397, -1.2381856441497803, -0.4057183563709259, 0.0, 0.0, 0.0, 0, 0, 0, 0, 0, 0, -0.7000294327735901, -1.2407255172729492, -0.40656763315200806
12898, 0.012085760943591595, -0.04280988499522209, 0.001867929706349969, -0.03855913132429123, -0.016849404200911522, -0.08010701835155487, -0.0029827330727130175, -0.0028474179562181234, 0.9999338388442993, -0.7000294327735901, -1.2407255172729492, -0.40656763315200806, 0.0, 0.0, 0.0, 0, 0, 0, 0, 0, 0, -0.7014082670211792, -1.2432684898376465, -0.40741705894470215
12908, 0.010460050776600838, -0.042992472648620605, 0.002722469624131918, -0.09891626983880997, 0.06530561298131943, 0.13257606327533722, -0.0003351788327563554, -0.0027370541356503963, 0.9980822801589966, -0.7014082670211792, -1.2432684898376465, -0.40741705894470215, 0.0, 0.0, 0.0, 0, 0, 0, 0, 0, 0, -0.7027886509895325, -1.245814561843872, -0.4082668721675873
12918, 0.01063508354127407, -0.04426288232207298, 0.00238731037825346, 0.032467614859342575, 0.2286253422498703, 0.05471157655119896, -0.00010758320422610268, -0.002644204068928957, 0.9989630579948425, -0.7027886509895325, -1.245814561843872, -0.4082668721675873, 0.0, 0.0, 0.0, 0, 0, 0, 0, 0, 0, -0.704168975353241, -1.248363733291626, -0.4091181755065918
12928, 0.011417237110435963, -0.04409325495362282, 0.0012646297691389918, 0.20163552463054657, -0.0258815735578537, -0.15666767954826355, -0.00018301678937859833, -0.0012993108248338103, 0.9998055100440979, -0.704168975353241, -1.248363733291626, -0.4091181755065918, 0.0, 0.0, 0.0, 0, 0, 0, 0, 0, 0, -0.7055484056472778, -1.2509151697158813, -0.409970760345459
12938, 0.010926056653261185, -0.04446021467447281, -0.00019497182802297175, -0.13688015937805176, 0.07574756443500519, -0.1586424857378006, -0.000899723672773689, -0.003412980120629072, 0.9989984631538391, -0.7055484056472778, -1.2509151697158813, -0.409970760345459, 0.0, 0.0, 0.0, 0, 0, 0, 0, 0, 0, -0.7069274187088013, -1.2534687519073486, -0.41082388162612915
12948, 0.011295156553387642, -0.04368538409471512, -0.0007484657689929008, 0.12305046617984772, -0.13606242835521698, 0.0586477667093277, -0.0019631364848464727, -0.0035893931053578854, 0.9976341724395752, -0.7069274187088013, -1.2534687519073486, -0.41082388162612915, 0.0, 0.0, 0.0, 0, 0, 0, 0, 0, 0, -0.7083067893981934, -1.256025791168213, -0.4116782546043396
12958, 0.010981801897287369, -0.044428903609514236, -0.0008707380038686097, -0.0838448628783226, 0.14841704070568085, -0.0922028124332428, 9.32369293877855e-05, -0.0032934187911450863, 0.9979061484336853, -0.7083067893981934, -1.256025791168213, -0.4116782546043396, 0.0, 0.0, 0.0, 0, 0, 0, 0, 0, 0, -0.7096863985061646, -1.2585865259170532, -0.4125345051288605
12968, 0.011999585665762424, -0.044972650706768036, -0.0012774037895724177, -0.08039123564958572, 0.22497887909412384, -0.09908384084701538, -0.0023034093901515007, -0.0032795120496302843, 1.0014511346817017, -0.7096863985061646, -1.2585865259170532, -0.4125345051288605, 0.0, 0.0, 0.0, 0, 0, 0, 0, 0, 0, -0.7110663056373596, -1.2611504793167114, -0.413391649723053
12978, 0.010700101964175701, -0.044171642512083054, -0.0011434272164478898, -0.3227517306804657, -0.07141004502773285, -0.13546504080295563, -0.0045510814525187016, -0.0029884022660553455, 1.0015501976013184, -0.7110663056373596, -1.2611504793167114, -0.413391649723053, 0.0, 0.0, 0.0, 0, 0, 0, 0, 0, 0, -0.7124481201171875, -1.263717770576477, -0.4142477214336395
12988, 0.010784197598695755, -0.04155004769563675, -0.0009328987798653543, -0.012347251176834106, -0.2951572835445404, 0.19838885962963104, -0.0027738038916140795, -0.0033939313143491745, 1.0003266334533691, -0.7124481201171875, -1.263717770576477, -0.4142477214336395, 0.0, 0.0, 0.0, 0, 0, 0, 0, 0, 0, -0.7138328552246094, -1.266288161277771, -0.41510236263275146
12998, 0.010878460481762886, -0.042592473328113556, -0.001373437698930502, -0.15553870797157288, 0.037774667143821716, -0.1780795156955719, -0.0017073842464014888, -0.004174957517534494, 1.0007168054580688, -0.7138328552246094, -1.266288161277771, -0.41510236263275146, 0.0, 0.0, 0.0, 0, 0, 0, 0, 0, 0, -0.7152197360992432, -1.2688621282577515, -0.4159563183784485
13008, 0.011002994142472744, -0.043223217129707336, -0.0006825499585829675, 0.035867840051651, -0.06144019216299057, 0.28859207034111023, 0.0020950993057340384, -0.002923500258475542, 0.9990621209144592, -0.7152197360992432, -1.2688621282577515, -0.4159563183784485, 0.0, 0.0, 0.0, 0, 0, 0, 0, 0, 0, -0.716606616973877, -1.2714396715164185, -0.4168100357055664
13018, 0.010740338824689388, -0.04383288323879242, -0.0018418357940390706, -0.05833110585808754, 0.15099214017391205, -0.1997520476579666, -0.0014484088169410825, -0.00045644480269402266, 0.9995903372764587, -0.716606616973877, -1.2714396715164185, -0.4168100357055664, 0.0, 0.0, 0.0, 0, 0, 0, 0, 0, 0, -0.7179921269416809, -1.2740198373794556, -0.4176643490791321
13028, 0.010784093290567398, -0.04383503273129463, -0.0019156949128955603, -0.004735514055937529, 0.03905794024467468, -0.06489229202270508, -0.0011268920497968793, -0.0009351797052659094, 0.9987968802452087, -0.7179921269416809, -1.2740198373794556, -0.4176643490791321, 0.0, 0.0, 0.0, 0, 0, 0, 0, 0, 0, -0.7193775177001953, -1.2766011953353882, -0.4185193181037903
13038, 0.01071246899664402, -0.0417027622461319, -0.0013777476269751787, -0.09805728495121002, -0.19517531991004944, -0.044478099793195724, -0.0015502369496971369, -0.00484088622033596, 1.000069499015808, -0.7193775177001953, -1.2766011953353882, -0.4185193181037903, 0.0, 0.0, 0.0, 0, 0, 0, 0, 0, 0, -0.7207636833190918, -1.2791844606399536, -0.41937461495399475
13048, 0.012383070774376392, -0.041779592633247375, -0.0024597204755991697, 0.0980783998966217, -0.2793080806732178, -0.11047179251909256, -0.0021188051905483007, -0.003159573068842292, 0.9984509348869324, -0.7207636833190918, -1.2791844606399536, -0.41937461495399475, 0.0, 0.0, 0.0, 0, 0, 0, 0, 0, 0, -0.7221506834030151, -1.2817717790603638, -0.4202306270599365
13058, 0.011557869613170624, -0.0424678698182106, -0.0031589223071932793, 0.12928739190101624, 0.10642680525779724, 0.03971673548221588, -0.0008203935576602817, -0.001282531302422285, 0.9988846182823181, -0.7221506834030151, -1.2817717790603638, -0.4202306270599365, 0.0, 0.0, 0.0, 0, 0, 0, 0, 0, 0, -0.7235385775566101, -1.2843621969223022, -0.42108777165412903
13068, 0.012611244805157185, -0.0411587730050087, -0.004030168522149324, 0.08459202945232391, -0.5977545380592346, -0.17690418660640717, -0.002103363163769245, -0.0021435029339045286, 0.9999203085899353, -0.7235385775566101, -1.2843621969223022, -0.42108777165412903, 0.0, 0.0, 0.0, 0, 0, 0, 0, 0, 0, -0.7249271869659424, -1.2869542837142944, -0.4219458997249603
13078, 0.013141666539013386, -0.04085516929626465, -0.003345504868775606, 0.027980441227555275, 0.16392481327056885, 0.004500867333263159, -0.000936936296056956, -0.004264286253601313, 0.9995042085647583, -0.7249271869659424, -1.2869542837142944, -0.4219458997249603, 0.0, 0.0, 0.0, 0, 0, 0, 0, 0, 0, -0.7263163924217224, -1.2895489931106567, -0.42280444502830505
13088, 0.013280453160405159, -0.03964675962924957, -0.0031395407859236, -0.09433351457118988, -0.10180827975273132, -0.17270438373088837, -0.0004769383813254535, -0.0018390088807791471, 1.0001683235168457, -0.7263163924217224, -1.2895489931106567, -0.42280444502830505, 0.0, 0.0, 0.0, 0, 0, 0, 0, 0, 0, -0.7277058362960815, -1.292146921157837, -0.42366287112236023
13098, 0.013520182110369205, -0.04006614163517952, -0.0022670032922178507, 0.11627592146396637, 0.1990606039762497, 0.04960080236196518, -0.0027208710089325905, -0.0038953344337642193, 0.9996076822280884, -0.7277058362960815, -1.292146921157837, -0.42366287112236023, 0.0, 0.0, 0.0, 0, 0, 0, 0, 0, 0, -0.7290958762168884, -1.294748067855835, -0.42452141642570496
13108, 0.01314539834856987, -0.04012542590498924, -0.0029794590082019567, 0.0773329958319664, 0.021291030570864677, 0.13707312941551208, -0.003368346020579338, -0.004171574022620916, 0.9987007975578308, -0.7290958762168884, -1.294748067855835, -0.42452141642570496, 0.0, 0.0, 0.0, 0, 0, 0, 0, 0, 0, -0.7304877638816833, -1.2973530292510986, -0.4253805875778198
13118, 0.012682486325502396, -0.04130646213889122, -0.002595385303720832, -0.0917506143450737, 0.2536831200122833, 0.1383935660123825, -0.0030395498033612967, -0.0035826624371111393, 0.9998406767845154, -0.7304877638816833, -1.2973530292510986, -0.4253805875778198, 0.0, 0.0, 0.0, 0, 0, 0, 0, 0, 0, -0.7318823337554932, -1.2999619245529175, -0.4262406527996063
13128, 0.012786590494215488, -0.044577229768037796, -0.002550893696025014, -0.08731947094202042, 0.4945281445980072, 0.24414288997650146, -0.0009955157293006778, -0.0038374196738004684, 0.999363899230957, -0.7318823337554932, -1.2999619245529175, -0.4262406527996063, 0.0, 0.0, 0.0, 0, 0, 0, 0, 0, 0, -0.7334180474281311, -1.3028361797332764, -0.42718738317489624
13138, 0.0128072714433074, -0.04542342573404312, -0.0031412483658641577, 0.05120161175727844, 0.05091559886932373, -0.07914939522743225, -0.002578701823949814, -0.002680814126506448, 0.9998357892036438, -0.7334180474281311, -1.3028361797332764, -0.42718738317489624, 0.0, 0.0, 0.0, 0, 0, 0, 0, 0, 0, -0.7348149418830872, -1.3054530620574951, -0.4280482828617096
13148, 0.012279769405722618, -0.04700509086251259, -0.003984743729233742, -0.021889256313443184, 0.14424581825733185, -0.06033383309841156, -0.001724508823826909, -0.004046515095978975, 0.9989427924156189, -0.7348149418830872, -1.3054530620574951, -0.4280482828617096, 0.0, 0.0, 0.0, 0, 0, 0, 0, 0, 0, -0.7362128496170044, -1.3080732822418213, -0.4289099872112274
13158, 0.012420197948813438, -0.04624883085489273, -0.0051751332357525826, -0.05908261239528656, -0.14536789059638977, -0.10056693106889725, 0.0009752098703756928, -0.0035827141255140305, 1.0014593601226807, -0.7362128496170044, -1.3080732822418213, -0.4289099872112274, 0.0, 0.0, 0.0, 0, 0, 0, 0, 0, 0, -0.7376106381416321, -1.3106974363327026, -0.42977166175842285
13168, 0.013852793723344803, -0.046130478382110596, -0.0050593093037605286, 0.06522735953330994, 0.0197014007717371, 0.07105577737092972, 0.0009205836686305702, -0.002034949604421854, 1.000670313835144, -0.7376106381416321, -1.3106974363327026, -0.42977166175842285, 0.0, 0.0, 0.0, 0, 0, 0, 0, 0, 0, -0.7390070557594299, -1.3133248090744019, -0.43063247203826904
13178, 0.01332691591233015, -0.046206772327423096, -0.004954185802489519, -0.21007578074932098, 0.0205219816416502, 0.016047431156039238, -0.0010814981069415808, -0.0037802669685333967, 1.0005300045013428, -0.7390070557594299, -1.3133248090744019, -0.43063247203826904, 0.0, 0.0, 0.0, 0, 0, 0, 0, 0, 0, -0.740402340888977, -1.3159552812576294, -0.43149247765541077
13188, 0.013585694134235382, -0.04434867575764656, -0.004677708260715008, -0.06790117174386978, -0.23398202657699585, 0.05154775083065033, -0.0023914086632430553, -0.0013173448387533426, 1.001879334449768, -0.740402340888977, -1.3159552812576294, -0.43149247765541077, 0.0, 0.0, 0.0, 0, 0, 0, 0, 0, 0, -0.7417982220649719, -1.3185887336730957, -0.4323512315750122
13198, 0.01336862426251173, -0.04438340291380882, -0.004513964056968689, -0.05806415528059006, -0.09300865232944489, -0.053911734372377396, -0.003947205375880003, -0.0017455394845455885, 0.9997544288635254, -0.7417982220649719, -1.3185887336730957, -0.4323512315750122, 0.0, 0.0, 0.0, 0, 0, 0, 0, 0, 0, -0.7431963086128235, -1.3212238550186157, -0.43320921063423157
13208, 0.01262060459703207, -0.04576407000422478, -0.003964894916862249, -0.11930607259273529, 0.04032433032989502, -0.1251567006111145, -0.0019831089302897453, -0.0021704889368265867, 0.9990599155426025, -0.7431963086128235, -1.3212238550186157, -0.43320921063423157, 0.0, 0.0, 0.0, 0, 0, 0, 0, 0, 0, -0.7445967793464661, -1.3238608837127686, -0.4340674579143524
13218, 0.01252297405153513, -0.04519795626401901, -0.0038841424975544214, -0.12943510711193085, -0.17105434834957123, 0.059188175946474075, -0.001748941489495337, -0.00314728613011539, 1.0022062063217163, -0.7445967793464661, -1.3238608837127686, -0.4340674579143524, 0.0, 0.0, 0.0, 0, 0, 0, 0, 0, 0, -0.7459985017776489, -1.326500654220581, -0.43492528796195984
13228, 0.012799739837646484, -0.04581466689705849, -0.003810542169958353, 0.08371912688016891, -0.028707263991236687, -0.04750293120741844, -0.00048225067439489067, -0.0034157719928771257, 1.0000455379486084, -0.7459985017776489, -1.326500654220581, -0.43492528796195984, 0.0, 0.0, 0.0, 0, 0, 0, 0, 0, 0, -0.7474005818367004, -1.3291438817977905, -0.43578192591667175
13238, 0.011675168760120869, -0.0456705279648304, -0.0030829659663140774, -0.16130667924880981, 0.03484640643000603, 0.015044404193758965, -0.0007512251031585038, -0.002141588367521763, 0.9986172318458557, -0.7474005818367004, -1.3291438817977905, -0.43578192591667175, 0.0, 0.0, 0.0, 0, 0, 0, 0, 0, 0, -0.7488025426864624, -1.3317903280258179, -0.43663856387138367
13248, 0.011754396371543407, -0.04731091111898422, -0.0008602605666965246, 0.058835890144109726, 0.27551206946372986, 0.18698902428150177, -0.002772982930764556, -0.002769628306850791, 0.9997318387031555, -0.7488025426864624, -1.3317903280258179, -0.43663856387138367, 0.0, 0.0, 0.0, 0, 0, 0, 0, 0, 0, -0.7502050995826721, -1.3344396352767944, -0.43749603629112244
13258, 0.011927921324968338, -0.04788338020443916, -0.00039772744639776647, 0.07446993142366409, 0.159265398979187, -0.2375599443912506, -0.0015906037297099829, -0.0047529637813568115, 0.9988340139389038, -0.7502050995826721, -1.3344396352767944, -0.43749603629112244, 0.0, 0.0, 0.0, 0, 0, 0, 0, 0, 0, -0.7516090273857117, -1.337092399597168, -0.4383542239665985
13268, 0.012691440992057323, -0.048015229403972626, 0.0015968539519235492, 0.13518859446048737, -0.03708066791296005, 0.08327744901180267, -0.0018967516953125596, -0.002936584409326315, 0.9979496598243713, -0.7516090273857117, -1.337092399597168, -0.4383542239665985, 0.0, 0.0, 0.0, 0, 0, 0, 0, 0, 0, -0.7530139088630676, -1.3397490978240967, -0.43921390175819397
13278, 0.01262667030096054, -0.04612673446536064, 0.0017218702705577016, -0.04061127081513405, -0.19274146854877472, 0.011395052075386047, -0.0032296273857355118, -0.004106053616851568, 0.9996393322944641, -0.7530139088630676, -1.3397490978240967, -0.43921390175819397, 0.0, 0.0, 0.0, 0, 0, 0, 0, 0, 0, -0.7544202208518982, -1.3424094915390015, -0.4400748610496521
13288, 0.011431214399635792, -0.04594842344522476, 0.0021088907960802317, -0.11993370950222015, -0.02881227619946003, 0.14623527228832245, -0.002764072734862566, -0.002175828441977501, 1.0011590719223022, -0.7544202208518982, -1.3424094915390015, -0.4400748610496521, 0.0, 0.0, 0.0, 0, 0, 0, 0, 0, 0, -0.7558285593986511, -1.3450731039047241, -0.44093573093414307
13298, 0.012620662339031696, -0.04538751766085625, 0.000479957670904696, 0.11048869043588638, 0.10654078423976898, -0.18690192699432373, -0.0024271586444228888, -0.002754217479377985, 0.9979813098907471, -0.7558285593986511, -1.3450731039047241, -0.44093573093414307, 0.0, 0.0, 0.0, 0, 0, 0, 0, 0, 0, -0.7572387456893921, -1.347739338874817, -0.4417968690395355
13308, 0.012980418279767036, -0.046659763902425766, 0.0020297581795603037, 0.02120925299823284, 0.2192198634147644, 0.11452778428792953, -0.0012861505383625627, -0.003930607344955206, 0.9999867677688599, -0.7572387456893921, -1.347739338874817, -0.4417968690395355, 0.0, 0.0, 0.0, 0, 0, 0, 0, 0, 0, -0.7586500644683838, -1.350408673286438, -0.4426589608192444
13318, 0.012629278004169464, -0.04553994908928871, 0.0023037856444716454, -0.05168282985687256, -0.27270564436912537, -0.038205552846193314, -0.0021293836180120707, -0.002922224346548319, 0.9991247653961182, -0.7586500644683838, -1.350408673286438, -0.4426589608192444, 0.0, 0.0, 0.0, 0, 0, 0, 0, 0, 0, -0.7600622177124023, -1.3530817031860352, -0.44352173805236816
13328, 0.012961136177182198, -0.04472918063402176, 0.0022702582646161318, 0.05923156812787056, -0.11004228889942169, -0.02762531489133835, -0.004717267118394375, -0.0012378855608403683, 0.998819887638092, -0.7600622177124023, -1.3530817031860352, -0.44352173805236816, 0.0, 0.0, 0.0, 0, 0, 0, 0, 0, 0, -0.7614763975143433, -1.355757474899292, -0.4443853497505188
13338, 0.012283462099730968, -0.044678863137960434, 0.0013645119033753872, -0.07983807474374771, 0.00744324317201972, -0.11770141869783401, -0.004156998358666897, -0.0028553020674735308, 1.0015805959701538, -0.7614763975143433, -1.355757474899292, -0.4443853497505188, 0.0, 0.0, 0.0, 0, 0, 0, 0, 0, 0, -0.7628942131996155, -1.3584352731704712, -0.44524919986724854
13348, 0.012211024761199951, -0.046719107776880264, 0.002560931723564863, 0.15949837863445282, 0.3042985796928406, 0.26776590943336487, -0.003929086495190859, -0.002453414024785161, 0.9989520907402039, -0.7628942131996155, -1.3584352731704712, -0.44524919986724854, 0.0, 0.0, 0.0, 0, 0, 0, 0, 0, 0, -0.7643153667449951, -1.361115574836731, -0.44611284136772156
13358, 0.012292989529669285, -0.04687562212347984, 0.003359436057507992, 0.07279639691114426, -0.0439450666308403, 0.10291029512882233, -0.0009235977195203304, -0.0038773443084210157, 0.9987626075744629, -0.7643153667449951, -1.361115574836731, -0.44611284136772156, 0.0, 0.0, 0.0, 0, 0, 0, 0, 0, 0, -0.7657383680343628, -1.3637990951538086, -0.4469771683216095
13368, 0.011944548226892948, -0.04612421244382858, 0.0027465857565402985, -0.1022581085562706, -0.09820496290922165, -0.06521116942167282, -0.0011343040969222784, -0.003573185531422496, 0.9993011355400085, -0.7657383680343628, -1.3637990951538086, -0.4469771683216095, 0.0, 0.0, 0.0, 0, 0, 0, 0, 0, 0, -0.7671619057655334, -1.3664861917495728, -0.4478427469730377
13378, 0.012620192021131516, -0.04612816497683525, 0.0032086737919598818, 0.08722379058599472, 0.10284218937158585, 0.1471257209777832, -0.0008384272805415094, -0.0009481351589784026, 1.0002697706222534, -0.7671619057655334, -1.3664861917495728, -0.4478427469730377, 0.0, 0.0, 0.0, 0, 0, 0, 0, 0, 0, -0.7685855627059937, -1.3691761493682861, -0.4487088620662689
13388, 0.011986574158072472, -0.04531456530094147, 0.0026077020447701216, -0.1727665215730667, 0.006956237833946943, -0.025726618245244026, -0.0016144708497449756, -0.002130707958713174, 0.9986644983291626, -0.7685855627059937, -1.3691761493682861, -0.4487088620662689, 0.0, 0.0, 0.0, 0, 0, 0, 0, 0, 0, -0.7700097560882568, -1.3718682527542114, -0.4495750963687897
13398, 0.012016825377941132, -0.04442621022462845, 0.00218125875107944, 0.0055807167664170265, -0.08001859486103058, -0.18156906962394714, -0.0029961266554892063, -0.004911414813250303, 0.9967541694641113, -0.7700097560882568, -1.3718682527542114, -0.4495750963687897, 0.0, 0.0, 0.0, 0, 0, 0, 0, 0, 0, -0.7714350819587708, -1.3745636940002441, -0.4504430294036865
13408, 0.012666841968894005, -0.04439143091440201, 0.002449501072987914, 0.10327388346195221, 0.12304194271564484, 0.03473220393061638, -0.0023860253859311342, -0.0007529414724558592, 0.9988199472427368, -0.7714350819587708, -1.3745636940002441, -0.4504430294036865, 0.0, 0.0, 0.0, 0, 0, 0, 0, 0, 0, -0.7728620171546936, -1.3772621154785156, -0.4513131380081177
13418, 0.01170816645026207, -0.04467170685529709, 0.0014842624077573419, -0.19143208861351013, 0.08445843309164047, -0.09257177263498306, -0.003146818373352289, -0.0010987832210958004, 0.9991611242294312, -0.7728620171546936, -1.3772621154785156, -0.4513131380081177, 0.0, 0.0, 0.0, 0, 0, 0, 0, 0, 0, -0.7742908000946045, -1.3799620866775513, -0.45218464732170105
13428, 0.012553766369819641, -0.04286174848675728, 0.0021477241534739733, 0.14360569417476654, -0.19900603592395782, 0.08088327199220657, -0.0018826635787263513, -0.001998793799430132, 0.9977496862411499, -0.7742908000946045, -1.3799620866775513, -0.45218464732170105, 0.0, 0.0, 0.0, 0, 0, 0, 0, 0, 0, -0.7757214307785034, -1.3826634883880615, -0.45305773615837097
13438, 0.012145536951720715, -0.043619390577077866, 0.002829077886417508, -0.09880923479795456, -0.011337770149111748, 0.02784770540893078, -0.0010792991379275918, -0.003302190685644746, 0.9990246295928955, -0.7757214307785034, -1.3826634883880615, -0.45305773615837097, 0.0, 0.0, 0.0, 0, 0, 0, 0, 0, 0, -0.7771532535552979, -1.3853673934936523, -0.4539324641227722
13448, 0.012314623221755028, -0.042697664350271225, 0.0015933827962726355, 0.001264781691133976, -0.14656931161880493, -0.22315385937690735, -8.033954509301111e-05, -0.0018803965067490935, 0.9991770386695862, -0.7771532535552979, -1.3853673934936523, -0.4539324641227722, 0.0, 0.0, 0.0, 0, 0, 0, 0, 0, 0, -0.7785850167274475, -1.3880741596221924, -0.4548085331916809
13458, 0.012746606022119522, -0.04293512925505638, 0.0011351851280778646, 0.10831503570079803, 0.06151721253991127, -0.029147015884518623, -0.0017031595343723893, -0.0032472917810082436, 0.9986879825592041, -0.7785850167274475, -1.3880741596221924, -0.4548085331916809, 0.0, 0.0, 0.0, 0, 0, 0, 0, 0, 0, -0.7800165414810181, -1.390783667564392, -0.455685555934906
13468, 0.01190092321485281, -0.043020132929086685, 0.0015987417427822948, -0.07801966369152069, -0.1974114030599594, 0.16335265338420868, -0.0029311394318938255, -0.0026815638411790133, 0.997559666633606, -0.7800165414810181, -1.390783667564392, -0.455685555934906, 0.0, 0.0, 0.0, 0, 0, 0, 0, 0, 0, -0.7814494967460632, -1.393496036529541, -0.4565640985965729
13478, 0.012946701608598232, -0.04253604635596275, 0.0014884459087625146, 0.17797724902629852, -0.03375818580389023, 0.05382505804300308, -0.0007113733445294201, -0.0034975737798959017, 0.996695876121521, -0.7814494967460632, -1.393496036529541, -0.4565640985965729, 0.0, 0.0, 0.0, 0, 0, 0, 0, 0, 0, -0.7828837037086487, -1.3962117433547974, -0.45744529366493225
13488, 0.01342993974685669, -0.04159761220216751, 0.0025550127029418945, 0.1798832267522812, -0.05920570343732834, 0.1351059526205063, -0.0009766953298822045, -0.0013103359378874302, 0.9981327652931213, -0.7828837037086487, -1.3962117433547974, -0.45744529366493225, 0.0, 0.0, 0.0, 0, 0, 0, 0, 0, 0, -0.7843180894851685, -1.3989300727844238, -0.4583291709423065
13498, 0.013980749063193798, -0.04017888009548187, 0.0009934670524671674, 0.22991888225078583, -0.28856465220451355, -0.07205765694379807, -0.0023378743790090084, -0.0011729365214705467, 0.9988732933998108, -0.7843180894851685, -1.3989300727844238, -0.4583291709423065, 0.0, 0.0, 0.0, 0, 0, 0, 0, 0, 0, -0.7857529520988464, -1.4016501903533936, -0.4592146873474121
13508, 0.01399623416364193, -0.04122180864214897, 0.0007956915651448071, -0.0646837055683136, 0.0758197233080864, 0.008954714983701706, -0.00353650888428092, -0.0022891457192599773, 0.9996111392974854, -0.7857529520988464, -1.4016501903533936, -0.4592146873474121, 0.0, 0.0, 0.0, 0, 0, 0, 0, 0, 0, -0.7871894240379333, -1.404371976852417, -0.460100919008255
13518, 0.015548693016171455, -0.04122649505734444, 0.0008470162865705788, 0.09053770452737808, 0.05412206053733826, 0.021905576810240746, -0.002367424312978983, -0.003984837792813778, 0.9989638924598694, -0.7871894240379333, -1.404371976852417, -0.460100919008255, 0.0, 0.0, 0.0, 0, 0, 0, 0, 0, 0, -0.7886281609535217, -1.4070966243743896, -0.46098792552948
13528, 0.015152123756706715, -0.042353272438049316, 0.00037854313268326223, -0.09795859456062317, 0.13561496138572693, -0.11750508099794388, -0.0028549483977258205, -0.00013295117241796106, 0.9962032437324524, -0.7886281609535217, -1.4070966243743896, -0.46098792552948, 0.0, 0.0, 0.0, 0, 0, 0, 0, 0, 0, -0.7900686860084534, -1.4098241329193115, -0.46187713742256165
13538, 0.014502091333270073, -0.04233052209019661, -1.6598833099124022e-05, -0.09606654196977615, -0.06531210243701935, -0.019780850037932396, -0.0014724949141964316, -0.0027134802658110857, 0.9986194968223572, -0.7900686860084534, -1.4098241329193115, -0.46187713742256165, 0.0, 0.0, 0.0, 0, 0, 0, 0, 0, 0, -0.7915109395980835, -1.412553310394287, -0.46276891231536865
13548, 0.014511684887111187, -0.04269402101635933, -5.2959519962314516e-05, -0.04944240674376488, 0.08339330554008484, -0.07767928391695023, 0.0004026131355203688, -0.0023647083435207605, 0.9981048107147217, -0.7915109395980835, -1.412553310394287, -0.46276891231536865, 0.0, 0.0, 0.0, 0, 0, 0, 0, 0, 0, -0.7929536700248718, -1.4152849912643433, -0.4636625647544861
13558, 0.01358842197805643, -0.043109893798828125, 0.0003998866304755211, -0.18247365951538086, 0.35656797885894775, -0.009507393464446068, -0.0016994591569527984, -0.0019997870549559593, 1.000573992729187, -0.7929536700248718, -1.4152849912643433, -0.4636625647544861, 0.0, 0.0, 0.0, 0, 0, 0, 0, 0, 0, -0.7943962216377258, -1.41801917552948, -0.4645571708679199
13568, 0.013098213821649551, -0.04238776117563248, 0.00029722152976319194, -0.03852009028196335, -0.12045510113239288, -0.035279516130685806, -0.003811418078839779, -0.001121590961702168, 0.9985748529434204, -0.7943962216377258, -1.41801917552948, -0.4645571708679199, 0.0, 0.0, 0.0, 0, 0, 0, 0, 0, 0, -0.7958402633666992, -1.42075514793396, -0.4654524028301239
13578, 0.013838104903697968, -0.0425744391977787, 0.0011258579324930906, 0.16395840048789978, -0.0038793517742305994, 0.06273634731769562, -0.0007037090254016221, -0.004081808030605316, 1.0007901191711426, -0.7958402633666992, -1.42075514793396, -0.4654524028301239, 0.0, 0.0, 0.0, 0, 0, 0, 0, 0, 0, -0.7972862124443054, -1.4234933853149414, -0.4663480818271637
13588, 0.013749854639172554, -0.04328857362270355, 0.0010835414286702871, -0.1755417138338089, 0.0321984738111496, 0.17618581652641296, -0.0021741364616900682, -0.005999440792948008, 0.9990518689155579, -0.7972862124443054, -1.4234933853149414, -0.4663480818271637, 0.0, 0.0, 0.0, 0, 0, 0, 0, 0, 0, -0.798733115196228, -1.4262362718582153, -0.4672435522079468
13598, 0.015130415558815002, -0.04335375502705574, 0.0009562550112605095, 0.17333129048347473, -0.026820477098226547, -0.011199449189007282, -0.003329990664497018, -0.0045160637237131596, 0.9957607388496399, -0.798733115196228, -1.4262362718582153, -0.4672435522079468, 0.0, 0.0, 0.0, 0, 0, 0, 0, 0, 0, -0.8001815676689148, -1.4289846420288086, -0.4681408405303955
13608, 0.014315891079604626, -0.044909123331308365, 0.0017630658112466335, -0.1738751083612442, 0.01512203924357891, 0.08098063617944717, -0.003217088058590889, -0.0027486756443977356, 0.999224066734314, -0.8001815676689148, -1.4289846420288086, -0.4681408405303955, 0.0, 0.0, 0.0, 0, 0, 0, 0, 0, 0, -0.8016325235366821, -1.4317371845245361, -0.46904081106185913
13618, 0.013804278336465359, -0.04508989304304123, 0.000456315407063812, -0.04433921352028847, -0.11032256484031677, -0.15250658988952637, -0.0007779861916787922, -0.002581479260697961, 0.9981400966644287, -0.8016325235366821, -1.4317371845245361, -0.46904081106185913, 0.0, 0.0, 0.0, 0, 0, 0, 0, 0, 0, -0.8030852675437927, -1.4344929456710815, -0.4699423909187317
13628, 0.014036799781024456, -0.04552251845598221, -6.69715791445924e-06, 0.04883814603090286, 0.02784019149839878, 0.037270598113536835, -0.00016845310165081173, -0.0028883314225822687, 0.9963275790214539, -0.8030852675437927, -1.4344929456710815, -0.4699423909187317, 0.0, 0.0, 0.0, 0, 0, 0, 0, 0, 0, -0.8045380115509033, -1.4372516870498657, -0.47084611654281616
13638, 0.01405948307365179, -0.043484169989824295, 0.00010243780707241967, -0.11788801848888397, -0.22429415583610535, 0.003588971681892872, -0.0031030827667564154, -0.0032214035745710135, 0.9978591203689575, -0.8045380115509033, -1.4372516870498657, -0.47084611654281616, 0.0, 0.0, 0.0, 0, 0, 0, 0, 0, 0, -0.805990993976593, -1.4400135278701782, -0.4717525839805603
13648, 0.013977511785924435, -0.04135443642735481, 0.0014218233991414309, -0.11070743203163147, -0.28847408294677734, 0.27341926097869873, -0.004555285908281803, -0.003132064361125231, 0.9967125058174133, -0.805990993976593, -1.4400135278701782, -0.4717525839805603, 0.0, 0.0, 0.0, 0, 0, 0, 0, 0, 0, -0.8074464201927185, -1.4427788257598877, -0.4726618826389313
13658, 0.01379067450761795, -0.043338462710380554, -4.60461997136008e-05, 0.001414769096300006, 0.25434935092926025, -0.32793015241622925, -0.0007221284322440624, -0.0007251088391058147, 0.9999678134918213, -0.8074464201927185, -1.4427788257598877, -0.4726618826389313, 0.0, 0.0, 0.0, 0, 0, 0, 0, 0, 0, -0.8089041113853455, -1.4455465078353882, -0.4735730290412903
13668, 0.013790213502943516, -0.041091274470090866, 0.0010278468253090978, -0.04188266769051552, -0.14160828292369843, 0.06891810894012451, -0.0012632720172405243, -0.002034710720181465, 0.9978652596473694, -0.8089041113853455, -1.4455465078353882, -0.4735730290412903, 0.0, 0.0, 0.0, 0, 0, 0, 0, 0, 0, -0.8103623986244202, -1.4483157396316528, -0.4744853675365448
13678, 0.014423603191971779, -0.03961405158042908, 0.0013167493743821979, 0.08065353333950043, -0.11602183431386948, 0.03307125344872475, -0.0019293088698759675, -0.00453103007748723, 0.9964359402656555, -0.8103623986244202, -1.4483157396316528, -0.4744853675365448, 0.0, 0.0, 0.0, 0, 0, 0, 0, 0, 0, -0.8118212223052979, -1.4510879516601562, -0.47540000081062317
13688, 0.015010451897978783, -0.038167424499988556, 0.0014250074746087193, 0.08555928617715836, -0.3341549038887024, 0.08278049528598785, -0.0025987434200942516, -0.0025665764696896076, 0.9989964962005615, -0.8118212223052979, -1.4510879516601562, -0.47540000081062317, 0.0, 0.0, 0.0, 0, 0, 0, 0, 0, 0, -0.8132814764976501, -1.4538637399673462, -0.476316899061203
13698, 0.014819028787314892, -0.040360525250434875, 0.0025213181506842375, 0.051558077335357666, 0.18425947427749634, 0.3063868582248688, -0.0005596920964308083, -0.0012828584294766188, 0.997471272945404, -0.8132814764976501, -1.4538637399673462, -0.476316899061203, 0.0, 0.0, 0.0, 0, 0, 0, 0, 0, 0, -0.8147428035736084, -1.4566422700881958, -0.47723573446273804
13708, 0.015222761780023575, -0.0389656201004982, 0.0025557109620422125, 0.08579917252063751, -0.143229141831398, -0.010831160470843315, -0.0015318263322114944, -0.0013856564182788134, 1.0008107423782349, -0.8147428035736084, -1.4566422700881958, -0.47723573446273804, 0.0, 0.0, 0.0, 0, 0, 0, 0, 0, 0, -0.8162047863006592, -1.4594224691390991, -0.4781557023525238
13718, 0.014319517649710178, -0.03918171301484108, 0.003015143796801567, -0.13901475071907043, 0.04693017527461052, 0.048654548823833466, -0.0019044078653678298, -0.003253208938986063, 0.9982225298881531, -0.8162047863006592, -1.4594224691390991, -0.4781557023525238, 0.0, 0.0, 0.0, 0, 0, 0, 0, 0, 0, -0.8176676630973816, -1.462204933166504, -0.47907617688179016
13728, 0.015649471431970596, -0.039373356848955154, 0.002792115556076169, 0.12309601157903671, -0.0380360446870327, 0.045068029314279556, 0.0002785007527563721, -0.002431086730211973, 0.9981384873390198, -0.8176676630973816, -1.462204933166504, -0.47907617688179016, 0.0, 0.0, 0.0, 0, 0, 0, 0, 0, 0, -0.8191309571266174, -1.464990258216858, -0.47999799251556396
13738, 0.01644616387784481, -0.04007945954799652, 0.0027355747297406197, 0.08698828518390656, 0.07207442820072174, 0.08961793035268784, 2.8859016310889274e-05, -0.002138964831829071, 0.9992890357971191, -0.8191309571266174, -1.464990258216858, -0.47999799251556396, 0.0, 0.0, 0.0, 0, 0, 0, 0, 0, 0, -0.8205937147140503, -1.4677780866622925, -0.48092108964920044
13748, 0.016322320327162743, -0.03893151879310608, 0.002760467119514942, 0.006796862930059433, -0.10222625732421875, -0.029641523957252502, -0.001579505275003612, -0.001355873653665185, 0.9988394975662231, -0.8205937147140503, -1.4677780866622925, -0.48092108964920044, 0.0, 0.0, 0.0, 0, 0, 0, 0, 0, 0, -0.8220561146736145, -1.4705681800842285, -0.481844961643219
13758, 0.016066085547208786, -0.03829645738005638, 0.0020303120836615562, 0.11372716724872589, -0.08167251199483871, -0.005931199993938208, -0.003821475198492408, -0.0012800483964383602, 1.0003061294555664, -0.8220561146736145, -1.4705681800842285, -0.481844961643219, 0.0, 0.0, 0.0, 0, 0, 0, 0, 0, 0, -0.8235201239585876, -1.4733598232269287, -0.4827692210674286
13768, 0.014352869242429733, -0.039946652948856354, 0.0025104645173996687, -0.12505140900611877, 0.31662461161613464, 0.18034839630126953, -0.0030004915315657854, -0.004041053354740143, 0.9991422891616821, -0.8235201239585876, -1.4733598232269287, -0.4827692210674286, 0.0, 0.0, 0.0, 0, 0, 0, 0, 0, 0, -0.8249868750572205, -1.476154088973999, -0.48369377851486206
13778, 0.01464874017983675, -0.039647333323955536, 0.0022489316761493683, 0.19373254477977753, -0.06337957084178925, -0.035511601716279984, 0.00013164765550754964, -0.0032875710166990757, 1.0009609460830688, -0.8249868750572205, -1.476154088973999, -0.48369377851486206, 0.0, 0.0, 0.0, 0, 0, 0, 0, 0, 0, -0.8264546394348145, -1.478952169418335, -0.48461806774139404
13788, 0.015063072554767132, -0.0393613763153553, 0.00361266965046525, 0.13845482468605042, -0.060891713947057724, 0.24596312642097473, 0.00020580229465849698, -0.0052252234891057014, 1.0008496046066284, -0.8264546394348145, -1.478952169418335, -0.48461806774139404, 0.0, 0.0, 0.0, 0, 0, 0, 0, 0, 0, -0.8279218077659607, -1.4817544221878052, -0.485541433095932
13798, 0.015088221989572048, -0.03984386473894119, 0.004144363570958376, 0.08142099529504776, 0.2351854294538498, 0.05187172070145607, -0.00033402489498257637, -0.0037267336156219244, 0.9986987709999084, -0.8279218077659607, -1.4817544221878052, -0.485541433095932, 0.0, 0.0, 0.0, 0, 0, 0, 0, 0, 0, -0.8293880224227905, -1.4845612049102783, -0.4864647090435028
13808, 0.014546249061822891, -0.04107877239584923, 0.0036336646880954504, -0.08859822899103165, 0.28796353936195374, -0.004695226438343525, -0.0015556776197627187, -0.001479164231568575, 0.9998177289962769, -0.8293880224227905, -1.4845612049102783, -0.4864647090435028, 0.0, 0.0, 0.0, 0, 0, 0, 0, 0, 0, -0.8308538198471069, -1.4873712062835693, -0.4873887598514557
13818, 0.014273510314524174, -0.039266735315322876, 0.0033403674606233835, -0.06902939826250076, -0.1965600997209549, -0.08934016525745392, -0.003519704332575202, -0.004117683041840792, 0.9999486207962036, -0.8308538198471069, -1.4873712062835693, -0.4873887598514557, 0.0, 0.0, 0.0, 0, 0, 0, 0, 0, 0, -0.8323211073875427, -1.4901840686798096, -0.4883132576942444
13828, 0.015010816045105457, -0.04258823022246361, 0.002962525002658367, 0.2447400838136673, 0.47995617985725403, -0.02179817669093609, -0.000980381853878498, -0.005253297742456198, 0.9996213912963867, -0.8323211073875427, -1.4901840686798096, -0.4883132576942444, 0.0, 0.0, 0.0, 0, 0, 0, 0, 0, 0, -0.8337896466255188, -1.4930012226104736, -0.4892376959323883
13838, 0.014746169559657574, -0.042458806186914444, 0.004704769235104322, -0.014418349601328373, 0.07589790225028992, 0.21934938430786133, -0.0016387930372729897, -0.0038576258812099695, 1.0000139474868774, -0.8337896466255188, -1.4930012226104736, -0.4892376959323883, 0.0, 0.0, 0.0, 0, 0, 0, 0, 0, 0, -0.8352587819099426, -1.4958232641220093, -0.4901624023914337
13848, 0.015102308243513107, -0.04297589510679245, 0.003936245571821928, -0.030634373426437378, 0.015186158008873463, 0.0974169448018074, -4.065991743118502e-05, -0.004037922713905573, 0.9986429810523987, -0.8352587819099426, -1.4958232641220093, -0.4901624023914337, 0.0, 0.0, 0.0, 0, 0, 0, 0, 0, 0, -0.836728036403656, -1.4986495971679688, -0.49108797311782837
13858, 0.014625108800828457, -0.04286866635084152, 0.004581062588840723, -0.14883872866630554, 0.08333692699670792, 0.09742581099271774, -0.0008031713077798486, -0.0019301027059555054, 0.9967800974845886, -0.836728036403656, -1.4986495971679688, -0.49108797311782837, 0.0, 0.0, 0.0, 0, 0, 0, 0, 0, 0, -0.8381969928741455, -1.5014795064926147, -0.4920155107975006
13868, 0.014636985957622528, -0.04166903719305992, 0.00423169881105423, -0.13163743913173676, -0.16562387347221375, -0.12261918932199478, -0.00220498233102262, -0.0035516845528036356, 0.9993014335632324, -0.8381969928741455, -1.5014795064926147, -0.4920155107975006, 0.0, 0.0, 0.0, 0, 0, 0, 0, 0, 0, -0.8396663069725037, -1.5043123960494995, -0.4929451644420624
13878, 0.015473040752112865, -0.041571181267499924, 0.0045735836029052734, 0.15446674823760986, -0.0768304392695427, 0.10508258640766144, -0.0005192785174585879, -0.0025074072182178497, 1.0012784004211426, -0.8396663069725037, -1.5043123960494995, -0.4929451644420624, 0.0, 0.0, 0.0, 0, 0, 0, 0, 0, 0, -0.84113609790802, -1.5071485042572021, -0.4938752055168152
13888, 0.014963106252253056, -0.04230593517422676, 0.004821862559765577, -0.06396996229887009, -0.08389104902744293, 0.04951448366045952, -0.0011714088032022119, -0.0007360796444118023, 0.99714195728302, -0.84113609790802, -1.5071485042572021, -0.4938752055168152, 0.0, 0.0, 0.0, 0, 0, 0, 0, 0, 0, -0.8426061272621155, -1.5099871158599854, -0.49480560421943665
13898, 0.015567305497825146, -0.04230433329939842, 0.005624249577522278, -0.011590504087507725, 0.11879226565361023, 0.11061523854732513, -0.0029567875899374485, -0.0037252262700349092, 0.9979154467582703, -0.8426061272621155, -1.5099871158599854, -0.49480560421943665, 0.0, 0.0, 0.0, 0, 0, 0, 0, 0, 0, -0.8440771698951721, -1.512827754020691, -0.4957379698753357
13908, 0.015508804470300674, -0.04409626126289368, 0.0055648647248744965, 0.021075233817100525, 0.23463396728038788, -0.0992555022239685, -0.0029523309785872698, -0.003625106532126665, 0.9979108572006226, -0.8440771698951721, -1.512827754020691, -0.4957379698753357, 0.0, 0.0, 0.0, 0, 0, 0, 0, 0, 0, -0.8455500602722168, -1.5156718492507935, -0.49667245149612427
13918, 0.015275415033102036, -0.0441833958029747, 0.006717358250170946, 0.030607523396611214, 0.02206154353916645, 0.06345260888338089, -0.003303494304418564, -0.0014673182740807533, 0.998066782951355, -0.8455500602722168, -1.5156718492507935, -0.49667245149612427, 0.0, 0.0, 0.0, 0, 0, 0, 0, 0, 0, -0.8470250964164734, -1.518519401550293, -0.49760884046554565
13928, 0.015452923253178596, -0.0455324612557888, 0.005305689759552479, 0.04596943408250809, 0.07811644673347473, -0.19794848561286926, -0.001946643111295998, -0.0035004224628210068, 0.9975820183753967, -0.8470250964164734, -1.518519401550293, -0.49760884046554565, 0.0, 0.0, 0.0, 0, 0, 0, 0, 0, 0, -0.848501980304718, -1.5213696956634521, -0.4985474944114685
13938, 0.015898432582616806, -0.04533970728516579, 0.005867204163223505, 0.12001834064722061, 0.031048154458403587, 0.10052099823951721, -0.001953116268850863, -0.003962364513427019, 0.9977630376815796, -0.848501980304718, -1.5213696956634521, -0.4985474944114685, 0.0, 0.0, 0.0, 0, 0, 0, 0, 0, 0, -0.8499799966812134, -1.5242235660552979, -0.49948850274086
13948, 0.016500135883688927, -0.045951828360557556, 0.005725183058530092, 0.14884154498577118, 0.16212905943393707, 0.0384296253323555, -0.0017885579727590084, -0.002626155037432909, 0.998257040977478, -0.8499799966812134, -1.5242235660552979, -0.49948850274086, 0.0, 0.0, 0.0, 0, 0, 0, 0, 0, 0, -0.8514590263366699, -1.5270812511444092, -0.5004317760467529
13958, 0.016248853877186775, -0.04445229098200798, 0.005215776618570089, 0.013205096125602722, -0.1519896239042282, -0.09999482333660126, -0.00023318429884966463, -0.0034123407676815987, 0.9999914169311523, -0.8514590263366699, -1.5270812511444092, -0.5004317760467529, 0.0, 0.0, 0.0, 0, 0, 0, 0, 0, 0, -0.8529388308525085, -1.529942274093628, -0.5013764500617981
13968, 0.01712227612733841, -0.04281111806631088, 0.004652701783925295, 0.04495126008987427, -0.2621869742870331, -0.012815271504223347, -0.0017138422699645162, -0.0020103424321860075, 1.0009335279464722, -0.8529388308525085, -1.529942274093628, -0.5013764500617981, 0.0, 0.0, 0.0, 0, 0, 0, 0, 0, 0, -0.8544188737869263, -1.532806396484375, -0.502321183681488
13978, 0.017323169857263565, -0.043259501457214355, 0.0041915117762982845, 0.019841473549604416, 0.18246833980083466, -0.12488887459039688, -0.000681367120705545, -0.0031433000694960356, 1.0003242492675781, -0.8544188737869263, -1.532806396484375, -0.502321183681488, 0.0, 0.0, 0.0, 0, 0, 0, 0, 0, 0, -0.8558992743492126, -1.5356732606887817, -0.503265380859375
13988, 0.016315121203660965, -0.045027874410152435, 0.005267463158816099, -0.16638843715190887, 0.1909048706293106, 0.19842906296253204, -0.0007701152353547513, -0.0023406289983540773, 0.9993875622749329, -0.8558992743492126, -1.5356732606887817, -0.503265380859375, 0.0, 0.0, 0.0, 0, 0, 0, 0, 0, 0, -0.8573800921440125, -1.5385431051254272, -0.5042096972465515
13998, 0.016016919165849686, -0.043618448078632355, 0.004104511346668005, -0.07627031207084656, -0.22658373415470123, -0.006656593177467585, -0.003383205272257328, -0.0015208753757178783, 1.0016084909439087, -0.8573800921440125, -1.5385431051254272, -0.5042096972465515, 0.0, 0.0, 0.0, 0, 0, 0, 0, 0, 0, -0.8588619828224182, -1.5414154529571533, -0.5051536560058594
14008, 0.016723113134503365, -0.04450777918100357, 0.004103352781385183, 0.17833338677883148, 0.12958036363124847, 0.05553233623504639, 0.0001942389499163255, -0.0019760278519243, 1.00163733959198, -0.8588619828224182, -1.5414154529571533, -0.5051536560058594, 0.0, 0.0, 0.0, 0, 0, 0, 0, 0, 0, -0.8603450059890747, -1.5442898273468018, -0.5060961246490479
14018, 0.016088169068098068, -0.04470204561948776, 0.0040476336143910885, -0.06621995568275452, -0.135824516415596, -0.10461927950382233, -0.002105592517182231, -0.0038532582111656666, 1.0007576942443848, -0.8603450059890747, -1.5442898273468018, -0.5060961246490479, 0.0, 0.0, 0.0, 0, 0, 0, 0, 0, 0, -0.8618282079696655, -1.5471668243408203, -0.5070375800132751
14028, 0.01673075743019581, -0.04666173458099365, 0.003694913350045681, 0.1252186894416809, 0.2208845019340515, -0.15149538218975067, -0.001469892798922956, -0.003598130075260997, 1.0004814863204956, -0.8618282079696655, -1.5471668243408203, -0.5070375800132751, 0.0, 0.0, 0.0, 0, 0, 0, 0, 0, 0, -0.8633121848106384, -1.5500476360321045, -0.5079783797264099
14038, 0.016812898218631744, -0.04584613814949989, 0.00455761794000864, -0.10124240815639496, -0.12452826648950577, 0.21942919492721558, -0.0036231360863894224, -0.002818233799189329, 0.9982432723045349, -0.8633121848106384, -1.5500476360321045, -0.5079783797264099, 0.0, 0.0, 0.0, 0, 0, 0, 0, 0, 0, -0.8647979497909546, -1.5529319047927856, -0.5089194178581238
14048, 0.016878660768270493, -0.04421105980873108, 0.004324155859649181, -0.1648799031972885, -0.12988588213920593, -0.03840751573443413, -0.002728666178882122, -0.0032864795066416264, 0.9959152936935425, -0.8647979497909546, -1.5529319047927856, -0.5089194178581238, 0.0, 0.0, 0.0, 0, 0, 0, 0, 0, 0, -0.8662857413291931, -1.5558192729949951, -0.509863018989563
14058, 0.017047002911567688, -0.044173479080200195, 0.0036901982966810465, 0.0036129967775195837, -0.024211764335632324, -0.11367232352495193, -0.0029170478228479624, -0.004595918580889702, 0.998862087726593, -0.8662857413291931, -1.5558192729949951, -0.509863018989563, 0.0, 0.0, 0.0, 0, 0, 0, 0, 0, 0, -0.8677754998207092, -1.5587103366851807, -0.510809600353241
14068, 0.016704484820365906, -0.044419001787900925, 0.004260373301804066, -0.032017048448324203, 0.0239377673715353, 0.019044898450374603, -0.0013871305854991078, -0.004009449854493141, 0.9980558753013611, -0.8677754998207092, -1.5587103366851807, -0.510809600353241, 0.0, 0.0, 0.0, 0, 0, 0, 0, 0, 0, -0.869266927242279, -1.5616058111190796, -0.5117579698562622
14078, 0.017022164538502693, -0.04162140563130379, 0.005128758959472179, 0.0948290303349495, -0.266037255525589, 0.06298880279064178, 2.056169068964664e-05, -0.0031650038436055183, 0.9972955584526062, -0.869266927242279, -1.5616058111190796, -0.5117579698562622, 0.0, 0.0, 0.0, 0, 0, 0, 0, 0, 0, -0.870758593082428, -1.5645052194595337, -0.5127081871032715
14088, 0.016788143664598465, -0.040693897753953934, 0.004633008036762476, -0.0846407413482666, -0.10572527348995209, -0.058090489357709885, -0.001320133451372385, -0.002702663652598858, 0.9985995292663574, -0.870758593082428, -1.5645052194595337, -0.5127081871032715, 0.0, 0.0, 0.0, 0, 0, 0, 0, 0, 0, -0.8722501993179321, -1.5674077272415161, -0.5136603713035583
14098, 0.016841920092701912, -0.04218984767794609, 0.004514311905950308, -0.0020469236187636852, 0.3048138916492462, -0.04547320306301117, -0.0010229351464658976, -0.004726979415863752, 0.9981557130813599, -0.8722501993179321, -1.5674077272415161, -0.5136603713035583, 0.0, 0.0, 0.0, 0, 0, 0, 0, 0, 0, -0.8737423419952393, -1.5703141689300537, -0.5146144032478333
14108, 0.018025659024715424, -0.04248590022325516, 0.005131314042955637, 0.14365291595458984, -0.044608574360609055, -0.003880471456795931, -0.0015938027063384652, -0.0021635957527905703, 0.9993286728858948, -0.8737423419952393, -1.5703141689300537, -0.5146144032478333, 0.0, 0.0, 0.0, 0, 0, 0, 0, 0, 0, -0.875235378742218, -1.5732245445251465, -0.5155699253082275
14118, 0.018063871189951897, -0.042501091957092285, 0.004537820350378752, 0.0050829313695430756, -0.059262119233608246, -0.006313132122159004, -0.0004923187079839408, -0.0009880136931315064, 0.9997942447662354, -0.875235378742218, -1.5732245445251465, -0.5155699253082275, 0.0, 0.0, 0.0, 0, 0, 0, 0, 0, 0, -0.8767288327217102, -1.5761373043060303, -0.5165261030197144
14128, 0.017904751002788544, -0.039638545364141464, 0.0023399817291647196, 0.020533518865704536, -0.38139596581459045, -0.28350329399108887, -0.0009732263861224055, -0.0026522702537477016, 0.9972140789031982, -0.8767288327217102, -1.5761373043060303, -0.5165261030197144, 0.0, 0.0, 0.0, 0, 0, 0, 0, 0, 0, -0.8782222270965576, -1.5790518522262573, -0.5174832940101624
14138, 0.017675932496786118, -0.04060303047299385, 0.0033990826923400164, -0.034170962870121, 0.3073383569717407, 0.20130819082260132, -0.00035248175845481455, -0.0024507674388587475, 1.0003814697265625, -0.8782222270965576, -1.5790518522262573, -0.5174832940101624, 0.0, 0.0, 0.0, 0, 0, 0, 0, 0, 0, -0.8797153830528259, -1.581968903541565, -0.5184417963027954
14148, 0.017082063481211662, -0.041343193501234055, 0.0019706692546606064, -0.09688698500394821, 0.030391298234462738, -0.11983949691057205, -0.0004924132372252643, -0.0008741780766285956, 0.998002827167511, -0.8797153830528259, -1.581968903541565, -0.5184417963027954, 0.0, 0.0, 0.0, 0, 0, 0, 0, 0, 0, -0.8812081813812256, -1.5848883390426636, -0.5194013714790344
14158, 0.017276328057050705, -0.04204167053103447, 0.0011279365280643106, 0.028025424107909203, 0.0734015628695488, -0.18422436714172363, -0.0014451731694862247, -0.0004305433831177652, 0.997617244720459, -0.8812081813812256, -1.5848883390426636, -0.5194013714790344, 0.0, 0.0, 0.0, 0, 0, 0, 0, 0, 0, -0.88270103931427, -1.5878088474273682, -0.5203626155853271
14168, 0.01722179353237152, -0.04135355353355408, 0.0021302439272403717, -0.0676843672990799, -0.15759186446666718, -0.01748763583600521, -0.0010204169666394591, -0.0014358016196638346, 0.9987901449203491, -0.88270103931427, -1.5878088474273682, -0.5203626155853271, 0.0, 0.0, 0.0, 0, 0, 0, 0, 0, 0, -0.884194552898407, -1.59073007106781, -0.5213257670402527
14178, 0.017773861065506935, -0.0430217944085598, 0.003127415431663394, 0.014092248864471912, 0.27345842123031616, 0.05431118607521057, -0.0006184772937558591, -0.0015292256139218807, 0.9985208511352539, -0.884194552898407, -1.59073007106781, -0.5213257670402527, 0.0, 0.0, 0.0, 0, 0, 0, 0, 0, 0, -0.8856884241104126, -1.5936529636383057, -0.5222904682159424
14188, 0.017362479120492935, -0.04352276772260666, 0.0018410497577860951, 0.005673551931977272, 0.013625627383589745, -0.17540886998176575, -0.0007382332114502788, -0.0030818607192486525, 0.9998231530189514, -0.8856884241104126, -1.5936529636383057, -0.5222904682159424, 0.0, 0.0, 0.0, 0, 0, 0, 0, 0, 0, -0.8871824741363525, -1.5965782403945923, -0.5232559442520142
14198, 0.01644313335418701, -0.044957272708415985, 0.002743495861068368, -0.13386982679367065, 0.19168242812156677, 0.282621294260025, -0.0019497550092637539, -0.0057573080994188786, 0.9981707334518433, -0.8871824741363525, -1.5965782403945923, -0.5232559442520142, 0.0, 0.0, 0.0, 0, 0, 0, 0, 0, 0, -0.8886770009994507, -1.5995078086853027, -0.5242223143577576
14208, 0.016325315460562706, -0.044928308576345444, 0.003679510671645403, -0.027343442663550377, 0.07996231317520142, 0.13752326369285583, -0.0022506299428641796, -0.002305012196302414, 0.9979063868522644, -0.8886770009994507, -1.5995078086853027, -0.5242223143577576, 0.0, 0.0, 0.0, 0, 0, 0, 0, 0, 0, -0.8901726603507996, -1.602441668510437, -0.5251905918121338
14218, 0.016546128317713737, -0.04270250350236893, 0.004459065850824118, 0.10007194429636002, -0.25910165905952454, 0.11080597341060638, -0.0008161144214682281, -0.0016354038380086422, 0.9998309016227722, -0.8901726603507996, -1.602441668510437, -0.5251905918121338, 0.0, 0.0, 0.0, 0, 0, 0, 0, 0, 0, -0.8916693925857544, -1.6053781509399414, -0.5261605978012085
14228, 0.017418401315808296, -0.042403269559144974, 0.004434197209775448, 0.050658438354730606, 0.03628922253847122, -0.07251645624637604, -8.16217070678249e-05, -0.001752871205098927, 0.9994785785675049, -0.8916693925857544, -1.6053781509399414, -0.5261605978012085, 0.0, 0.0, 0.0, 0, 0, 0, 0, 0, 0, -0.8931661248207092, -1.6083167791366577, -0.5271314978599548
14238, 0.016323253512382507, -0.04225334897637367, 0.0043563260696828365, -0.24832962453365326, 0.07703861594200134, -0.020442631095647812, -0.0013835856225341558, -0.0011819652281701565, 0.9999768733978271, -0.8931661248207092, -1.6083167791366577, -0.5271314978599548, 0.0, 0.0, 0.0, 0, 0, 0, 0, 0, 0, -0.8946630358695984, -1.6112573146820068, -0.5281026363372803
14248, 0.01667713187634945, -0.0435577891767025, 0.0037356263492256403, -0.024949003010988235, 0.3114281892776489, -0.019712742418050766, -4.089458889211528e-05, -0.0031636811327189207, 0.9960367679595947, -0.8946630358695984, -1.6112573146820068, -0.5281026363372803, 0.0, 0.0, 0.0, 0, 0, 0, 0, 0, 0, -0.8961601257324219, -1.6142001152038574, -0.5290753841400146
14258, 0.016927815973758698, -0.043262626975774765, 0.004037624225020409, -0.030267449095845222, 0.009931989945471287, 0.006475650705397129, -0.0019911008421331644, -0.0023393884766846895, 0.9981304407119751, -0.8961601257324219, -1.6142001152038574, -0.5290753841400146, 0.0, 0.0, 0.0, 0, 0, 0, 0, 0, 0, -0.8976573944091797, -1.6171457767486572, -0.5300509333610535
14268, 0.01778452657163143, -0.042469702661037445, 0.0041388776153326035, 0.09765731543302536, -0.05718204379081726, 0.1855902522802353, -0.001949169673025608, -0.0038454378955066204, 0.9987176656723022, -0.8976573944091797, -1.6171457767486572, -0.5300509333610535, 0.0, 0.0, 0.0, 0, 0, 0, 0, 0, 0, -0.899155855178833, -1.620094656944275, -0.5310285091400146
14278, 0.018765272572636604, -0.043268587440252304, 0.003972921520471573, 0.26114124059677124, 0.08114834874868393, -0.04582541063427925, 0.0011347309919074178, -0.0042692068964242935, 0.9982511401176453, -0.899155855178833, -1.620094656944275, -0.5310285091400146, 0.0, 0.0, 0.0, 0, 0, 0, 0, 0, 0, -0.9006543755531311, -1.6230477094650269, -0.5320075750350952
14288, 0.01798216626048088, -0.044099535793066025, 0.004088093992322683, -0.1751493215560913, 0.057756680995225906, -0.08062901347875595, 0.00024340188247151673, -0.0009176137973554432, 0.9978699088096619, -0.9006543755531311, -1.6230477094650269, -0.5320075750350952, 0.0, 0.0, 0.0, 0, 0, 0, 0, 0, 0, -0.9021515846252441, -1.6260040998458862, -0.5329884886741638
14298, 0.017148375511169434, -0.045305684208869934, 0.004376641474664211, -0.07393430918455124, 0.11790212988853455, 0.05958389863371849, -0.002288391347974539, -0.00576173048466444, 0.9984548687934875, -0.9021515846252441, -1.6260040998458862, -0.5329884886741638, 0.0, 0.0, 0.0, 0, 0, 0, 0, 0, 0, -0.9036484360694885, -1.6289639472961426, -0.5339715480804443
14308, 0.01713695377111435, -0.046352073550224304, 0.0047903284430503845, -0.044769227504730225, 0.14222370088100433, -0.136588454246521, -0.002098054625093937, -0.00210245861671865, 0.999889075756073, -0.9036484360694885, -1.6289639472961426, -0.5339715480804443, 0.0, 0.0, 0.0, 0, 0, 0, 0, 0, 0, -0.9051464200019836, -1.6319279670715332, -0.5349557399749756
14318, 0.01750204712152481, -0.04431157931685448, 0.0051056030206382275, 0.0926206186413765, -0.3960491120815277, -0.16106301546096802, -0.00286160409450531, -0.0005136997788213193, 0.9986549019813538, -0.9051464200019836, -1.6319279670715332, -0.5349557399749756, 0.0, 0.0, 0.0, 0, 0, 0, 0, 0, 0, -0.9066463112831116, -1.6348943710327148, -0.5359405875205994
14328, 0.018721284344792366, -0.044856734573841095, 0.005771444644778967, 0.2004241943359375, 0.0965670496225357, 0.06845178455114365, -0.002331484341993928, -0.0006543865893036127, 0.9981808662414551, -0.9066463112831116, -1.6348943710327148, -0.5359405875205994, 0.0, 0.0, 0.0, 0, 0, 0, 0, 0, 0, -0.9081478714942932, -1.637861728668213, -0.5369265079498291
14338, 0.017036018893122673, -0.04393355920910835, 0.004500816576182842, -0.3414929509162903, -0.026494363322854042, -0.1667790412902832, -0.0030476110987365246, -0.0018407513853162527, 1.00141441822052, -0.9081478714942932, -1.637861728668213, -0.5369265079498291, 0.0, 0.0, 0.0, 0, 0, 0, 0, 0, 0, -0.9096511006355286, -1.640830397605896, -0.5379129648208618
14348, 0.017820345237851143, -0.044171981513500214, 0.00579083152115345, -0.04249029979109764, 0.0572248175740242, 0.10217268764972687, -0.0030816213693469763, -0.0027513629756867886, 0.9997037649154663, -0.9096511006355286, -1.640830397605896, -0.5379129648208618, 0.0, 0.0, 0.0, 0, 0, 0, 0, 0, 0, -0.9111562967300415, -1.6438016891479492, -0.5388994216918945
14358, 0.017770865932106972, -0.04302193596959114, 0.006279239896684885, 0.009815925732254982, -0.11447443813085556, 0.04178538918495178, -0.0010333433747291565, -0.002158490475267172, 0.9997783899307251, -0.9111562967300415, -1.6438016891479492, -0.5388994216918945, 0.0, 0.0, 0.0, 0, 0, 0, 0, 0, 0, -0.9126629829406738, -1.6467759609222412, -0.5398862361907959
14368, 0.018045682460069656, -0.04288681223988533, 0.006000099238008261, -0.15061601996421814, -0.032733939588069916, -0.1946379691362381, -0.002046897541731596, -0.0019539466593414545, 0.9983125925064087, -0.9126629829406738, -1.6467759609222412, -0.5398862361907959, 0.0, 0.0, 0.0, 0, 0, 0, 0, 0, 0, -0.9141704440116882, -1.6497527360916138, -0.5408737063407898
14378, 0.018757853657007217, -0.04573199525475502, 0.007394731510430574, 0.08591540902853012, 0.3215143084526062, 0.035040393471717834, 0.00037396434345282614, -0.0031808707863092422, 0.9972423911094666, -0.9141704440116882, -1.6497527360916138, -0.5408737063407898, 0.0, 0.0, 0.0, 0, 0, 0, 0, 0, 0, -0.9156777858734131, -1.6527321338653564, -0.5418627858161926
14388, 0.018155913800001144, -0.044351816177368164, 0.007627167273312807, 0.02850547432899475, -0.1648653894662857, -0.06316044926643372, -0.0022830108646303415, -0.002574024023488164, 1.0000838041305542, -0.9156777858734131, -1.6527321338653564, -0.5418627858161926, 0.0, 0.0, 0.0, 0, 0, 0, 0, 0, 0, -0.9171852469444275, -1.6557143926620483, -0.5428535342216492
14398, 0.017563875764608383, -0.04505850747227669, 0.00773985218256712, 0.01635671965777874, 0.09564409404993057, -0.1574915200471878, -0.0015225647948682308, -0.003145203460007906, 1.0004708766937256, -0.9171852469444275, -1.6557143926620483, -0.5428535342216492, 0.0, 0.0, 0.0, 0, 0, 0, 0, 0, 0, -0.9186935424804688, -1.6586997509002686, -0.54384446144104
14408, 0.017454199492931366, -0.044853679835796356, 0.008267508819699287, -0.047083716839551926, 0.05426986142992973, -0.24825407564640045, -0.0026638610288500786, -0.0009739072411321104, 0.9989534616470337, -0.9186935424804688, -1.6586997509002686, -0.54384446144104, 0.0, 0.0, 0.0, 0, 0, 0, 0, 0, 0, -0.9202030301094055, -1.6616878509521484, -0.5448354482650757
14418, 0.01767292432487011, -0.043614376336336136, 0.008932351134717464, -0.05821721628308296, -0.12166441977024078, 0.035714950412511826, -0.0032955515198409557, -0.0033570406958460808, 0.9969689249992371, -0.9202030301094055, -1.6616878509521484, -0.5448354482650757, 0.0, 0.0, 0.0, 0, 0, 0, 0, 0, 0, -0.9217146635055542, -1.6646783351898193, -0.5458282232284546
14428, 0.018456080928444862, -0.04164138436317444, 0.00714138662442565, 0.2159011960029602, -0.26508617401123047, -0.2715488076210022, -0.0004328036156948656, -0.003927431534975767, 0.9974416494369507, -0.9217146635055542, -1.6646783351898193, -0.5458282232284546, 0.0, 0.0, 0.0, 0, 0, 0, 0, 0, 0, -0.9232276082038879, -1.6676722764968872, -0.5468236207962036
14438, 0.018305186182260513, -0.04124325141310692, 0.007562754210084677, -0.09299267828464508, 0.014826834201812744, 0.19254952669143677, -0.0005838223733007908, -0.001862292643636465, 1.0003044605255127, -0.9232276082038879, -1.6676722764968872, -0.5468236207962036, 0.0, 0.0, 0.0, 0, 0, 0, 0, 0, 0, -0.924740731716156, -1.670669674873352, -0.5478206872940063
14448, 0.01845628023147583, -0.042228054255247116, 0.008256830275058746, 0.043971408158540726, 0.21510843932628632, 0.10263553261756897, -0.0020896331407129765, -0.0030328163411468267, 1.0019259452819824, -0.924740731716156, -1.670669674873352, -0.5478206872940063, 0.0, 0.0, 0.0, 0, 0, 0, 0, 0, 0, -0.9262542128562927, -1.6736702919006348, -0.5488172173500061
14458, 0.018655329942703247, -0.04171505197882652, 0.00939920824021101, 0.07262647151947021, -0.07353750616312027, 0.15403731167316437, -0.0007491166470572352, -0.0025717702228575945, 1.000777244567871, -0.9262542128562927, -1.6736702919006348, -0.5488172173500061, 0.0, 0.0, 0.0, 0, 0, 0, 0, 0, 0, -0.9277684092521667, -1.6766738891601562, -0.5498121976852417
14468, 0.01909436471760273, -0.04099392145872116, 0.010136093944311142, 0.0883701741695404, -0.03835885971784592, 0.18869775533676147, -0.0018349525053054094, -0.0024557632859796286, 0.999041736125946, -0.9277684092521667, -1.6766738891601562, -0.5498121976852417, 0.0, 0.0, 0.0, 0, 0, 0, 0, 0, 0, -0.929283082485199, -1.6796802282333374, -0.5508068799972534
14478, 0.019799796864390373, -0.04248363897204399, 0.009411675855517387, 0.1093229204416275, 0.22066329419612885, 0.03245186060667038, -0.0005084073636680841, -0.0019495354499667883, 0.998124897480011, -0.929283082485199, -1.6796802282333374, -0.5508068799972534, 0.0, 0.0, 0.0, 0, 0, 0, 0, 0, 0, -0.9307979941368103, -1.6826890707015991, -0.5518025755882263
14488, 0.019127340987324715, -0.04296444356441498, 0.009441960602998734, -0.14684361219406128, 0.02049284055829048, 0.011691434308886528, -0.001258622738532722, -0.0030954061076045036, 0.9980230927467346, -0.9307979941368103, -1.6826890707015991, -0.5518025755882263, 0.0, 0.0, 0.0, 0, 0, 0, 0, 0, 0, -0.9323133230209351, -1.6857004165649414, -0.5527998805046082
14498, 0.02093680016696453, -0.04143044725060463, 0.010033250786364079, 0.28299790620803833, -0.29906338453292847, 0.08728513866662979, -0.0013280923012644053, -0.001812002738006413, 0.9978270530700684, -0.9323133230209351, -1.6857004165649414, -0.5527998805046082, 0.0, 0.0, 0.0, 0, 0, 0, 0, 0, 0, -0.9338292479515076, -1.6887145042419434, -0.5537989735603333
14508, 0.020847348496317863, -0.041876863688230515, 0.009489617310464382, -0.028362980112433434, 0.12625634670257568, -0.10500802099704742, -0.003031268250197172, -0.0007905131205916405, 0.9991976618766785, -0.9338292479515076, -1.6887145042419434, -0.5537989735603333, 0.0, 0.0, 0.0, 0, 0, 0, 0, 0, 0, -0.9353465437889099, -1.691730260848999, -0.5547994375228882
14518, 0.021318688988685608, -0.03985898196697235, 0.010910166427493095, 0.0600275993347168, -0.21329857409000397, 0.30786481499671936, -0.0016292498912662268, -0.0034517936874181032, 0.9986314177513123, -0.9353465437889099, -1.691730260848999, -0.5547994375228882, 0.0, 0.0, 0.0, 0, 0, 0, 0, 0, 0, -0.9368654489517212, -1.694748044013977, -0.5558010339736938
14528, 0.022296853363513947, -0.03991534933447838, 0.011732201091945171, 0.0854262262582779, 0.0971393883228302, 0.2543705403804779, 0.0009062844328582287, -0.0022762755397707224, 0.9966457486152649, -0.9368654489517212, -1.694748044013977, -0.5558010339736938, 0.0, 0.0, 0.0, 0, 0, 0, 0, 0, 0, -0.9383842349052429, -1.697769045829773, -0.5568042397499084
14538, 0.021134814247488976, -0.0409715361893177, 0.011436623521149158, -0.27937182784080505, 0.18370947241783142, -0.009663933888077736, -0.001076870015822351, -0.0027033777441829443, 0.9976537823677063, -0.9383842349052429, -1.697769045829773, -0.5568042397499084, 0.0, 0.0, 0.0, 0, 0, 0, 0, 0, 0, -0.9399023652076721, -1.700792908668518, -0.5578098893165588
14548, 0.021089576184749603, -0.04071160778403282, 0.010568895377218723, -0.06716421246528625, 0.16716526448726654, -0.1308019906282425, -0.0008497782982885838, -0.00544285774230957, 0.9983636736869812, -0.9399023652076721, -1.700792908668518, -0.5578098893165588, 0.0, 0.0, 0.0, 0, 0, 0, 0, 0, 0, -0.9414206743240356, -1.7038205862045288, -0.5588175654411316
14558, 0.020586928352713585, -0.03961646556854248, 0.01146137434989214, -0.07917904853820801, -0.19331027567386627, 0.04056108742952347, -0.0013976232148706913, -0.001759244711138308, 0.9989176392555237, -0.9414206743240356, -1.7038205862045288, -0.5588175654411316, 0.0, 0.0, 0.0, 0, 0, 0, 0, 0, 0, -0.942939281463623, -1.7068524360656738, -0.559826672077179
14568, 0.021459419280290604, -0.038449108600616455, 0.01123209111392498, 0.08951166272163391, -0.272050678730011, -0.0982031524181366, -0.00266864150762558, -0.0011101749259978533, 0.9985028505325317, -0.942939281463623, -1.7068524360656738, -0.559826672077179, 0.0, 0.0, 0.0, 0, 0, 0, 0, 0, 0, -0.9444589018821716, -1.709886908531189, -0.5608372092247009
14578, 0.02131596766412258, -0.03899412602186203, 0.01225581206381321, -0.06939131766557693, 0.18278026580810547, 0.089358389377594, -0.002732879715040326, -0.0021239391062408686, 0.9986935257911682, -0.9444589018821716, -1.709886908531189, -0.5608372092247009, 0.0, 0.0, 0.0, 0, 0, 0, 0, 0, 0, -0.9459802508354187, -1.7129231691360474, -0.5618492364883423
14588, 0.021162020042538643, -0.03850487619638443, 0.012225056998431683, -0.1678159534931183, 0.006852622143924236, -0.08876895904541016, -0.000843341345898807, -0.003664483781903982, 1.000740647315979, -0.9459802508354187, -1.7129231691360474, -0.5618492364883423, 0.0, 0.0, 0.0, 0, 0, 0, 0, 0, 0, -0.9475029110908508, -1.715962290763855, -0.5628619194030762
14598, 0.02118571475148201, -0.039826057851314545, 0.012939836829900742, 0.06116468459367752, 0.16110379993915558, 0.11803747713565826, -0.0020881062373518944, -0.005166284274309874, 1.0003833770751953, -0.9475029110908508, -1.715962290763855, -0.5628619194030762, 0.0, 0.0, 0.0, 0, 0, 0, 0, 0, 0, -0.9490265846252441, -1.719006061553955, -0.5638743042945862
14608, 0.02100180834531784, -0.03882908821105957, 0.0130503810942173, 0.041029926389455795, -0.17464031279087067, 0.1047687977552414, -0.0011210478842258453, -0.004978879354894161, 1.0006638765335083, -0.9490265846252441, -1.719006061553955, -0.5638743042945862, 0.0, 0.0, 0.0, 0, 0, 0, 0, 0, 0, -0.9505513906478882, -1.7220550775527954, -0.564886212348938
14618, 0.021672625094652176, -0.03914402797818184, 0.012862115167081356, 0.22469539940357208, -0.010537474416196346, 0.14001460373401642, -0.0034708406310528517, -0.0036834466736763716, 0.9970873594284058, -0.9505513906478882, -1.7220550775527954, -0.564886212348938, 0.0, 0.0, 0.0, 0, 0, 0, 0, 0, 0, -0.9520773887634277, -1.7251087427139282, -0.5658988356590271
14628, 0.021708782762289047, -0.03829848766326904, 0.013358556665480137, 0.11900487542152405, -0.10848842561244965, 0.15006472170352936, -0.002046942710876465, -0.0030275906901806593, 0.9972664713859558, -0.9520773887634277, -1.7251087427139282, -0.5658988356590271, 0.0, 0.0, 0.0, 0, 0, 0, 0, 0, 0, -0.9536054134368896, -1.7281663417816162, -0.5669138431549072
14638, 0.021611236035823822, -0.03704850748181343, 0.012970654293894768, -0.030981818214058876, -0.23178930580615997, -0.007903056219220161, -0.0010935493046417832, -0.0038519015070050955, 0.9996572732925415, -0.9536054134368896, -1.7281663417816162, -0.5669138431549072, 0.0, 0.0, 0.0, 0, 0, 0, 0, 0, 0, -0.9551349878311157, -1.7312277555465698, -0.5679308176040649
14648, 0.022476423531770706, -0.03769294545054436, 0.012187355197966099, 0.16296589374542236, 0.12272659689188004, -0.12330037355422974, -0.0034211997408419847, -0.004175136331468821, 1.0008002519607544, -0.9551349878311157, -1.7312277555465698, -0.5679308176040649, 0.0, 0.0, 0.0, 0, 0, 0, 0, 0, 0, -0.9566656947135925, -1.7342934608459473, -0.5689482092857361
14658, 0.022174792364239693, -0.03736702352762222, 0.011370575986802578, 0.1108599454164505, -0.06658127903938293, -0.1261989176273346, -0.0021319198422133923, -0.004610241856426001, 1.0001070499420166, -0.9566656947135925, -1.7342934608459473, -0.5689482092857361, 0.0, 0.0, 0.0, 0, 0, 0, 0, 0, 0, -0.9581981301307678, -1.7373636960983276, -0.569965124130249
14668, 0.02257632277905941, -0.03890872746706009, 0.01217753253877163, -0.015137745067477226, 0.26377052068710327, 0.26601049304008484, -0.0028994535095989704, -0.003481741761788726, 1.0008624792099, -0.9581981301307678, -1.7373636960983276, -0.569965124130249, 0.0, 0.0, 0.0, 0, 0, 0, 0, 0, 0, -0.9597323536872864, -1.7404385805130005, -0.5709816217422485
14678, 0.021874111145734787, -0.04027969762682915, 0.012314003892242908, -0.023859132081270218, 0.03633226454257965, 0.19850482046604156, -0.0011114097433164716, -0.0043446398340165615, 1.0005663633346558, -0.9597323536872864, -1.7404385805130005, -0.5709816217422485, 0.0, 0.0, 0.0, 0, 0, 0, 0, 0, 0, -0.9612681865692139, -1.7435178756713867, -0.5719974637031555
14688, 0.02256280742585659, -0.04227533936500549, 0.012276698835194111, 0.11509206891059875, 0.1251494586467743, -0.05807609483599663, -0.0016614340711385012, -0.0023910508025437593, 0.9975039958953857, -0.9612681865692139, -1.7435178756713867, -0.5719974637031555, 0.0, 0.0, 0.0, 0, 0, 0, 0, 0, 0, -0.9628048539161682, -1.7466009855270386, -0.5730138421058655
14698, 0.022632988169789314, -0.0414898656308651, 0.011407693848013878, 0.03442173823714256, -0.0933307409286499, -0.15251629054546356, -0.0015539736486971378, -0.004407006781548262, 0.9988446831703186, -0.9628048539161682, -1.7466009855270386, -0.5730138421058655, 0.0, 0.0, 0.0, 0, 0, 0, 0, 0, 0, -0.9643423557281494, -1.7496877908706665, -0.5740318894386292
14708, 0.02194065973162651, -0.04338096082210541, 0.011704232543706894, -0.04691389948129654, 0.32927411794662476, 0.07615426927804947, -0.0013912452850490808, -0.004143510479480028, 0.9985517263412476, -0.9643423557281494, -1.7496877908706665, -0.5740318894386292, 0.0, 0.0, 0.0, 0, 0, 0, 0, 0, 0, -0.9658808708190918, -1.7527788877487183, -0.5750510692596436
14718, 0.02228921465575695, -0.04180606082081795, 0.012708257883787155, -0.03853950649499893, -0.11665155738592148, 0.034985028207302094, -0.004849473480135202, -0.0022392997052520514, 0.9977508187294006, -0.9658808708190918, -1.7527788877487183, -0.5750510692596436, 0.0, 0.0, 0.0, 0, 0, 0, 0, 0, 0, -0.9674214124679565, -1.7558737993240356, -0.5760718584060669
14728, 0.022382406517863274, -0.04186982288956642, 0.0130637651309371, 0.011624789796769619, 0.10052359104156494, 0.04475148394703865, -0.0013917488977313042, -0.004144242499023676, 0.9987301826477051, -0.9674214124679565, -1.7558737993240356, -0.5760718584060669, 0.0, 0.0, 0.0, 0, 0, 0, 0, 0, 0, -0.9689643979072571, -1.7589722871780396, -0.5770946145057678
14738, 0.021989254280924797, -0.040139149874448776, 0.012030299752950668, -0.07383474707603455, -0.10856296867132187, -0.18949460983276367, -0.0023282733745872974, -0.003387712175026536, 1.0019346475601196, -0.9689643979072571, -1.7589722871780396, -0.5770946145057678, 0.0, 0.0, 0.0, 0, 0, 0, 0, 0, 0, -0.9705086946487427, -1.762074589729309, -0.5781175494194031
14748, 0.021177956834435463, -0.040810756385326385, 0.012282715179026127, -0.11438388377428055, 0.08894554525613785, 0.0426725298166275, -0.003272685222327709, -0.0035054143518209457, 1.0000919103622437, -0.9705086946487427, -1.762074589729309, -0.5781175494194031, 0.0, 0.0, 0.0, 0, 0, 0, 0, 0, 0, -0.9720543622970581, -1.7651807069778442, -0.5791392922401428
14758, 0.020763834938406944, -0.03918704763054848, 0.012480925768613815, 0.09547211229801178, -0.1460440754890442, 0.028019320219755173, -0.002595417434349656, -0.0010305256582796574, 1.0002565383911133, -0.9720543622970581, -1.7651807069778442, -0.5791392922401428, 0.0, 0.0, 0.0, 0, 0, 0, 0, 0, 0, -0.9736021757125854, -1.76828932762146, -0.5801603198051453
14768, 0.020285695791244507, -0.03822851926088333, 0.012035244144499302, -0.06012718006968498, -0.17912711203098297, 0.13000448048114777, -0.004331071861088276, 0.0001279460557270795, 0.998047411441803, -0.9736021757125854, -1.76828932762146, -0.5801603198051453, 0.0, 0.0, 0.0, 0, 0, 0, 0, 0, 0, -0.9751524329185486, -1.7713991403579712, -0.581182062625885
14778, 0.020947471261024475, -0.04021342843770981, 0.011733871884644032, 0.1280512511730194, 0.3650135397911072, -0.06456521153450012, -0.003522893413901329, -0.003820286365225911, 0.9991636276245117, -0.9751524329185486, -1.7713991403579712, -0.581182062625885, 0.0, 0.0, 0.0, 0, 0, 0, 0, 0, 0, -0.9767056107521057, -1.7745107412338257, -0.5822049379348755
14788, 0.02220173180103302, -0.04027247801423073, 0.01144367828965187, 0.15199384093284607, 0.09292422980070114, -0.16611064970493317, -0.001154256286099553, -0.00222781952470541, 0.999447762966156, -0.9767056107521057, -1.7745107412338257, -0.5822049379348755, 0.0, 0.0, 0.0, 0, 0, 0, 0, 0, 0, -0.9782611727714539, -1.777625322341919, -0.5832285284996033
14798, 0.02176465280354023, -0.04114269092679024, 0.011396393179893494, -0.08090681582689285, 0.0947183147072792, 0.004592439625412226, -0.0021308178547769785, -0.0031853513792157173, 0.9994779229164124, -0.9782611727714539, -1.777625322341919, -0.5832285284996033, 0.0, 0.0, 0.0, 0, 0, 0, 0, 0, 0, -0.9798176288604736, -1.78074312210083, -0.5842528939247131
14808, 0.021781889721751213, -0.04048158600926399, 0.010332013480365276, 0.026802869513630867, -0.16103452444076538, -0.06712861359119415, -0.0021077916026115417, -0.0015501928282901645, 1.0017002820968628, -0.9798176288604736, -1.78074312210083, -0.5842528939247131, 0.0, 0.0, 0.0, 0, 0, 0, 0, 0, 0, -0.9813751578330994, -1.7838634252548218, -0.5852770209312439
14818, 0.021478919312357903, -0.043381500989198685, 0.010891105979681015, -0.11103782057762146, 0.34723809361457825, 0.008899216540157795, -0.0029238269198685884, -0.0025358484126627445, 0.999174177646637, -0.9813751578330994, -1.7838634252548218, -0.5852770209312439, 0.0, 0.0, 0.0, 0, 0, 0, 0, 0, 0, -0.9829344153404236, -1.786985993385315, -0.5863007307052612
14828, 0.022448882460594177, -0.042481858283281326, 0.0120046092197299, 0.15684519708156586, 0.067830890417099, 0.24104776978492737, -0.0021904732566326857, -0.000989248976111412, 0.9997031092643738, -0.9829344153404236, -1.786985993385315, -0.5863007307052612, 0.0, 0.0, 0.0, 0, 0, 0, 0, 0, 0, -0.9844955205917358, -1.7901108264923096, -0.5873246192932129
14838, 0.021511029452085495, -0.04284776374697685, 0.010556544177234173, -0.11366850882768631, 0.2063528597354889, -0.22136034071445465, -0.0018127955263480544, -0.0018946236232295632, 1.0013049840927124, -0.9844955205917358, -1.7901108264923096, -0.5873246192932129, 0.0, 0.0, 0.0, 0, 0, 0, 0, 0, 0, -0.9860583543777466, -1.7932372093200684, -0.5883480906486511
14848, 0.02177254669368267, -0.043315354734659195, 0.00975946057587862, -0.05766826495528221, 0.18460102379322052, -0.05828351154923439, -0.0017765696393325925, -0.003548705717548728, 0.9978368878364563, -0.9860583543777466, -1.7932372093200684, -0.5883480906486511, 0.0, 0.0, 0.0, 0, 0, 0, 0, 0, 0, -0.9876223802566528, -1.7963660955429077, -0.5893718004226685
14858, 0.021457411348819733, -0.04420274868607521, 0.009707634337246418, -0.10910535603761673, 0.23747053742408752, 0.03757552057504654, -0.0031962201464921236, -0.0023646033369004726, 1.000435709953308, -0.9876223802566528, -1.7963660955429077, -0.5893718004226685, 0.0, 0.0, 0.0, 0, 0, 0, 0, 0, 0, -0.989188015460968, -1.799498200416565, -0.5903962254524231
14868, 0.021077031269669533, -0.04401277378201485, 0.009608518332242966, -0.037895526736974716, 0.04311630129814148, -0.144717276096344, -0.0012062638998031616, -0.0018952115206047893, 0.9992618560791016, -0.989188015460968, -1.799498200416565, -0.5903962254524231, 0.0, 0.0, 0.0, 0, 0, 0, 0, 0, 0, -0.9907552599906921, -1.8026329278945923, -0.5914211273193359
14878, 0.020627940073609352, -0.04559716209769249, 0.009566226974129677, -0.07978106290102005, 0.24156223237514496, -0.07980909198522568, -0.001679227571003139, -0.0048512681387364864, 0.9997139573097229, -0.9907552599906921, -1.8026329278945923, -0.5914211273193359, 0.0, 0.0, 0.0, 0, 0, 0, 0, 0, 0, -0.9923232793807983, -1.805770754814148, -0.5924465656280518
14888, 0.02090398035943508, -0.045997340232133865, 0.010957697406411171, 0.0759626254439354, -0.0787990465760231, 0.24962541460990906, -0.0014771957648918033, -0.0044693355448544025, 1.000324010848999, -0.9923232793807983, -1.805770754814148, -0.5924465656280518, 0.0, 0.0, 0.0, 0, 0, 0, 0, 0, 0, -0.9938920140266418, -1.8089133501052856, -0.5934720039367676
14898, 0.0210628230124712, -0.046586256474256516, 0.011271661147475243, 0.04198013246059418, 0.09169221669435501, 0.04747030884027481, -0.001263968413695693, -0.001669444260187447, 0.9989221692085266, -0.9938920140266418, -1.8089133501052856, -0.5934720039367676, 0.0, 0.0, 0.0, 0, 0, 0, 0, 0, 0, -0.9954614043235779, -1.812059998512268, -0.5944976210594177
14908, 0.02129554934799671, -0.04590900242328644, 0.011581100523471832, 0.00489220954477787, -0.039553552865982056, 0.10667208582162857, -0.0009566879598423839, -0.0021156631410121918, 0.9994407296180725, -0.9954614043235779, -1.812059998512268, -0.5944976210594177, 0.0, 0.0, 0.0, 0, 0, 0, 0, 0, 0, -0.9970312118530273, -1.815209150314331, -0.5955240726470947
14918, 0.021571027114987373, -0.04472794011235237, 0.01065152883529663, -0.05228836461901665, -0.11463744193315506, -0.15417702496051788, -0.0017656974960118532, -0.0020715573336929083, 1.0021811723709106, -0.9970312118530273, -1.815209150314331, -0.5955240726470947, 0.0, 0.0, 0.0, 0, 0, 0, 0, 0, 0, -0.9986016154289246, -1.8183608055114746, -0.596550464630127
14928, 0.02006405219435692, -0.045650776475667953, 0.008989541791379452, -0.1403225064277649, 0.28987643122673035, -0.2906911373138428, -0.00313697406090796, -0.0020705058705061674, 1.0002747774124146, -0.9986016154289246, -1.8183608055114746, -0.596550464630127, 0.0, 0.0, 0.0, 0, 0, 0, 0, 0, 0, -1.0001734495162964, -1.8215148448944092, -0.5975756645202637
14938, 0.019603103399276733, -0.04347096011042595, 0.008087397553026676, 0.013347561471164227, -0.24649839103221893, -0.0953434482216835, -0.0023314817808568478, -0.001943866373039782, 0.9991146922111511, -1.0001734495162964, -1.8215148448944092, -0.5975756645202637, 0.0, 0.0, 0.0, 0, 0, 0, 0, 0, 0, -1.0017472505569458, -1.8246710300445557, -0.5986009240150452
14948, 0.019186977297067642, -0.04163799807429314, 0.006809827405959368, 0.013375835493206978, -0.165710911154747, -0.21912726759910583, -0.0003072923864237964, -0.0011006741551682353, 0.9983058571815491, -1.0017472505569458, -1.8246710300445557, -0.5986009240150452, 0.0, 0.0, 0.0, 0, 0, 0, 0, 0, 0, -1.0033220052719116, -1.8278290033340454, -0.5996276140213013
14958, 0.01921704038977623, -0.042191311717033386, 0.008315314538776875, 0.01805327646434307, 0.029162099584937096, 0.08331312984228134, -0.001893411623314023, -7.945897232275456e-05, 1.0002318620681763, -1.0033220052719116, -1.8278290033340454, -0.5996276140213013, 0.0, 0.0, 0.0, 0, 0, 0, 0, 0, 0, -1.004897117614746, -1.8309881687164307, -0.6006551384925842
14968, 0.01971474289894104, -0.042526885867118835, 0.009333453141152859, 0.08761771023273468, -0.15404941141605377, 0.07163257896900177, -0.0018395971274003386, -0.0016137977363541722, 0.9999898672103882, -1.004897117614746, -1.8309881687164307, -0.6006551384925842, 0.0, 0.0, 0.0, 0, 0, 0, 0, 0, 0, -1.006473183631897, -1.8341481685638428, -0.6016824841499329
14978, 0.01936928741633892, -0.04444683715701103, 0.010511429980397224, -0.05283431336283684, 0.246577650308609, 0.21244190633296967, 0.00018903023737948388, -0.003709647571668029, 0.9999939799308777, -1.006473183631897, -1.8341481685638428, -0.6016824841499329, 0.0, 0.0, 0.0, 0, 0, 0, 0, 0, 0, -1.0080496072769165, -1.837310552597046, -0.6027096509933472
14988, 0.019131606444716454, -0.044702354818582535, 0.011142865754663944, -0.11369645595550537, 0.04922833293676376, 0.1941385716199875, -0.004645075649023056, -0.0018248300766572356, 0.9978014230728149, -1.0080496072769165, -1.837310552597046, -0.6027096509933472, 0.0, 0.0, 0.0, 0, 0, 0, 0, 0, 0, -1.009627103805542, -1.840476155281067, -0.6037375330924988
14998, 0.019215337932109833, -0.04443511739373207, 0.01055176928639412, -0.00917584728449583, 0.011271954514086246, -0.06526485085487366, -0.005081809125840664, -0.0035872093867510557, 0.9978483319282532, -1.009627103805542, -1.840476155281067, -0.6037375330924988, 0.0, 0.0, 0.0, 0, 0, 0, 0, 0, 0, -1.0112076997756958, -1.8436452150344849, -0.6047675609588623
15008, 0.01901991479098797, -0.042832862585783005, 0.00981852412223816, -0.029105981811881065, -0.25954189896583557, -0.05443796515464783, -0.0008817986818030477, -0.0030455742962658405, 0.9963504672050476, -1.0112076997756958, -1.8436452150344849, -0.6047675609588623, 0.0, 0.0, 0.0, 0, 0, 0, 0, 0, 0, -1.0127906799316406, -1.8468177318572998, -0.6058002710342407
15018, 0.019009703770279884, -0.04415028169751167, 0.010930579155683517, -0.0763179287314415, 0.07394453138113022, 0.22839385271072388, -0.0013270140625536442, -0.002420036355033517, 0.9964792132377625, -1.0127906799316406, -1.8468177318572998, -0.6058002710342407, 0.0, 0.0, 0.0, 0, 0, 0, 0, 0, 0, -1.0143742561340332, -1.8499934673309326, -0.606836199760437
15028, 0.019390219822525978, -0.043253637850284576, 0.010643322952091694, 0.031187761574983597, -0.0857689157128334, -0.03405563160777092, -0.002174881286919117, 0.0009619994671083987, 0.9966690540313721, -1.0143742561340332, -1.8499934673309326, -0.606836199760437, 0.0, 0.0, 0.0, 0, 0, 0, 0, 0, 0, -1.0159584283828735, -1.85317063331604, -0.6078755855560303
15038, 0.01907307840883732, -0.04059755802154541, 0.010633667930960655, -0.2031487673521042, -0.23348449170589447, -0.036524105817079544, -0.0017072305781766772, -0.0026553100906312466, 0.9985302090644836, -1.0159584283828735, -1.85317063331604, -0.6078755855560303, 0.0, 0.0, 0.0, 0, 0, 0, 0, 0, 0, -1.0175437927246094, -1.8563488721847534, -0.6089175343513489
15048, 0.018895519897341728, -0.041253186762332916, 0.010917250998318195, -0.12061262130737305, 0.14751622080802917, -0.05368119850754738, -0.002433276502415538, -0.0029283305630087852, 0.9972374439239502, -1.0175437927246094, -1.8563488721847534, -0.6089175343513489, 0.0, 0.0, 0.0, 0, 0, 0, 0, 0, 0, -1.0191302299499512, -1.8595298528671265, -0.6099615693092346
15058, 0.018407542258501053, -0.0423646941781044, 0.011368355713784695, -0.18961985409259796, 0.09419380128383636, 0.02968609891831875, -4.7369235289806966e-06, -0.005471969023346901, 0.9988031387329102, -1.0191302299499512, -1.8595298528671265, -0.6099615693092346, 0.0, 0.0, 0.0, 0, 0, 0, 0, 0, 0, -1.0207175016403198, -1.8627150058746338, -0.611007571220398
15068, 0.01875927858054638, -0.0435507595539093, 0.011728745885193348, 0.001981101930141449, 0.09099727123975754, 0.024247920140624046, -0.0017841310473158956, -0.003027703845873475, 0.9995040893554688, -1.0207175016403198, -1.8627150058746338, -0.611007571220398, 0.0, 0.0, 0.0, 0, 0, 0, 0, 0, 0, -1.022304892539978, -1.8659045696258545, -0.6120548248291016
15078, 0.018649911507964134, -0.04468482360243797, 0.012109698727726936, 0.02975529246032238, 0.09027361869812012, -0.07465646415948868, -0.0015851957723498344, -0.0019891723059117794, 0.9992390871047974, -1.022304892539978, -1.8659045696258545, -0.6120548248291016, 0.0, 0.0, 0.0, 0, 0, 0, 0, 0, 0, -1.0238927602767944, -1.8690972328186035, -0.6131026744842529
15088, 0.019276848062872887, -0.04394932836294174, 0.012004844844341278, 0.049673907458782196, -0.09872457385063171, -0.21269498765468597, -0.002783709904178977, -0.002348033944144845, 0.9992460012435913, -1.0238927602767944, -1.8690972328186035, -0.6131026744842529, 0.0, 0.0, 0.0, 0, 0, 0, 0, 0, 0, -1.025481939315796, -1.872292160987854, -0.6141510605812073
15098, 0.02022174559533596, -0.04380737617611885, 0.010943345725536346, 0.17195767164230347, 0.04390624165534973, -0.24640028178691864, -0.0033286355901509523, -0.004605117719620466, 0.9988683462142944, -1.025481939315796, -1.872292160987854, -0.6141510605812073, 0.0, 0.0, 0.0, 0, 0, 0, 0, 0, 0, -1.0270733833312988, -1.8754905462265015, -0.6152002811431885
15108, 0.02038942649960518, -0.04258940368890762, 0.010606580413877964, 0.047832049429416656, -0.14661383628845215, 0.0361609160900116, 4.399650060804561e-05, -0.0027685649693012238, 1.0003855228424072, -1.0270733833312988, -1.8754905462265015, -0.6152002811431885, 0.0, 0.0, 0.0, 0, 0, 0, 0, 0, 0, -1.0286660194396973, -1.8786929845809937, -0.616250216960907
15118, 0.020359203219413757, -0.04186069592833519, 0.010216128081083298, 0.005247729364782572, -0.12182913720607758, 0.00178375409450382, -0.000585620291531086, -0.002977032447233796, 0.9998790621757507, -1.0286660194396973, -1.8786929845809937, -0.616250216960907, 0.0, 0.0, 0.0, 0, 0, 0, 0, 0, 0, -1.030258297920227, -1.8818988800048828, -0.617300271987915
15128, 0.020247185602784157, -0.043102990835905075, 0.01008646935224533, 0.08989028632640839, 0.17007111012935638, -0.1000550389289856, -0.0008158106356859207, -0.00354955717921257, 1.0007444620132446, -1.030258297920227, -1.8818988800048828, -0.617300271987915, 0.0, 0.0, 0.0, 0, 0, 0, 0, 0, 0, -1.0318504571914673, -1.8851083517074585, -0.6183502078056335
15138, 0.02052656002342701, -0.043768756091594696, 0.010722406208515167, 0.08882272988557816, 0.1434745043516159, 0.10707183182239532, -0.0017910458846017718, -0.0019571890588849783, 1.001136302947998, -1.0318504571914673, -1.8851083517074585, -0.6183502078056335, 0.0, 0.0, 0.0, 0, 0, 0, 0, 0, 0, -1.0334433317184448, -1.888321042060852, -0.61939936876297
15148, 0.020477257668972015, -0.043101709336042404, 0.010245376266539097, -0.08211299031972885, -0.12630975246429443, -0.2386806458234787, -0.0032268413342535496, -0.0016039982438087463, 0.9988223314285278, -1.0334433317184448, -1.888321042060852, -0.61939936876297, 0.0, 0.0, 0.0, 0, 0, 0, 0, 0, 0, -1.035037636756897, -1.891535997390747, -0.6204482913017273
15158, 0.020261086523532867, -0.042429570108652115, 0.010600307956337929, 0.01082360278815031, 0.07075756043195724, 0.15751563012599945, -0.0011293061543256044, -0.002683656057342887, 1.0002610683441162, -1.035037636756897, -1.891535997390747, -0.6204482913017273, 0.0, 0.0, 0.0, 0, 0, 0, 0, 0, 0, -1.0366334915161133, -1.8947532176971436, -0.6214972734451294
15168, 0.018722858279943466, -0.04193243756890297, 0.007915780879557133, -0.30145981907844543, 0.1422485113143921, -0.3850005269050598, -0.002561442321166396, -0.004669316578656435, 0.9977058172225952, -1.0366334915161133, -1.8947532176971436, -0.6214972734451294, 0.0, 0.0, 0.0, 0, 0, 0, 0, 0, 0, -1.0382307767868042, -1.8979740142822266, -0.622546911239624
15178, 0.017597081139683723, -0.038774747401475906, 0.0067315055057406425, -0.1298782378435135, -0.3706856369972229, -0.24115905165672302, -0.0029589408077299595, -0.005380120128393173, 0.997566819190979, -1.0382307767868042, -1.8979740142822266, -0.622546911239624, 0.0, 0.0, 0.0, 0, 0, 0, 0, 0, 0, -1.0398297309875488, -1.9011996984481812, -0.6235985159873962
15188, 0.015919599682092667, -0.04006217047572136, 0.006568368058651686, -0.1804073303937912, 0.23834683001041412, -0.07728705555200577, -0.0016130071599036455, -0.001543203485198319, 0.9994962811470032, -1.0398297309875488, -1.9011996984481812, -0.6235985159873962, 0.0, 0.0, 0.0, 0, 0, 0, 0, 0, 0, -1.0414302349090576, -1.904429316520691, -0.6246515512466431
15198, 0.016055135056376457, -0.039379097521305084, 0.005694081541150808, 0.0649530366063118, -0.07247478514909744, -0.13443396985530853, -0.004530924838036299, -0.002895250916481018, 0.9988119006156921, -1.0414302349090576, -1.904429316520691, -0.6246515512466431, 0.0, 0.0, 0.0, 0, 0, 0, 0, 0, 0, -1.0430326461791992, -1.9076616764068604, -0.6257052421569824
15208, 0.01624106429517269, -0.039609555155038834, 0.004079033154994249, 0.07642637938261032, 0.16427314281463623, -0.12354259938001633, -0.0020850019063800573, -0.0026485684793442488, 0.9962460994720459, -1.0430326461791992, -1.9076616764068604, -0.6257052421569824, 0.0, 0.0, 0.0, 0, 0, 0, 0, 0, 0, -1.044637680053711, -1.910896897315979, -0.6267606616020203
15218, 0.016650034114718437, -0.040197763592004776, 0.005513612646609545, 0.02737424708902836, 0.2368135303258896, 0.30733075737953186, -0.0017832060111686587, -0.001581419724971056, 0.9962697625160217, -1.044637680053711, -1.910896897315979, -0.6267606616020203, 0.0, 0.0, 0.0, 0, 0, 0, 0, 0, 0, -1.046244502067566, -1.9141348600387573, -0.6278194785118103
15228, 0.016982639208436012, -0.03944080322980881, 0.004783544689416885, 0.05858505517244339, 0.12473233789205551, -0.050246939063072205, -0.0005608911160379648, -0.00509923230856657, 1.0005600452423096, -1.046244502067566, -1.9141348600387573, -0.6278194785118103, 0.0, 0.0, 0.0, 0, 0, 0, 0, 0, 0, -1.0478520393371582, -1.917375922203064, -0.6288803815841675
15238, 0.017052359879016876, -0.037205591797828674, 0.005077087786048651, -0.04904380068182945, -0.303086519241333, -0.019980639219284058, -0.0014511306071653962, -0.004294728860259056, 0.999965250492096, -1.0478520393371582, -1.917375922203064, -0.6288803815841675, 0.0, 0.0, 0.0, 0, 0, 0, 0, 0, 0, -1.0494599342346191, -1.9206212759017944, -0.6299412250518799
15248, 0.01652924343943596, -0.035888344049453735, 0.005125387106090784, -0.19234301149845123, -0.16619515419006348, -0.07488901913166046, -0.003249318338930607, -0.004149487242102623, 0.9979730844497681, -1.0494599342346191, -1.9206212759017944, -0.6299412250518799, 0.0, 0.0, 0.0, 0, 0, 0, 0, 0, 0, -1.0510691404342651, -1.9238711595535278, -0.6310027241706848
15258, 0.01672607846558094, -0.03499111905694008, 0.0058273510076105595, 0.1006072610616684, -0.19863849878311157, 0.2201840579509735, -0.0016118644271045923, -0.002769275102764368, 0.9991984963417053, -1.0510691404342651, -1.9238711595535278, -0.6310027241706848, 0.0, 0.0, 0.0, 0, 0, 0, 0, 0, 0, -1.0526800155639648, -1.9271247386932373, -0.6320652961730957
15268, 0.017752958461642265, -0.035046063363552094, 0.006697128061205149, 0.24157270789146423, -0.07653487473726273, 0.09926076233386993, -0.0018922830931842327, -0.0029284541960805655, 0.998580813407898, -1.0526800155639648, -1.9271247386932373, -0.6320652961730957, 0.0, 0.0, 0.0, 0, 0, 0, 0, 0, 0, -1.05429208278656, -1.9303812980651855, -0.6331289410591125
15278, 0.01813986338675022, -0.03582388535141945, 0.00558098591864109, 0.07852048426866531, 0.06584767252206802, -0.32100558280944824, -0.001659292378462851, -0.0036688519176095724, 0.9986674189567566, -1.05429208278656, -1.9303812980651855, -0.6331289410591125, 0.0, 0.0, 0.0, 0, 0, 0, 0, 0, 0, -1.0559052228927612, -1.9336414337158203, -0.6341938376426697
15288, 0.018516026437282562, -0.03419368714094162, 0.006337644997984171, -0.042921338230371475, -0.2924635708332062, -0.07841610163450241, -0.001478969701565802, -0.003859691321849823, 0.9988558292388916, -1.0559052228927612, -1.9336414337158203, -0.6341938376426697, 0.0, 0.0, 0.0, 0, 0, 0, 0, 0, 0, -1.0575190782546997, -1.9369053840637207, -0.6352599263191223
15298, 0.020159829407930374, -0.03315841034054756, 0.00627882219851017, 0.21226614713668823, -0.21930786967277527, 0.10122665017843246, -0.002801746129989624, -0.0024481681175529957, 0.9987393617630005, -1.0575190782546997, -1.9369053840637207, -0.6352599263191223, 0.0, 0.0, 0.0, 0, 0, 0, 0, 0, 0, -1.0591341257095337, -1.940172791481018, -0.6363272070884705
15308, 0.019294919446110725, -0.03470398858189583, 0.005791516974568367, -0.06677356362342834, 0.2630758583545685, -0.05372558906674385, -0.0016106631373986602, -0.004465676844120026, 0.9985201358795166, -1.0591341257095337, -1.940172791481018, -0.6363272070884705, 0.0, 0.0, 0.0, 0, 0, 0, 0, 0, 0, -1.060750961303711, -1.943443775177002, -0.637395977973938
15318, 0.020026953890919685, -0.0354122631251812, 0.005492874886840582, 0.1380755752325058, 0.0094266626983881, -0.04237671196460724, -0.0019088620319962502, -0.004358493722975254, 0.9975511431694031, -1.060750961303711, -1.943443775177002, -0.637395977973938, 0.0, 0.0, 0.0, 0, 0, 0, 0, 0, 0, -1.0623692274093628, -1.9467194080352783, -0.6384665369987488
15328, 0.020155997946858406, -0.036138854920864105, 0.0050022597424685955, -0.06780653446912766, 0.018373671919107437, -0.09531116485595703, -0.0015176053857430816, -0.006249786354601383, 0.9965620040893555, -1.0623692274093628, -1.9467194080352783, -0.6384665369987488, 0.0, 0.0, 0.0, 0, 0, 0, 0, 0, 0, -1.063988447189331, -1.9500004053115845, -0.6395397186279297
15338, 0.019047517329454422, -0.03609458729624748, 0.004833972547203302, -0.12450172007083893, -0.032077252864837646, -0.09268596023321152, -0.002347573172301054, -0.004988240078091621, 0.9999262690544128, -1.063988447189331, -1.9500004053115845, -0.6395397186279297, 0.0, 0.0, 0.0, 0, 0, 0, 0, 0, 0, -1.0656088590621948, -1.953287124633789, -0.6406149864196777
15348, 0.01984315924346447, -0.036022160202264786, 0.007127922959625721, 0.0713827833533287, -0.024609101936221123, 0.1665283441543579, -0.0037054193671792746, -0.0012866193428635597, 0.9959759712219238, -1.0656088590621948, -1.953287124633789, -0.6406149864196777, 0.0, 0.0, 0.0, 0, 0, 0, 0, 0, 0, -1.0672311782836914, -1.956578016281128, -0.6416921615600586
15358, 0.01884877309203148, -0.036711204797029495, 0.006492639891803265, -0.05459781736135483, 0.056618787348270416, -0.06849244982004166, -0.0017950409092009068, -0.0018994194688275456, 0.9979854226112366, -1.0672311782836914, -1.956578016281128, -0.6416921615600586, 0.0, 0.0, 0.0, 0, 0, 0, 0, 0, 0, -1.0688555240631104, -1.9598710536956787, -0.6427720785140991
15368, 0.01888149231672287, -0.03671283647418022, 0.006786718033254147, 0.021878674626350403, -0.04659750685095787, 0.04220746457576752, -0.0023634773679077625, -0.00146611244417727, 0.9989808797836304, -1.0688555240631104, -1.9598710536956787, -0.6427720785140991, 0.0, 0.0, 0.0, 0, 0, 0, 0, 0, 0, -1.070481300354004, -1.9631659984588623, -0.6438539028167725
15378, 0.019739123061299324, -0.03624636307358742, 0.0051762619987130165, 0.13180552423000336, -0.1519717127084732, -0.38888558745384216, -0.0017772268038243055, -0.0026264344342052937, 0.9973580837249756, -1.070481300354004, -1.9631659984588623, -0.6438539028167725, 0.0, 0.0, 0.0, 0, 0, 0, 0, 0, 0, -1.072108507156372, -1.966463327407837, -0.6449370980262756
15388, 0.019792465493083, -0.03716758266091347, 0.004554450046271086, -0.06437860429286957, 0.27100205421447754, -0.2012956738471985, -0.001856315298937261, -0.0017573344521224499, 0.9992326498031616, -1.072108507156372, -1.966463327407837, -0.6449370980262756, 0.0, 0.0, 0.0, 0, 0, 0, 0, 0, 0, -1.0737372636795044, -1.9697632789611816, -0.6460222005844116
15398, 0.02087702788412571, -0.03635004907846451, 0.004066749941557646, 0.060544975101947784, -0.005753362085670233, -0.17070764303207397, -0.0012240094365552068, -0.002429868560284376, 1.0002950429916382, -1.0737372636795044, -1.9697632789611816, -0.6460222005844116, 0.0, 0.0, 0.0, 0, 0, 0, 0, 0, 0, -1.0753668546676636, -1.973065733909607, -0.6471081376075745
15408, 0.02077886462211609, -0.03614310175180435, 0.004950594622641802, 0.009207368828356266, -0.06492051482200623, 0.17631112039089203, -0.00025241897674277425, -0.0021273684687912464, 1.0004839897155762, -1.0753668546676636, -1.973065733909607, -0.6471081376075745, 0.0, 0.0, 0.0, 0, 0, 0, 0, 0, 0, -1.0769966840744019, -1.976371169090271, -0.6481937170028687
15418, 0.020897410809993744, -0.036902498453855515, 0.00448920764029026, -0.029570184648036957, 0.08849083632230759, -0.07683542370796204, -0.0029881601221859455, -0.002252753358334303, 0.9999349117279053, -1.0769966840744019, -1.976371169090271, -0.6481937170028687, 0.0, 0.0, 0.0, 0, 0, 0, 0, 0, 0, -1.0786272287368774, -1.979678988456726, -0.6492791175842285
15428, 0.021418968215584755, -0.037225883454084396, 0.003955225460231304, 0.0567927323281765, -0.032172221690416336, -0.16444435715675354, -7.255779928527772e-05, -0.0024120670277625322, 0.9978532195091248, -1.0786272287368774, -1.979678988456726, -0.6492791175842285, 0.0, 0.0, 0.0, 0, 0, 0, 0, 0, 0, -1.0802587270736694, -1.9829894304275513, -0.6503652930259705
15438, 0.021538978442549706, -0.036909155547618866, 0.0044899266213178635, -0.028880063444375992, -0.1457764208316803, 0.08584509789943695, -0.0004737945564556867, -0.0010320328874513507, 0.998137891292572, -1.0802587270736694, -1.9829894304275513, -0.6503652930259705, 0.0, 0.0, 0.0, 0, 0, 0, 0, 0, 0, -1.0818901062011719, -1.9863022565841675, -0.6514534950256348
15448, 0.02250726893544197, -0.038610100746154785, 0.004387985914945602, 0.11007394641637802, 0.30691206455230713, -0.16215668618679047, -0.0018158328020945191, -0.0026979653630405664, 0.9992644190788269, -1.0818901062011719, -1.9863022565841675, -0.6514534950256348, 0.0, 0.0, 0.0, 0, 0, 0, 0, 0, 0, -1.0835216045379639, -1.9896173477172852, -0.6525431871414185
15458, 0.022540360689163208, -0.038715049624443054, 0.004723162390291691, -0.0018577981973066926, -0.11507344990968704, -0.09671353548765182, -0.0028880818281322718, -0.0022391395177692175, 0.9989751577377319, -1.0835216045379639, -1.9896173477172852, -0.6525431871414185, 0.0, 0.0, 0.0, 0, 0, 0, 0, 0, 0, -1.0851545333862305, -1.992935061454773, -0.6536334753036499
15468, 0.022363267838954926, -0.039343345910310745, 0.004821002017706633, -0.03935512900352478, -0.01892269030213356, -0.08951418846845627, -0.00277442904189229, -0.00407068058848381, 1.0007123947143555, -1.0851545333862305, -1.992935061454773, -0.6536334753036499, 0.0, 0.0, 0.0, 0, 0, 0, 0, 0, 0, -1.0867894887924194, -1.9962561130523682, -0.6547240018844604
15478, 0.02217317931354046, -0.03897092118859291, 0.0038560079410672188, -0.09133876860141754, -0.13383102416992188, -0.21343021094799042, 0.00022010314569342881, -0.002255151979625225, 1.000964641571045, -1.0867894887924194, -1.9962561130523682, -0.6547240018844604, 0.0, 0.0, 0.0, 0, 0, 0, 0, 0, 0, -1.0884252786636353, -1.99958074092865, -0.6558139324188232
15488, 0.021766815334558487, -0.040796972811222076, 0.005887702107429504, 0.00609307736158371, 0.24452310800552368, 0.22525086998939514, -0.0017690174281597137, -0.0014720495091751218, 1.0017346143722534, -1.0884252786636353, -1.99958074092865, -0.6558139324188232, 0.0, 0.0, 0.0, 0, 0, 0, 0, 0, 0, -1.0900615453720093, -2.0029079914093018, -0.6569026708602905
15498, 0.021591350436210632, -0.041120223701000214, 0.005510709248483181, 0.05697556585073471, 0.058950506150722504, -0.14101994037628174, -0.0003659751091618091, -0.002130236243829131, 0.9985092282295227, -1.0900615453720093, -2.0029079914093018, -0.6569026708602905, 0.0, 0.0, 0.0, 0, 0, 0, 0, 0, 0, -1.0916980504989624, -2.006237268447876, -0.6579910516738892
15508, 0.021301988512277603, -0.04105834662914276, 0.004737223032861948, -0.07600419968366623, 0.06351707875728607, -0.16648967564105988, 0.00047710229409858584, -0.0021730014123022556, 1.002002239227295, -1.0916980504989624, -2.006237268447876, -0.6579910516738892, 0.0, 0.0, 0.0, 0, 0, 0, 0, 0, 0, -1.0933337211608887, -2.009568929672241, -0.6590794324874878
15518, 0.02193995751440525, -0.04185745492577553, 0.004735457710921764, 0.04460380971431732, 0.1811116337776184, -0.1166813001036644, -0.0018716887570917606, -0.0026985681615769863, 1.0001702308654785, -1.0933337211608887, -2.009568929672241, -0.6590794324874878, 0.0, 0.0, 0.0, 0, 0, 0, 0, 0, 0, -1.0949691534042358, -2.0129036903381348, -0.6601669788360596
15528, 0.020748840644955635, -0.042130909860134125, 0.005330076906830072, -0.21857105195522308, 0.11986245214939117, -0.09827646613121033, -0.0025899214670062065, -0.002216892782598734, 0.9973427057266235, -1.0949691534042358, -2.0129036903381348, -0.6601669788360596, 0.0, 0.0, 0.0, 0, 0, 0, 0, 0, 0, -1.096605658531189, -2.0162415504455566, -0.6612550616264343
15538, 0.021259328350424767, -0.04327593371272087, 0.0036687692627310753, -0.07042835652828217, 0.03807366266846657, -0.3071649670600891, -0.002185699064284563, -0.003026429796591401, 0.9997844099998474, -1.096605658531189, -2.0162415504455566, -0.6612550616264343, 0.0, 0.0, 0.0, 0, 0, 0, 0, 0, 0, -1.0982438325881958, -2.0195822715759277, -0.6623445749282837
15548, 0.02020389959216118, -0.04446288198232651, 0.0029024924151599407, -0.19617244601249695, 0.31303268671035767, -0.038714002817869186, -0.003057764144614339, -0.002806351985782385, 0.9993584156036377, -1.0982438325881958, -2.0195822715759277, -0.6623445749282837, 0.0, 0.0, 0.0, 0, 0, 0, 0, 0, 0, -1.0998836755752563, -2.022926092147827, -0.6634348630905151
15558, 0.020204465836286545, -0.04511737450957298, 0.0036418591625988483, -0.04031449183821678, 0.03997274488210678, -0.009131967090070248, -0.004310956224799156, -0.0027480539865791798, 1.0019677877426147, -1.0998836755752563, -2.022926092147827, -0.6634348630905151, 0.0, 0.0, 0.0, 0, 0, 0, 0, 0, 0, -1.1015256643295288, -2.026273250579834, -0.6645247936248779
15568, 0.020402561873197556, -0.044564370065927505, 0.003938101697713137, -0.025541573762893677, -0.3325856924057007, -0.06913726031780243, -0.004449748434126377, -0.0013282366562634706, 1.0002777576446533, -1.1015256643295288, -2.026273250579834, -0.6645247936248779, 0.0, 0.0, 0.0, 0, 0, 0, 0, 0, 0, -1.1031709909439087, -2.029623031616211, -0.6656138300895691
15578, 0.019459227100014687, -0.04509676620364189, 0.0032480936497449875, -0.10061012953519821, -0.00900291372090578, -0.0643249973654747, -0.000717729504685849, -0.0016707165632396936, 1.000594139099121, -1.1031709909439087, -2.029623031616211, -0.6656138300895691, 0.0, 0.0, 0.0, 0, 0, 0, 0, 0, 0, -1.1048184633255005, -2.0329749584198, -0.6667023301124573
15588, 0.02061736397445202, -0.04415085166692734, 0.00433352030813694, 0.11203863471746445, -0.05419968441128731, 0.3568464517593384, -0.001699252286925912, -0.0030082091689109802, 0.9983795285224915, -1.1048184633255005, -2.0329749584198, -0.6667023301124573, 0.0, 0.0, 0.0, 0, 0, 0, 0, 0, 0, -1.1064667701721191, -2.0363292694091797, -0.667791485786438
15598, 0.02072618529200554, -0.043636444956064224, 0.0028322141151875257, 0.04352043941617012, 0.02081582136452198, -0.10133512318134308, -0.0020459238439798355, -0.0016694635851308703, 0.9986099600791931, -1.1064667701721191, -2.0363292694091797, -0.667791485786438, 0.0, 0.0, 0.0, 0, 0, 0, 0, 0, 0, -1.1081160306930542, -2.039686441421509, -0.6688823103904724
15608, 0.02009556069970131, -0.0428900271654129, 0.003001463832333684, -0.03851143270730972, -0.09228422492742538, 0.1126609668135643, 8.252512634498999e-05, 0.00046307151205837727, 0.9979207515716553, -1.1081160306930542, -2.039686441421509, -0.6688823103904724, 0.0, 0.0, 0.0, 0, 0, 0, 0, 0, 0, -1.1097660064697266, -2.0430450439453125, -0.6699748039245605
15618, 0.018985917791724205, -0.039951734244823456, 0.0013022833736613393, -0.13306927680969238, -0.30042922496795654, -0.10745207965373993, -0.0019687185995280743, 0.0009050196968019009, 0.9984084963798523, -1.1097660064697266, -2.0430450439453125, -0.6699748039245605, 0.0, 0.0, 0.0, 0, 0, 0, 0, 0, 0, -1.111416220664978, -2.046403646469116, -0.6710690259933472
15628, 0.018742535263299942, -0.040570951998233795, -0.0004344551416579634, -0.055068254470825195, 0.23336908221244812, -0.2580857574939728, -0.002571370918303728, -0.0022107716649770737, 0.999289333820343, -1.111416220664978, -2.046403646469116, -0.6710690259933472, 0.0, 0.0, 0.0, 0, 0, 0, 0, 0, 0, -1.113067388534546, -2.049762725830078, -0.6721644401550293
15638, 0.019744886085391045, -0.04056214913725853, -0.00012709808652289212, 0.10770899802446365, 0.24118302762508392, 0.12083768844604492, -0.001612211810424924, -0.0015951074892655015, 0.9994814991950989, -1.113067388534546, -2.049762725830078, -0.6721644401550293, 0.0, 0.0, 0.0, 0, 0, 0, 0, 0, 0, -1.1147202253341675, -2.0531234741210938, -0.6732603907585144
15648, 0.020459240302443504, -0.041228339076042175, -0.0005109763005748391, 0.15500260889530182, -0.007936161011457443, -0.15377277135849, -0.0029789006803184748, -0.0043738181702792645, 0.9978941679000854, -1.1147202253341675, -2.0531234741210938, -0.6732603907585144, 0.0, 0.0, 0.0, 0, 0, 0, 0, 0, 0, -1.1163746118545532, -2.056487560272217, -0.6743574142456055
15658, 0.020820252597332, -0.0426727794110775, 0.0003638230264186859, 0.05717713013291359, 0.2380865216255188, -0.13223415613174438, -0.0038009234704077244, -0.0025014951825141907, 1.0026092529296875, -1.1163746118545532, -2.056487560272217, -0.6743574142456055, 0.0, 0.0, 0.0, 0, 0, 0, 0, 0, 0, -1.1180311441421509, -2.0598552227020264, -0.67545485496521
15668, 0.021552564576268196, -0.04394146427512169, 0.00026480338419787586, 0.025380972772836685, 0.1353490650653839, -0.07804443687200546, -0.0008613317040726542, -0.002506916644051671, 1.0007574558258057, -1.1180311441421509, -2.0598552227020264, -0.67545485496521, 0.0, 0.0, 0.0, 0, 0, 0, 0, 0, 0, -1.1196895837783813, -2.0632259845733643, -0.676551342010498
15678, 0.02135688066482544, -0.04647671431303024, -7.29594612494111e-05, 0.08775779604911804, 0.16471177339553833, 0.09667551517486572, -6.548217788804322e-05, -0.004487191792577505, 1.0002388954162598, -1.1196895837783813, -2.0632259845733643, -0.676551342010498, 0.0, 0.0, 0.0, 0, 0, 0, 0, 0, 0, -1.1213481426239014, -2.0666003227233887, -0.6776469349861145
15688, 0.021861309185624123, -0.047773927450180054, -0.0020157478284090757, 0.17342939972877502, 0.11866196990013123, -0.027800310403108597, -0.0028015333227813244, -0.002948534209281206, 1.0010324716567993, -1.1213481426239014, -2.0666003227233887, -0.6776469349861145, 0.0, 0.0, 0.0, 0, 0, 0, 0, 0, 0, -1.123006820678711, -2.069978713989258, -0.6787421703338623
